File: example_project/raw_outputs/20240424_ZN_GM0016_HL03_E10_CV50K.DTA
EXPLAIN
TAG	CV
TITLE	LABEL	Cyclic Voltammetry	Test &Identifier
DATE	LABEL	4/24/2024	Date
TIME	LABEL	18:58:37	Time
NOTES	NOTES	1	&Notes...

PSTAT	PSTAT	REF600P-43058	Potentiostat
VINIT	POTEN	0.00000E+000	T	Initial &E (V)
VLIMIT1	POTEN	-6.00000E-001	F	Scan Limit &1 (V)
VLIMIT2	POTEN	8.00000E-001	F	Scan Limit &2 (V)
VFINAL	POTEN	0.00000E+000	T	Final &E (V)
SCANRATE	QUANT	4.99999E+004	&Scan Rate (mV/s)
STEPSIZE	QUANT	1.00000E+001	St&ep Size (mV)
CYCLES	IQUANT	10	C&ycles (#)
IMODE	SELECTOR	0	I/E Range &Mode
IRANGE	QUANT	1.00000E-005	&Max Current (mA)
AREA	QUANT	1.00000E+000	Electrode &Area (cm^2)
ELECTRODETYPE	SELECTOR	0	Electrode Type
STRIPPING	TOGGLE	F	Used for Stripping
POLARITY	TOGGLE	F	Signal Polarity
CONDIT	TWOPARAM	F	1.50000E+001	0.00000E+000	Conditionin&g	Time(s)	E(V)
DELAY	TWOPARAM	T	1.00000E+001	0.00000E+000	Init. De&lay	Time(s)	Stab.(mV/s)
EQDELAY	QUANT	1.00000E+001	Equil. &Time (s)
IRCOMP	SELECTOR	0	IRCom&p
PFCOR	QUANT	5.00000E+001	PF Corr. (ohm)
SAMPLINGMODE	SELECTOR	1	Sampling &Mode
OCVCURVE	TABLE	39
	Pt	T	Vf	Vm	Ach	Over	Temp
	#	s	V vs. Ref.	V	V	bits	deg C
	0	0.258333	-5.04108E-002	-5.04108E-002	2.36392E-004	..........a	-327.66
	1	0.516667	-5.04140E-002	-5.05808E-002	2.53992E-004	..........a	-327.66
	2	0.775	-5.04341E-002	-5.07477E-002	2.33859E-004	..........a	-327.66
	3	1.03333	-5.04914E-002	-5.09176E-002	2.31526E-004	..........a	-327.66
	4	1.29167	-5.05955E-002	-5.10862E-002	2.29792E-004	..........a	-327.66
	5	1.55	-5.07374E-002	-5.12615E-002	2.44592E-004	..........a	-327.66
	6	1.80833	-5.09003E-002	-5.14241E-002	2.22392E-004	..........a	-327.66
	7	2.06667	-5.10708E-002	-5.15908E-002	2.25526E-004	..........a	-327.66
	8	2.325	-5.12418E-002	-5.17571E-002	2.34326E-004	..........a	-327.66
	9	2.58333	-5.14108E-002	-5.19198E-002	2.43792E-004	..........a	-327.66
	10	2.84167	-5.15775E-002	-5.20804E-002	2.37259E-004	..........a	-327.66
	11	3.1	-5.17425E-002	-5.22418E-002	2.39392E-004	..........a	-327.66
	12	3.35833	-5.19058E-002	-5.24007E-002	2.31792E-004	..........a	-327.66
	13	3.61667	-5.20677E-002	-5.25611E-002	2.41459E-004	..........a	-327.66
	14	3.875	-5.22283E-002	-5.27115E-002	2.26126E-004	..........a	-327.66
	15	4.13333	-5.23875E-002	-5.28661E-002	2.28526E-004	..........a	-327.66
	16	4.39167	-5.25447E-002	-5.30192E-002	2.16859E-004	..........a	-327.66
	17	4.65	-5.27000E-002	-5.31688E-002	2.21392E-004	..........a	-327.66
	18	4.90833	-5.28536E-002	-5.33225E-002	2.34526E-004	..........a	-327.66
	19	5.16667	-5.30062E-002	-5.34713E-002	2.28192E-004	..........a	-327.66
	20	5.425	-5.31580E-002	-5.36218E-002	2.39926E-004	..........a	-327.66
	21	5.68333	-5.33092E-002	-5.37732E-002	2.42059E-004	..........a	-327.66
	22	5.94167	-5.34600E-002	-5.39271E-002	2.32326E-004	..........a	-327.66
	23	6.2	-5.36109E-002	-5.40737E-002	2.32126E-004	..........a	-327.66
	24	6.45833	-5.37617E-002	-5.42119E-002	2.34059E-004	..........a	-327.66
	25	6.71667	-5.39111E-002	-5.43546E-002	2.33192E-004	..........a	-327.66
	26	6.975	-5.40578E-002	-5.44998E-002	2.48259E-004	..........a	-327.66
	27	7.23333	-5.42021E-002	-5.46456E-002	2.25126E-004	..........a	-327.66
	28	7.49167	-5.43456E-002	-5.47885E-002	2.28992E-004	..........a	-327.66
	29	7.75	-5.44890E-002	-5.49172E-002	2.33592E-004	..........a	-327.66
	30	8.00833	-5.46314E-002	-5.50595E-002	2.38059E-004	..........a	-327.66
	31	8.26667	-5.47720E-002	-5.52033E-002	2.30592E-004	..........a	-327.66
	32	8.525	-5.49112E-002	-5.53382E-002	2.32992E-004	..........a	-327.66
	33	8.78333	-5.50502E-002	-5.54752E-002	2.26059E-004	..........a	-327.66
	34	9.04167	-5.51890E-002	-5.56105E-002	2.33192E-004	..........a	-327.66
	35	9.3	-5.53270E-002	-5.57460E-002	2.22459E-004	..........a	-327.66
	36	9.5583	-5.54638E-002	-5.58744E-002	2.26326E-004	..........a	-327.66
	37	9.8167	-5.55991E-002	-5.60104E-002	2.45526E-004	..........a	-327.66
	38	10.075	-5.57333E-002	-5.61460E-002	2.33259E-004	..........a	-327.66
EOC	QUANT	-0.0557333	Open Circuit (V)
PSTATMODEL	IQUANT	7	Pstat Model
PSTATSECTION	LABEL	REF600P-43058	Pstat Section
PSTATSERIALNO	LABEL	43058	Pstat Serial Number
CTRLMODE	IQUANT	1	Control Mode
ELECTROMETER	IQUANT	0	RE=0 or CS=1
IESTAB	IQUANT	2	I/E Stability
CASPEED	IQUANT	4	Control Amp Speed
CONVENTION	IQUANT	1	Current Convention
ICHRANGE	IQUANT	2	Ich Range
ICHRANGEMODE	TOGGLE	F	Ich Auto Range
ICHOFFSETENABLE	TOGGLE	F	Ich Offset Enable
ICHOFFSET	QUANT	0	Ich Offset (V)
ICHFILTER	IQUANT	1	Ich Filter
VCHRANGE	IQUANT	2	Vch Range
VCHRANGEMODE	TOGGLE	F	Vch Auto Range
VCHOFFSETENABLE	TOGGLE	F	Vch Offset Enable
VCHOFFSET	QUANT	0	Vch Offset (V)
VCHFILTER	IQUANT	1	Vch Filter
ACHRANGE	IQUANT	2	Ach Range
ACHOFFSETENABLE	TOGGLE	F	Ach Offset Enable
ACHOFFSET	QUANT	0	Ach Offset (V)
ACHFILTER	IQUANT	1	Ach Filter
IERANGELOWERLIMIT	IQUANT	1	I/E Range Lower Limit
IERANGEMODE	TOGGLE	T	I/E AutoRange
IERANGE	IQUANT	4	I/E Range
POSFEEDENABLE	TOGGLE	F	Positive Feedback IR Comp
POSFEEDRESISTANCE	QUANT	0	Positive Feedback Resistance (ohm)
ACHSELECT	IQUANT	4	Ach Select
SENSECABLEID	IQUANT	7	Sense Cable ID
PWRCABLEID	IQUANT	7	Power Cable ID
DCCALDATE	LABEL	3/22/2024	DC Calibration Date
ACCALDATE	LABEL	3/22/2024	AC Calibration Date
THERMOSELECT	IQUANT	1	Thermo Select
FRAMEWORKVERSION	LABEL	7.8.4	Framework Version
INSTRUMENTVERSION	LABEL	4.42	Instrument Version
CURVE1	TABLE
	Pt	T	Vf	Im	Vu	Sig	Ach	IERange	Over	Temp
	#	s	V vs. Ref.	A	V	V	V	#	bits	deg C
	0	0.0002	-5.57529E-002	2.65002E-007	0.00000E+000	-5.57500E-002	8.15923E-005	8	..........a	-327.66
	1	0.0004	-6.56529E-002	-8.75042E-007	0.00000E+000	-6.57500E-002	8.15923E-005	8	..........a	-327.66
	2	0.0006	-7.56529E-002	-1.67507E-006	0.00000E+000	-7.57500E-002	8.15923E-005	8	..........a	-327.66
	3	0.0008	-8.58529E-002	-2.24509E-006	0.00000E+000	-8.57500E-002	8.15923E-005	8	..........a	-327.66
	4	0.001	-9.57529E-002	-2.75511E-006	0.00000E+000	-9.57500E-002	8.15923E-005	8	..........a	-327.66
	5	0.0012	-1.05753E-001	-3.19513E-006	0.00000E+000	-1.05750E-001	8.15923E-005	8	..........a	-327.66
	6	0.0014	-1.15653E-001	-3.50514E-006	0.00000E+000	-1.15750E-001	8.15923E-005	8	..........a	-327.66
	7	0.0016	-1.25553E-001	-3.87516E-006	0.00000E+000	-1.25750E-001	8.15923E-005	8	..........a	-327.66
	8	0.0018	-1.35753E-001	-4.21517E-006	0.00000E+000	-1.35750E-001	8.15923E-005	8	..........a	-327.66
	9	0.002	-1.45753E-001	-4.43518E-006	0.00000E+000	-1.45750E-001	8.15923E-005	8	..........a	-327.66
	10	0.0022	-1.55653E-001	-4.67519E-006	0.00000E+000	-1.55750E-001	-3.18408E-004	8	..........a	-327.66
	11	0.0024	-1.65653E-001	-4.89520E-006	0.00000E+000	-1.65750E-001	8.15923E-005	8	..........a	-327.66
	12	0.0026	-1.75653E-001	-5.15521E-006	0.00000E+000	-1.75750E-001	8.15923E-005	8	..........a	-327.66
	13	0.0028	-1.85853E-001	-5.31521E-006	0.00000E+000	-1.85750E-001	-3.18408E-004	8	..........a	-327.66
	14	0.003	-1.95703E-001	-5.48522E-006	0.00000E+000	-1.95750E-001	8.15923E-005	8	..........a	-327.66
	15	0.0032	-2.05653E-001	-5.61522E-006	0.00000E+000	-2.05750E-001	8.15923E-005	8	..........a	-327.66
	16	0.0034	-2.15653E-001	-5.81523E-006	0.00000E+000	-2.15750E-001	8.15923E-005	8	..........a	-327.66
	17	0.0036	-2.25653E-001	-5.90523E-006	0.00000E+000	-2.25750E-001	-3.18408E-004	8	..........a	-327.66
	18	0.0038	-2.35653E-001	-6.04524E-006	0.00000E+000	-2.35750E-001	-3.18408E-004	8	..........a	-327.66
	19	0.004	-2.45553E-001	-6.21525E-006	0.00000E+000	-2.45750E-001	-4.18408E-004	8	..........a	-327.66
	20	0.0042	-2.55853E-001	-6.41525E-006	0.00000E+000	-2.55750E-001	-4.18408E-004	8	..........a	-327.66
	21	0.0044	-2.65753E-001	-6.54526E-006	0.00000E+000	-2.65750E-001	8.15923E-005	8	..........a	-327.66
	22	0.0046	-2.75653E-001	-6.62526E-006	0.00000E+000	-2.75750E-001	8.15923E-005	8	..........a	-327.66
	23	0.0048	-2.85553E-001	-6.75527E-006	0.00000E+000	-2.85750E-001	8.15923E-005	8	..........a	-327.66
	24	0.005	-2.95653E-001	-6.89527E-006	0.00000E+000	-2.95750E-001	8.15923E-005	8	..........a	-327.66
	25	0.0052	-3.05753E-001	-7.05528E-006	0.00000E+000	-3.05750E-001	-3.18408E-004	8	..........a	-327.66
	26	0.0054	-3.15653E-001	-7.16528E-006	0.00000E+000	-3.15750E-001	8.15923E-005	8	..........a	-327.66
	27	0.0056	-3.25653E-001	-7.28529E-006	0.00000E+000	-3.25750E-001	8.15923E-005	8	..........a	-327.66
	28	0.0058	-3.35753E-001	-7.42529E-006	0.00000E+000	-3.35750E-001	-3.18408E-004	8	..........a	-327.66
	29	0.006	-3.45653E-001	-7.54530E-006	0.00000E+000	-3.45750E-001	8.15923E-005	8	..........a	-327.66
	30	0.0062	-3.55653E-001	-7.70530E-006	0.00000E+000	-3.55750E-001	8.15923E-005	8	..........a	-327.66
	31	0.0064	-3.65553E-001	-7.81531E-006	0.00000E+000	-3.65750E-001	8.15923E-005	8	..........a	-327.66
	32	0.0066	-3.75753E-001	-7.99531E-006	0.00000E+000	-3.75750E-001	8.15923E-005	8	..........a	-327.66
	33	0.0068	-3.85753E-001	-8.11532E-006	0.00000E+000	-3.85750E-001	8.15923E-005	8	..........a	-327.66
	34	0.007	-3.95653E-001	-8.26532E-006	0.00000E+000	-3.95750E-001	8.15923E-005	8	..........a	-327.66
	35	0.0072	-4.05753E-001	-8.39533E-006	0.00000E+000	-4.05750E-001	8.15923E-005	8	..........a	-327.66
	36	0.0074	-4.15653E-001	-8.53533E-006	0.00000E+000	-4.15750E-001	8.15923E-005	8	..........a	-327.66
	37	0.0076	-4.25753E-001	-8.64534E-006	0.00000E+000	-4.25750E-001	8.15923E-005	8	..........a	-327.66
	38	0.0078	-4.35553E-001	-8.87535E-006	0.00000E+000	-4.35750E-001	8.15923E-005	8	..........a	-327.66
	39	0.008	-4.45753E-001	-8.99535E-006	0.00000E+000	-4.45750E-001	8.15923E-005	8	..........a	-327.66
	40	0.0082	-4.55553E-001	-9.15536E-006	0.00000E+000	-4.55750E-001	8.15923E-005	8	..........a	-327.66
	41	0.0084	-4.65653E-001	-9.33536E-006	0.00000E+000	-4.65750E-001	8.15923E-005	8	..........a	-327.66
	42	0.0086	-4.75553E-001	-9.47537E-006	0.00000E+000	-4.75750E-001	8.15923E-005	8	..........a	-327.66
	43	0.0088	-4.85653E-001	-9.65538E-006	0.00000E+000	-4.85750E-001	8.15923E-005	8	..........a	-327.66
	44	0.009	-4.95553E-001	-9.79538E-006	0.00000E+000	-4.95750E-001	8.15923E-005	8	..........a	-327.66
	45	0.0092	-5.05553E-001	-9.95539E-006	0.00000E+000	-5.05750E-001	8.15923E-005	8	..........a	-327.66
	46	0.0094	-5.15753E-001	-1.01254E-005	0.00000E+000	-5.15750E-001	8.15923E-005	8	..........a	-327.66
	47	0.0096	-5.25553E-001	-1.02754E-005	0.00000E+000	-5.25750E-001	8.15923E-005	8	..........a	-327.66
	48	0.0098	-5.35653E-001	-1.04454E-005	0.00000E+000	-5.35750E-001	8.15923E-005	8	..........a	-327.66
	49	0.01	-5.45553E-001	-1.05754E-005	0.00000E+000	-5.45750E-001	8.15923E-005	8	..........a	-327.66
	50	0.0102	-5.55653E-001	-1.07254E-005	0.00000E+000	-5.55750E-001	8.15923E-005	8	..........a	-327.66
	51	0.0104	-5.65553E-001	-1.08854E-005	0.00000E+000	-5.65750E-001	8.15923E-005	8	..........a	-327.66
	52	0.0106	-5.75553E-001	-1.10454E-005	0.00000E+000	-5.75750E-001	8.15923E-005	8	..........a	-327.66
	53	0.0108	-5.85453E-001	-1.12054E-005	0.00000E+000	-5.85750E-001	8.15923E-005	8	..........a	-327.66
	54	0.011	-5.95553E-001	-1.13154E-005	0.00000E+000	-5.95750E-001	8.15923E-005	8	..........a	-327.66
	55	0.0112	-5.85753E-001	-9.15536E-006	0.00000E+000	-5.85750E-001	8.15923E-005	8	..........a	-327.66
	56	0.0114	-5.75653E-001	-7.54530E-006	0.00000E+000	-5.75750E-001	8.15923E-005	8	..........a	-327.66
	57	0.0116	-5.65653E-001	-6.23525E-006	0.00000E+000	-5.65750E-001	8.15923E-005	8	..........a	-327.66
	58	0.0118	-5.55653E-001	-5.10520E-006	0.00000E+000	-5.55750E-001	8.15923E-005	8	..........a	-327.66
	59	0.012	-5.45753E-001	-4.10516E-006	0.00000E+000	-5.45750E-001	8.15923E-005	8	..........a	-327.66
	60	0.0122	-5.35653E-001	-3.29513E-006	0.00000E+000	-5.35750E-001	8.15923E-005	8	..........a	-327.66
	61	0.0124	-5.25553E-001	-2.55511E-006	0.00000E+000	-5.25750E-001	8.15923E-005	8	..........a	-327.66
	62	0.0126	-5.15753E-001	-1.84508E-006	0.00000E+000	-5.15750E-001	8.15923E-005	8	..........a	-327.66
	63	0.0128	-5.05753E-001	-1.22505E-006	0.00000E+000	-5.05750E-001	8.15923E-005	8	..........a	-327.66
	64	0.013	-4.95753E-001	-6.55033E-007	0.00000E+000	-4.95750E-001	8.15923E-005	8	..........a	-327.66
	65	0.0132	-4.85553E-001	-1.15012E-007	0.00000E+000	-4.85750E-001	8.15923E-005	8	..........a	-327.66
	66	0.0134	-4.75653E-001	4.25008E-007	0.00000E+000	-4.75750E-001	8.15923E-005	8	..........a	-327.66
	67	0.0136	-4.65553E-001	8.85026E-007	0.00000E+000	-4.65750E-001	8.15923E-005	8	..........a	-327.66
	68	0.0138	-4.55753E-001	1.27504E-006	0.00000E+000	-4.55750E-001	8.15923E-005	8	..........a	-327.66
	69	0.014	-4.45553E-001	1.66506E-006	0.00000E+000	-4.45750E-001	8.15923E-005	8	..........a	-327.66
	70	0.0142	-4.35653E-001	2.03507E-006	0.00000E+000	-4.35750E-001	8.15923E-005	8	..........a	-327.66
	71	0.0144	-4.25653E-001	2.40508E-006	0.00000E+000	-4.25750E-001	8.15923E-005	8	..........a	-327.66
	72	0.0146	-4.15703E-001	2.71510E-006	0.00000E+000	-4.15750E-001	8.15923E-005	8	..........a	-327.66
	73	0.0148	-4.05753E-001	2.98511E-006	0.00000E+000	-4.05750E-001	8.15923E-005	8	..........a	-327.66
	74	0.015	-3.95553E-001	3.30512E-006	0.00000E+000	-3.95750E-001	8.15923E-005	8	..........a	-327.66
	75	0.0152	-3.85653E-001	3.57513E-006	0.00000E+000	-3.85750E-001	-3.18408E-004	8	..........a	-327.66
	76	0.0154	-3.75753E-001	3.81514E-006	0.00000E+000	-3.75750E-001	8.15923E-005	8	..........a	-327.66
	77	0.0156	-3.65853E-001	4.05515E-006	0.00000E+000	-3.65750E-001	8.15923E-005	8	..........a	-327.66
	78	0.0158	-3.55553E-001	4.27516E-006	0.00000E+000	-3.55750E-001	8.15923E-005	8	..........a	-327.66
	79	0.016	-3.45653E-001	4.50516E-006	0.00000E+000	-3.45750E-001	-3.18408E-004	8	..........a	-327.66
	80	0.0162	-3.35703E-001	4.77518E-006	0.00000E+000	-3.35750E-001	-2.18408E-004	8	..........a	-327.66
	81	0.0164	-3.25753E-001	4.97518E-006	0.00000E+000	-3.25750E-001	8.15923E-005	8	..........a	-327.66
	82	0.0166	-3.15653E-001	5.08519E-006	0.00000E+000	-3.15750E-001	8.15923E-005	8	..........a	-327.66
	83	0.0168	-3.05853E-001	5.27519E-006	0.00000E+000	-3.05750E-001	8.15923E-005	8	..........a	-327.66
	84	0.017	-2.95653E-001	5.47520E-006	0.00000E+000	-2.95750E-001	8.15923E-005	8	..........a	-327.66
	85	0.0172	-2.85553E-001	5.64521E-006	0.00000E+000	-2.85750E-001	8.15923E-005	8	..........a	-327.66
	86	0.0174	-2.75553E-001	5.78521E-006	0.00000E+000	-2.75750E-001	8.15923E-005	8	..........a	-327.66
	87	0.0176	-2.65553E-001	5.92522E-006	0.00000E+000	-2.65750E-001	8.15923E-005	8	..........a	-327.66
	88	0.0178	-2.55653E-001	6.07522E-006	0.00000E+000	-2.55750E-001	8.15923E-005	8	..........a	-327.66
	89	0.018	-2.45453E-001	6.20523E-006	0.00000E+000	-2.45750E-001	8.15923E-005	8	..........a	-327.66
	90	0.0182	-2.35603E-001	6.36524E-006	0.00000E+000	-2.35750E-001	8.15923E-005	8	..........a	-327.66
	91	0.0184	-2.25753E-001	6.46524E-006	0.00000E+000	-2.25750E-001	8.15923E-005	8	..........a	-327.66
	92	0.0186	-2.15753E-001	6.61525E-006	0.00000E+000	-2.15750E-001	8.15923E-005	8	..........a	-327.66
	93	0.0188	-2.05553E-001	6.76525E-006	0.00000E+000	-2.05750E-001	8.15923E-005	8	..........a	-327.66
	94	0.019	-1.95653E-001	6.87526E-006	0.00000E+000	-1.95750E-001	-3.18408E-004	8	..........a	-327.66
	95	0.0192	-1.85803E-001	6.96526E-006	0.00000E+000	-1.85750E-001	8.15923E-005	8	..........a	-327.66
	96	0.0194	-1.75653E-001	7.07526E-006	0.00000E+000	-1.75750E-001	8.15923E-005	8	..........a	-327.66
	97	0.0196	-1.65553E-001	7.16527E-006	0.00000E+000	-1.65750E-001	8.15923E-005	8	..........a	-327.66
	98	0.0198	-1.55703E-001	7.29527E-006	0.00000E+000	-1.55750E-001	8.15923E-005	8	..........a	-327.66
	99	0.02	-1.45803E-001	7.37527E-006	0.00000E+000	-1.45750E-001	8.15923E-005	8	..........a	-327.66
	100	0.0202	-1.35803E-001	7.51528E-006	0.00000E+000	-1.35750E-001	8.15923E-005	8	..........a	-327.66
	101	0.0204	-1.25753E-001	7.58528E-006	0.00000E+000	-1.25750E-001	8.15923E-005	8	..........a	-327.66
	102	0.0206	-1.15753E-001	7.69529E-006	0.00000E+000	-1.15750E-001	8.15923E-005	8	..........a	-327.66
	103	0.0208	-1.05853E-001	7.78529E-006	0.00000E+000	-1.05750E-001	8.15923E-005	8	..........a	-327.66
	104	0.021	-9.56529E-002	7.88529E-006	0.00000E+000	-9.57500E-002	8.15923E-005	8	..........a	-327.66
	105	0.0212	-8.54529E-002	7.98530E-006	0.00000E+000	-8.57500E-002	8.15923E-005	8	..........a	-327.66
	106	0.0214	-7.58029E-002	8.09530E-006	0.00000E+000	-7.57500E-002	-2.18408E-004	8	..........a	-327.66
	107	0.0216	-6.56529E-002	8.13530E-006	0.00000E+000	-6.57500E-002	-2.18408E-004	8	..........a	-327.66
	108	0.0218	-5.56529E-002	8.22531E-006	0.00000E+000	-5.57500E-002	8.15923E-005	8	..........a	-327.66
	109	0.022	-4.58529E-002	8.34531E-006	0.00000E+000	-4.57500E-002	8.15923E-005	8	..........a	-327.66
	110	0.0222	-3.57529E-002	8.43532E-006	0.00000E+000	-3.57500E-002	8.15923E-005	8	..........a	-327.66
	111	0.0224	-2.58529E-002	8.53532E-006	0.00000E+000	-2.57500E-002	-2.18408E-004	8	..........a	-327.66
	112	0.0226	-1.56529E-002	8.60532E-006	0.00000E+000	-1.57500E-002	8.15923E-005	8	..........a	-327.66
	113	0.0228	-5.95289E-003	8.71533E-006	0.00000E+000	-5.74999E-003	8.15923E-005	8	..........a	-327.66
	114	0.023	4.24711E-003	8.82533E-006	0.00000E+000	4.25000E-003	-4.18408E-004	8	..........a	-327.66
	115	0.0232	1.41471E-002	8.96533E-006	0.00000E+000	1.42500E-002	8.15923E-005	8	..........a	-327.66
	116	0.0234	2.42971E-002	9.03534E-006	0.00000E+000	2.42500E-002	8.15923E-005	8	..........a	-327.66
	117	0.0236	3.43471E-002	9.13534E-006	0.00000E+000	3.42500E-002	8.15923E-005	8	..........a	-327.66
	118	0.0238	4.42971E-002	9.24535E-006	0.00000E+000	4.42500E-002	-3.18408E-004	8	..........a	-327.66
	119	0.024	5.42471E-002	9.32535E-006	0.00000E+000	5.42500E-002	-1.18408E-004	8	..........a	-327.66
	120	0.0242	6.41471E-002	9.51536E-006	0.00000E+000	6.42500E-002	-1.18408E-004	8	..........a	-327.66
	121	0.0244	7.42471E-002	9.62536E-006	0.00000E+000	7.42500E-002	8.15923E-005	8	..........a	-327.66
	122	0.0246	8.42471E-002	9.80537E-006	0.00000E+000	8.42500E-002	8.15923E-005	8	..........a	-327.66
	123	0.0248	9.43471E-002	9.90537E-006	0.00000E+000	9.42500E-002	8.15923E-005	8	..........a	-327.66
	124	0.025	1.04347E-001	1.00054E-005	0.00000E+000	1.04250E-001	8.15923E-005	8	..........a	-327.66
	125	0.0252	1.14247E-001	1.01554E-005	0.00000E+000	1.14250E-001	8.15923E-005	8	..........a	-327.66
	126	0.0254	1.24247E-001	1.02854E-005	0.00000E+000	1.24250E-001	8.15923E-005	8	..........a	-327.66
	127	0.0256	1.34247E-001	1.04854E-005	0.00000E+000	1.34250E-001	8.15923E-005	8	..........a	-327.66
	128	0.0258	1.44247E-001	1.06454E-005	0.00000E+000	1.44250E-001	8.15923E-005	8	..........a	-327.66
	129	0.026	1.54147E-001	1.09054E-005	0.00000E+000	1.54250E-001	8.15923E-005	8	..........a	-327.66
	130	0.0262	1.64347E-001	1.11354E-005	0.00000E+000	1.64250E-001	8.15923E-005	8	..........a	-327.66
	131	0.0264	1.74147E-001	1.13354E-005	0.00000E+000	1.74250E-001	8.15923E-005	8	..........a	-327.66
	132	0.0266	1.84347E-001	1.15554E-005	0.00000E+000	1.84250E-001	8.15923E-005	8	..........a	-327.66
	133	0.0268	1.94047E-001	1.17154E-005	0.00000E+000	1.94250E-001	8.15923E-005	8	..........a	-327.66
	134	0.027	2.04347E-001	1.18954E-005	0.00000E+000	2.04250E-001	-3.18408E-004	8	..........a	-327.66
	135	0.0272	2.14147E-001	1.20255E-005	0.00000E+000	2.14250E-001	8.15923E-005	8	..........a	-327.66
	136	0.0274	2.24247E-001	1.23155E-005	0.00000E+000	2.24250E-001	8.15923E-005	8	..........a	-327.66
	137	0.0276	2.34247E-001	1.25355E-005	0.00000E+000	2.34250E-001	8.15923E-005	8	..........a	-327.66
	138	0.0278	2.44197E-001	1.28355E-005	0.00000E+000	2.44250E-001	-3.18408E-004	8	..........a	-327.66
	139	0.028	2.54197E-001	1.32055E-005	0.00000E+000	2.54250E-001	8.15923E-005	8	..........a	-327.66
	140	0.0282	2.64247E-001	1.36655E-005	0.00000E+000	2.64250E-001	8.15923E-005	8	..........a	-327.66
	141	0.0284	2.74347E-001	1.40755E-005	0.00000E+000	2.74250E-001	8.15923E-005	8	..........a	-327.66
	142	0.0286	2.84247E-001	1.45055E-005	0.00000E+000	2.84250E-001	8.15923E-005	8	..........a	-327.66
	143	0.0288	2.94247E-001	1.48756E-005	0.00000E+000	2.94250E-001	8.15923E-005	8	..........a	-327.66
	144	0.029	3.04247E-001	1.52256E-005	0.00000E+000	3.04250E-001	-3.18408E-004	8	..........a	-327.66
	145	0.0292	3.14347E-001	1.55456E-005	0.00000E+000	3.14250E-001	8.15923E-005	8	..........a	-327.66
	146	0.0294	3.24247E-001	1.57956E-005	0.00000E+000	3.24250E-001	8.15923E-005	8	..........a	-327.66
	147	0.0296	3.34047E-001	1.58856E-005	0.00000E+000	3.34250E-001	8.15923E-005	8	..........a	-327.66
	148	0.0298	3.44347E-001	1.60156E-005	0.00000E+000	3.44250E-001	-3.18408E-004	8	..........a	-327.66
	149	0.03	3.54347E-001	1.60456E-005	0.00000E+000	3.54250E-001	8.15923E-005	8	..........a	-327.66
	150	0.0302	3.64347E-001	1.61356E-005	0.00000E+000	3.64250E-001	8.15923E-005	8	..........a	-327.66
	151	0.0304	3.74247E-001	1.61856E-005	0.00000E+000	3.74250E-001	8.15923E-005	8	..........a	-327.66
	152	0.0306	3.84247E-001	1.63256E-005	0.00000E+000	3.84250E-001	8.15923E-005	8	..........a	-327.66
	153	0.0308	3.94347E-001	1.64856E-005	0.00000E+000	3.94250E-001	8.15923E-005	8	..........a	-327.66
	154	0.031	4.04347E-001	1.66656E-005	0.00000E+000	4.04250E-001	8.15923E-005	8	..........a	-327.66
	155	0.0312	4.14247E-001	1.68056E-005	0.00000E+000	4.14250E-001	8.15923E-005	8	..........a	-327.66
	156	0.0314	4.24047E-001	1.70756E-005	0.00000E+000	4.24250E-001	8.15923E-005	8	..........a	-327.66
	157	0.0316	4.34147E-001	1.73157E-005	0.00000E+000	4.34250E-001	8.15923E-005	8	..........a	-327.66
	158	0.0318	4.44247E-001	1.75357E-005	0.00000E+000	4.44250E-001	8.15923E-005	8	..........a	-327.66
	159	0.032	4.54097E-001	1.77957E-005	0.00000E+000	4.54250E-001	8.15923E-005	8	..........a	-327.66
	160	0.0322	4.64147E-001	1.80257E-005	0.00000E+000	4.64250E-001	8.15923E-005	8	..........a	-327.66
	161	0.0324	4.74297E-001	1.82557E-005	0.00000E+000	4.74250E-001	8.15923E-005	8	..........a	-327.66
	162	0.0326	4.84197E-001	1.84857E-005	0.00000E+000	4.84250E-001	8.15923E-005	8	..........a	-327.66
	163	0.0328	4.94247E-001	1.86557E-005	0.00000E+000	4.94250E-001	8.15923E-005	8	..........a	-327.66
	164	0.033	5.04247E-001	1.88257E-005	0.00000E+000	5.04250E-001	8.15923E-005	8	..........a	-327.66
	165	0.0332	5.14247E-001	1.89657E-005	0.00000E+000	5.14250E-001	8.15923E-005	8	..........a	-327.66
	166	0.0334	5.24147E-001	1.91457E-005	0.00000E+000	5.24250E-001	8.15923E-005	8	..........a	-327.66
	167	0.0336	5.34247E-001	1.92257E-005	0.00000E+000	5.34250E-001	8.15923E-005	8	..........a	-327.66
	168	0.0338	5.44247E-001	1.93357E-005	0.00000E+000	5.44250E-001	8.15923E-005	8	..........a	-327.66
	169	0.034	5.54347E-001	1.94457E-005	0.00000E+000	5.54250E-001	8.15923E-005	8	..........a	-327.66
	170	0.0342	5.64247E-001	1.95657E-005	0.00000E+000	5.64250E-001	8.15923E-005	8	..........a	-327.66
	171	0.0344	5.74247E-001	1.96657E-005	0.00000E+000	5.74250E-001	8.15923E-005	8	..........a	-327.66
	172	0.0346	5.84247E-001	1.97557E-005	0.00000E+000	5.84250E-001	8.15923E-005	8	..........a	-327.66
	173	0.0348	5.94247E-001	1.98658E-005	0.00000E+000	5.94250E-001	8.15923E-005	8	..........a	-327.66
	174	0.035	6.04347E-001	2.00458E-005	0.00000E+000	6.04250E-001	8.15923E-005	8	..........a	-327.66
	175	0.0352	6.14147E-001	2.02158E-005	0.00000E+000	6.14250E-001	8.15923E-005	8	..........a	-327.66
	176	0.0354	6.24147E-001	2.03558E-005	0.00000E+000	6.24250E-001	8.15923E-005	8	..........a	-327.66
	177	0.0356	6.34247E-001	2.05258E-005	0.00000E+000	6.34250E-001	8.15923E-005	8	..........a	-327.66
	178	0.0358	6.44247E-001	2.07358E-005	0.00000E+000	6.44250E-001	8.15923E-005	8	..........a	-327.66
	179	0.036	6.54247E-001	2.09058E-005	0.00000E+000	6.54250E-001	8.15923E-005	8	..........a	-327.66
	180	0.0362	6.64247E-001	2.11258E-005	0.00000E+000	6.64250E-001	8.15923E-005	8	..........a	-327.66
	181	0.0364	6.74347E-001	2.12758E-005	0.00000E+000	6.74250E-001	8.15923E-005	8	..........a	-327.66
	182	0.0366	6.84197E-001	2.14358E-005	0.00000E+000	6.84250E-001	8.15923E-005	8	..........a	-327.66
	183	0.0368	6.94147E-001	2.16358E-005	0.00000E+000	6.94250E-001	8.15923E-005	8	..........a	-327.66
	184	0.037	7.04247E-001	2.17658E-005	0.00000E+000	7.04250E-001	8.15923E-005	8	..........a	-327.66
	185	0.0372	7.14347E-001	2.19258E-005	0.00000E+000	7.14250E-001	8.15923E-005	8	..........a	-327.66
	186	0.0374	7.24247E-001	2.21158E-005	0.00000E+000	7.24250E-001	8.15923E-005	8	..........a	-327.66
	187	0.0376	7.34097E-001	2.22058E-005	0.00000E+000	7.34250E-001	8.15923E-005	8	..........a	-327.66
	188	0.0378	7.44247E-001	2.22658E-005	0.00000E+000	7.44250E-001	8.15923E-005	8	..........a	-327.66
	189	0.038	7.54247E-001	2.24058E-005	0.00000E+000	7.54250E-001	8.15923E-005	8	..........a	-327.66
	190	0.0382	7.64247E-001	2.24058E-005	0.00000E+000	7.64250E-001	8.15923E-005	8	..........a	-327.66
	191	0.0384	7.74147E-001	2.25459E-005	0.00000E+000	7.74250E-001	8.15923E-005	8	..........a	-327.66
	192	0.0386	7.84247E-001	2.25859E-005	0.00000E+000	7.84250E-001	8.15923E-005	8	..........a	-327.66
	193	0.0388	7.94047E-001	2.26059E-005	0.00000E+000	7.94250E-001	8.15923E-005	8	..........a	-327.66
	194	0.039	8.04247E-001	2.27259E-005	0.00000E+000	8.04250E-001	8.15923E-005	8	..........a	-327.66
CURVE2	TABLE
	Pt	T	Vf	Im	Vu	Sig	Ach	IERange	Over	Temp
	#	s	V vs. Ref.	A	V	V	V	#	bits	deg C
	195	0.0392	7.89947E-001	1.88457E-005	0.00000E+000	7.90000E-001	8.15923E-005	8	..........a	-327.66
	196	0.0394	7.79947E-001	1.65656E-005	0.00000E+000	7.80000E-001	8.15923E-005	8	..........a	-327.66
	197	0.0396	7.69847E-001	1.45856E-005	0.00000E+000	7.70000E-001	8.15923E-005	8	..........a	-327.66
	198	0.0398	7.59947E-001	1.29055E-005	0.00000E+000	7.60000E-001	8.15923E-005	8	..........a	-327.66
	199	0.04	7.50047E-001	1.13954E-005	0.00000E+000	7.50000E-001	8.15923E-005	8	..........a	-327.66
	200	0.0402	7.39847E-001	1.00754E-005	0.00000E+000	7.40000E-001	8.15923E-005	8	..........a	-327.66
	201	0.0404	7.29847E-001	8.84533E-006	0.00000E+000	7.30000E-001	8.15923E-005	8	..........a	-327.66
	202	0.0406	7.19947E-001	7.74529E-006	0.00000E+000	7.20000E-001	8.15923E-005	8	..........a	-327.66
	203	0.0408	7.09947E-001	6.66525E-006	0.00000E+000	7.10000E-001	8.15923E-005	8	..........a	-327.66
	204	0.041	6.99947E-001	5.74521E-006	0.00000E+000	7.00000E-001	8.15923E-005	8	..........a	-327.66
	205	0.0412	6.89947E-001	4.83518E-006	0.00000E+000	6.90000E-001	8.15923E-005	8	..........a	-327.66
	206	0.0414	6.80147E-001	4.04515E-006	0.00000E+000	6.80000E-001	8.15923E-005	8	..........a	-327.66
	207	0.0416	6.69847E-001	3.29512E-006	0.00000E+000	6.70000E-001	8.15923E-005	8	..........a	-327.66
	208	0.0418	6.59947E-001	2.54509E-006	0.00000E+000	6.60000E-001	8.15923E-005	8	..........a	-327.66
	209	0.042	6.49947E-001	1.86506E-006	0.00000E+000	6.50000E-001	8.15923E-005	8	..........a	-327.66
	210	0.0422	6.39947E-001	1.26504E-006	0.00000E+000	6.40000E-001	8.15923E-005	8	..........a	-327.66
	211	0.0424	6.29947E-001	5.65014E-007	0.00000E+000	6.30000E-001	8.15923E-005	8	..........a	-327.66
	212	0.0426	6.19947E-001	-5.00819E-009	0.00000E+000	6.20000E-001	8.15923E-005	8	..........a	-327.66
	213	0.0428	6.09947E-001	-6.15032E-007	0.00000E+000	6.10000E-001	-2.18408E-004	8	..........a	-327.66
	214	0.043	5.99947E-001	-1.09505E-006	0.00000E+000	6.00000E-001	8.15923E-005	8	..........a	-327.66
	215	0.0432	5.90047E-001	-1.58507E-006	0.00000E+000	5.90000E-001	8.15923E-005	8	..........a	-327.66
	216	0.0434	5.80197E-001	-2.10509E-006	0.00000E+000	5.80000E-001	8.15923E-005	8	..........a	-327.66
	217	0.0436	5.70047E-001	-2.56511E-006	0.00000E+000	5.70000E-001	8.15923E-005	8	..........a	-327.66
	218	0.0438	5.60147E-001	-3.00512E-006	0.00000E+000	5.60000E-001	8.15923E-005	8	..........a	-327.66
	219	0.044	5.50047E-001	-3.40514E-006	0.00000E+000	5.50000E-001	8.15923E-005	8	..........a	-327.66
	220	0.0442	5.40147E-001	-3.81515E-006	0.00000E+000	5.40000E-001	8.15923E-005	8	..........a	-327.66
	221	0.0444	5.29947E-001	-4.25517E-006	0.00000E+000	5.30000E-001	8.15923E-005	8	..........a	-327.66
	222	0.0446	5.20147E-001	-4.59518E-006	0.00000E+000	5.20000E-001	8.15923E-005	8	..........a	-327.66
	223	0.0448	5.10047E-001	-4.89520E-006	0.00000E+000	5.10000E-001	8.15923E-005	8	..........a	-327.66
	224	0.045	4.99947E-001	-5.29521E-006	0.00000E+000	5.00000E-001	8.15923E-005	8	..........a	-327.66
	225	0.0452	4.90047E-001	-5.60522E-006	0.00000E+000	4.90000E-001	8.15923E-005	8	..........a	-327.66
	226	0.0454	4.80047E-001	-5.92523E-006	0.00000E+000	4.80000E-001	8.15923E-005	8	..........a	-327.66
	227	0.0456	4.70047E-001	-6.23525E-006	0.00000E+000	4.70000E-001	8.15923E-005	8	..........a	-327.66
	228	0.0458	4.59947E-001	-6.51526E-006	0.00000E+000	4.60000E-001	8.15923E-005	8	..........a	-327.66
	229	0.046	4.49947E-001	-6.82527E-006	0.00000E+000	4.50000E-001	8.15923E-005	8	..........a	-327.66
	230	0.0462	4.39947E-001	-7.10528E-006	0.00000E+000	4.40000E-001	8.15923E-005	8	..........a	-327.66
	231	0.0464	4.29847E-001	-7.34529E-006	0.00000E+000	4.30000E-001	8.15923E-005	8	..........a	-327.66
	232	0.0466	4.19947E-001	-7.62530E-006	0.00000E+000	4.20000E-001	8.15923E-005	8	..........a	-327.66
	233	0.0468	4.09947E-001	-7.86531E-006	0.00000E+000	4.10000E-001	8.15923E-005	8	..........a	-327.66
	234	0.047	4.00147E-001	-8.15532E-006	0.00000E+000	4.00000E-001	8.15923E-005	8	..........a	-327.66
	235	0.0472	3.90047E-001	-8.36533E-006	0.00000E+000	3.90000E-001	8.15923E-005	8	..........a	-327.66
	236	0.0474	3.79847E-001	-8.62534E-006	0.00000E+000	3.80000E-001	8.15923E-005	8	..........a	-327.66
	237	0.0476	3.70147E-001	-8.95535E-006	0.00000E+000	3.70000E-001	8.15923E-005	8	..........a	-327.66
	238	0.0478	3.59847E-001	-9.15536E-006	0.00000E+000	3.60000E-001	8.15923E-005	8	..........a	-327.66
	239	0.048	3.49947E-001	-9.47537E-006	0.00000E+000	3.50000E-001	8.15923E-005	8	..........a	-327.66
	240	0.0482	3.40047E-001	-9.72538E-006	0.00000E+000	3.40000E-001	8.15923E-005	8	..........a	-327.66
	241	0.0484	3.30047E-001	-1.00054E-005	0.00000E+000	3.30000E-001	8.15923E-005	8	..........a	-327.66
	242	0.0486	3.19947E-001	-1.03054E-005	0.00000E+000	3.20000E-001	8.15923E-005	8	..........a	-327.66
	243	0.0488	3.10047E-001	-1.06154E-005	0.00000E+000	3.10000E-001	8.15923E-005	8	..........a	-327.66
	244	0.049	3.00247E-001	-1.08754E-005	0.00000E+000	3.00000E-001	8.15923E-005	8	..........a	-327.66
	245	0.0492	2.89947E-001	-1.10954E-005	0.00000E+000	2.90000E-001	8.15923E-005	8	..........a	-327.66
	246	0.0494	2.80047E-001	-1.13754E-005	0.00000E+000	2.80000E-001	8.15923E-005	8	..........a	-327.66
	247	0.0496	2.70047E-001	-1.16555E-005	0.00000E+000	2.70000E-001	-3.18408E-004	8	..........a	-327.66
	248	0.0498	2.60047E-001	-1.19455E-005	0.00000E+000	2.60000E-001	8.15923E-005	8	..........a	-327.66
	249	0.05	2.49947E-001	-1.22255E-005	0.00000E+000	2.50000E-001	8.15923E-005	8	..........a	-327.66
	250	0.0502	2.40047E-001	-1.25155E-005	0.00000E+000	2.40000E-001	8.15923E-005	8	..........a	-327.66
	251	0.0504	2.29947E-001	-1.28455E-005	0.00000E+000	2.30000E-001	8.15923E-005	8	..........a	-327.66
	252	0.0506	2.20097E-001	-1.31755E-005	0.00000E+000	2.20000E-001	8.15923E-005	8	..........a	-327.66
	253	0.0508	2.10047E-001	-1.34355E-005	0.00000E+000	2.10000E-001	8.15923E-005	8	..........a	-327.66
	254	0.051	2.00147E-001	-1.37255E-005	0.00000E+000	2.00000E-001	8.15923E-005	8	..........a	-327.66
	255	0.0512	1.90047E-001	-1.40755E-005	0.00000E+000	1.90000E-001	8.15923E-005	8	..........a	-327.66
	256	0.0514	1.80047E-001	-1.43556E-005	0.00000E+000	1.80000E-001	8.15923E-005	8	..........a	-327.66
	257	0.0516	1.70147E-001	-1.45356E-005	0.00000E+000	1.70000E-001	8.15923E-005	8	..........a	-327.66
	258	0.0518	1.60147E-001	-1.47056E-005	0.00000E+000	1.60000E-001	8.15923E-005	8	..........a	-327.66
	259	0.052	1.50047E-001	-1.47956E-005	0.00000E+000	1.50000E-001	8.15923E-005	8	..........a	-327.66
	260	0.0522	1.40197E-001	-1.49556E-005	0.00000E+000	1.40000E-001	8.15923E-005	8	..........a	-327.66
	261	0.0524	1.30147E-001	-1.51056E-005	0.00000E+000	1.30000E-001	8.15923E-005	8	..........a	-327.66
	262	0.0526	1.20147E-001	-1.52456E-005	0.00000E+000	1.20000E-001	8.15923E-005	8	..........a	-327.66
	263	0.0528	1.10047E-001	-1.53556E-005	0.00000E+000	1.10000E-001	8.15923E-005	8	..........a	-327.66
	264	0.053	1.00147E-001	-1.55156E-005	0.00000E+000	1.00000E-001	8.15923E-005	8	..........a	-327.66
	265	0.0532	9.00471E-002	-1.57156E-005	0.00000E+000	9.00000E-002	8.15923E-005	8	..........a	-327.66
	266	0.0534	8.01471E-002	-1.58356E-005	0.00000E+000	8.00000E-002	8.15923E-005	8	..........a	-327.66
	267	0.0536	7.01471E-002	-1.60656E-005	0.00000E+000	7.00000E-002	8.15923E-005	8	..........a	-327.66
	268	0.0538	6.00471E-002	-1.62756E-005	0.00000E+000	6.00000E-002	8.15923E-005	8	..........a	-327.66
	269	0.054	5.00471E-002	-1.64856E-005	0.00000E+000	5.00000E-002	8.15923E-005	8	..........a	-327.66
	270	0.0542	4.02471E-002	-1.66756E-005	0.00000E+000	4.00000E-002	8.15923E-005	8	..........a	-327.66
	271	0.0544	3.00471E-002	-1.68157E-005	0.00000E+000	3.00000E-002	8.15923E-005	8	..........a	-327.66
	272	0.0546	2.01471E-002	-1.69557E-005	0.00000E+000	2.00000E-002	-4.18408E-004	8	..........a	-327.66
	273	0.0548	9.94711E-003	-1.70357E-005	0.00000E+000	1.00000E-002	8.15923E-005	8	..........a	-327.66
	274	0.055	1.47114E-004	-1.70557E-005	0.00000E+000	7.45058E-009	8.15923E-005	8	..........a	-327.66
	275	0.0552	-9.95289E-003	-1.71257E-005	0.00000E+000	-1.00000E-002	8.15923E-005	8	..........a	-327.66
	276	0.0554	-1.99529E-002	-1.70757E-005	0.00000E+000	-2.00000E-002	8.15923E-005	8	..........a	-327.66
	277	0.0556	-2.99529E-002	-1.69657E-005	0.00000E+000	-3.00000E-002	8.15923E-005	8	..........a	-327.66
	278	0.0558	-4.00529E-002	-1.67857E-005	0.00000E+000	-4.00000E-002	-3.18408E-004	8	..........a	-327.66
	279	0.056	-4.99529E-002	-1.65856E-005	0.00000E+000	-5.00000E-002	8.15923E-005	8	..........a	-327.66
	280	0.0562	-5.98529E-002	-1.64556E-005	0.00000E+000	-6.00000E-002	8.15923E-005	8	..........a	-327.66
	281	0.0564	-6.99529E-002	-1.63256E-005	0.00000E+000	-7.00000E-002	8.15923E-005	8	..........a	-327.66
	282	0.0566	-7.99529E-002	-1.62456E-005	0.00000E+000	-8.00000E-002	8.15923E-005	8	..........a	-327.66
	283	0.0568	-9.00029E-002	-1.60956E-005	0.00000E+000	-9.00000E-002	8.15923E-005	8	..........a	-327.66
	284	0.057	-9.99529E-002	-1.59756E-005	0.00000E+000	-1.00000E-001	8.15923E-005	8	..........a	-327.66
	285	0.0572	-1.09953E-001	-1.58856E-005	0.00000E+000	-1.10000E-001	8.15923E-005	8	..........a	-327.66
	286	0.0574	-1.19953E-001	-1.58856E-005	0.00000E+000	-1.20000E-001	8.15923E-005	8	..........a	-327.66
	287	0.0576	-1.29853E-001	-1.59556E-005	0.00000E+000	-1.30000E-001	8.15923E-005	8	..........a	-327.66
	288	0.0578	-1.39753E-001	-1.59256E-005	0.00000E+000	-1.40000E-001	8.15923E-005	8	..........a	-327.66
	289	0.058	-1.50053E-001	-1.58656E-005	0.00000E+000	-1.50000E-001	8.15923E-005	8	..........a	-327.66
	290	0.0582	-1.60053E-001	-1.57956E-005	0.00000E+000	-1.60000E-001	8.15923E-005	8	..........a	-327.66
	291	0.0584	-1.69953E-001	-1.57156E-005	0.00000E+000	-1.70000E-001	8.15923E-005	8	..........a	-327.66
	292	0.0586	-1.79853E-001	-1.56556E-005	0.00000E+000	-1.80000E-001	8.15923E-005	8	..........a	-327.66
	293	0.0588	-1.90153E-001	-1.56356E-005	0.00000E+000	-1.90000E-001	8.15923E-005	8	..........a	-327.66
	294	0.059	-1.99953E-001	-1.54856E-005	0.00000E+000	-2.00000E-001	8.15923E-005	8	..........a	-327.66
	295	0.0592	-2.09953E-001	-1.54056E-005	0.00000E+000	-2.10000E-001	8.15923E-005	8	..........a	-327.66
	296	0.0594	-2.20053E-001	-1.53656E-005	0.00000E+000	-2.20000E-001	8.15923E-005	8	..........a	-327.66
	297	0.0596	-2.29953E-001	-1.53056E-005	0.00000E+000	-2.30000E-001	8.15923E-005	8	..........a	-327.66
	298	0.0598	-2.39853E-001	-1.52156E-005	0.00000E+000	-2.40000E-001	8.15923E-005	8	..........a	-327.66
	299	0.06	-2.50053E-001	-1.51756E-005	0.00000E+000	-2.50000E-001	8.15923E-005	8	..........a	-327.66
	300	0.0602	-2.59953E-001	-1.50456E-005	0.00000E+000	-2.60000E-001	8.15923E-005	8	..........a	-327.66
	301	0.0604	-2.69953E-001	-1.49756E-005	0.00000E+000	-2.70000E-001	8.15923E-005	8	..........a	-327.66
	302	0.0606	-2.79953E-001	-1.48856E-005	0.00000E+000	-2.80000E-001	8.15923E-005	8	..........a	-327.66
	303	0.0608	-2.89853E-001	-1.47256E-005	0.00000E+000	-2.90000E-001	8.15923E-005	8	..........a	-327.66
	304	0.061	-2.99853E-001	-1.46956E-005	0.00000E+000	-3.00000E-001	8.15923E-005	8	..........a	-327.66
	305	0.0612	-3.09953E-001	-1.45556E-005	0.00000E+000	-3.10000E-001	8.15923E-005	8	..........a	-327.66
	306	0.0614	-3.19853E-001	-1.45356E-005	0.00000E+000	-3.20000E-001	8.15923E-005	8	..........a	-327.66
	307	0.0616	-3.29853E-001	-1.43956E-005	0.00000E+000	-3.30000E-001	8.15923E-005	8	..........a	-327.66
	308	0.0618	-3.39853E-001	-1.43556E-005	0.00000E+000	-3.40000E-001	8.15923E-005	8	..........a	-327.66
	309	0.062	-3.49953E-001	-1.41656E-005	0.00000E+000	-3.50000E-001	8.15923E-005	8	..........a	-327.66
	310	0.0622	-3.59953E-001	-1.40855E-005	0.00000E+000	-3.60000E-001	8.15923E-005	8	..........a	-327.66
	311	0.0624	-3.69953E-001	-1.40555E-005	0.00000E+000	-3.70000E-001	8.15923E-005	8	..........a	-327.66
	312	0.0626	-3.79903E-001	-1.39455E-005	0.00000E+000	-3.80000E-001	8.15923E-005	8	..........a	-327.66
	313	0.0628	-3.89953E-001	-1.38555E-005	0.00000E+000	-3.90000E-001	8.15923E-005	8	..........a	-327.66
	314	0.063	-3.99853E-001	-1.37655E-005	0.00000E+000	-4.00000E-001	8.15923E-005	8	..........a	-327.66
	315	0.0632	-4.09953E-001	-1.37755E-005	0.00000E+000	-4.10000E-001	8.15923E-005	8	..........a	-327.66
	316	0.0634	-4.19953E-001	-1.36955E-005	0.00000E+000	-4.20000E-001	8.15923E-005	8	..........a	-327.66
	317	0.0636	-4.29853E-001	-1.36455E-005	0.00000E+000	-4.30000E-001	8.15923E-005	8	..........a	-327.66
	318	0.0638	-4.39853E-001	-1.36355E-005	0.00000E+000	-4.40000E-001	-2.18408E-004	8	..........a	-327.66
	319	0.064	-4.49953E-001	-1.36055E-005	0.00000E+000	-4.50000E-001	-3.18408E-004	8	..........a	-327.66
	320	0.0642	-4.59753E-001	-1.35755E-005	0.00000E+000	-4.60000E-001	-2.18408E-004	8	..........a	-327.66
	321	0.0644	-4.69953E-001	-1.35255E-005	0.00000E+000	-4.70000E-001	8.15923E-005	8	..........a	-327.66
	322	0.0646	-4.79953E-001	-1.35055E-005	0.00000E+000	-4.80000E-001	8.15923E-005	8	..........a	-327.66
	323	0.0648	-4.90053E-001	-1.35555E-005	0.00000E+000	-4.90000E-001	-2.18408E-004	8	..........a	-327.66
	324	0.065	-4.99853E-001	-1.35555E-005	0.00000E+000	-5.00000E-001	8.15923E-005	8	..........a	-327.66
	325	0.0652	-5.10053E-001	-1.35755E-005	0.00000E+000	-5.10000E-001	8.15923E-005	8	..........a	-327.66
	326	0.0654	-5.19853E-001	-1.35555E-005	0.00000E+000	-5.20000E-001	8.15923E-005	8	..........a	-327.66
	327	0.0656	-5.30053E-001	-1.35155E-005	0.00000E+000	-5.30000E-001	8.15923E-005	8	..........a	-327.66
	328	0.0658	-5.39853E-001	-1.35755E-005	0.00000E+000	-5.40000E-001	8.15923E-005	8	..........a	-327.66
	329	0.066	-5.49653E-001	-1.35855E-005	0.00000E+000	-5.50000E-001	8.15923E-005	8	..........a	-327.66
	330	0.0662	-5.59853E-001	-1.35955E-005	0.00000E+000	-5.60000E-001	8.15923E-005	8	..........a	-327.66
	331	0.0664	-5.69853E-001	-1.35955E-005	0.00000E+000	-5.70000E-001	8.15923E-005	8	..........a	-327.66
	332	0.0666	-5.79753E-001	-1.36355E-005	0.00000E+000	-5.80000E-001	8.15923E-005	8	..........a	-327.66
	333	0.0668	-5.89953E-001	-1.36655E-005	0.00000E+000	-5.90000E-001	8.15923E-005	8	..........a	-327.66
	334	0.067	-6.00153E-001	-1.37155E-005	0.00000E+000	-6.00000E-001	8.15923E-005	8	..........a	-327.66
	335	0.0672	-5.89853E-001	-1.14254E-005	0.00000E+000	-5.90000E-001	-2.18408E-004	8	..........a	-327.66
	336	0.0674	-5.79853E-001	-9.67538E-006	0.00000E+000	-5.80000E-001	8.15923E-005	8	..........a	-327.66
	337	0.0676	-5.69953E-001	-8.35533E-006	0.00000E+000	-5.70000E-001	8.15923E-005	8	..........a	-327.66
	338	0.0678	-5.59853E-001	-7.09528E-006	0.00000E+000	-5.60000E-001	8.15923E-005	8	..........a	-327.66
	339	0.068	-5.49953E-001	-6.03524E-006	0.00000E+000	-5.50000E-001	8.15923E-005	8	..........a	-327.66
	340	0.0682	-5.39753E-001	-5.08520E-006	0.00000E+000	-5.40000E-001	8.15923E-005	8	..........a	-327.66
	341	0.0684	-5.29953E-001	-4.24517E-006	0.00000E+000	-5.30000E-001	8.15923E-005	8	..........a	-327.66
	342	0.0686	-5.19753E-001	-3.45514E-006	0.00000E+000	-5.20000E-001	8.15923E-005	8	..........a	-327.66
	343	0.0688	-5.09953E-001	-2.75511E-006	0.00000E+000	-5.10000E-001	8.15923E-005	8	..........a	-327.66
	344	0.069	-4.99953E-001	-2.12509E-006	0.00000E+000	-5.00000E-001	8.15923E-005	8	..........a	-327.66
[...]
	2604	0.521	-2.99853E-001	4.78518E-006	0.00000E+000	-3.00000E-001	8.15923E-005	8	..........a	-327.66
	2605	0.5212	-2.89803E-001	4.97518E-006	0.00000E+000	-2.90000E-001	-2.18408E-004	8	..........a	-327.66
	2606	0.5214	-2.79953E-001	5.13519E-006	0.00000E+000	-2.80000E-001	8.15923E-005	8	..........a	-327.66
	2607	0.5216	-2.69953E-001	5.34520E-006	0.00000E+000	-2.70000E-001	8.15923E-005	8	..........a	-327.66
	2608	0.5218	-2.59853E-001	5.48520E-006	0.00000E+000	-2.60000E-001	8.15923E-005	8	..........a	-327.66
	2609	0.522	-2.49953E-001	5.63521E-006	0.00000E+000	-2.50000E-001	8.15923E-005	8	..........a	-327.66
	2610	0.5222	-2.39953E-001	5.87522E-006	0.00000E+000	-2.40000E-001	8.15923E-005	8	..........a	-327.66
	2611	0.5224	-2.29853E-001	6.01522E-006	0.00000E+000	-2.30000E-001	8.15923E-005	8	..........a	-327.66
	2612	0.5226	-2.19853E-001	6.13523E-006	0.00000E+000	-2.20000E-001	8.15923E-005	8	..........a	-327.66
	2613	0.5228	-2.10053E-001	6.26523E-006	0.00000E+000	-2.10000E-001	8.15923E-005	8	..........a	-327.66
	2614	0.523	-1.99953E-001	6.44524E-006	0.00000E+000	-2.00000E-001	8.15923E-005	8	..........a	-327.66
	2615	0.5232	-1.90153E-001	6.60524E-006	0.00000E+000	-1.90000E-001	8.15923E-005	8	..........a	-327.66
	2616	0.5234	-1.79953E-001	6.75525E-006	0.00000E+000	-1.80000E-001	-2.18408E-004	8	..........a	-327.66
	2617	0.5236	-1.69953E-001	6.88526E-006	0.00000E+000	-1.70000E-001	8.15923E-005	8	..........a	-327.66
	2618	0.5238	-1.59953E-001	7.01526E-006	0.00000E+000	-1.60000E-001	8.15923E-005	8	..........a	-327.66
	2619	0.524	-1.49953E-001	7.10526E-006	0.00000E+000	-1.50000E-001	8.15923E-005	8	..........a	-327.66
	2620	0.5242	-1.39953E-001	7.26527E-006	0.00000E+000	-1.40000E-001	8.15923E-005	8	..........a	-327.66
	2621	0.5244	-1.30003E-001	7.38527E-006	0.00000E+000	-1.30000E-001	8.15923E-005	8	..........a	-327.66
	2622	0.5246	-1.20153E-001	7.54528E-006	0.00000E+000	-1.20000E-001	8.15923E-005	8	..........a	-327.66
	2623	0.5248	-1.09953E-001	7.70529E-006	0.00000E+000	-1.10000E-001	8.15923E-005	8	..........a	-327.66
	2624	0.525	-9.99029E-002	7.77529E-006	0.00000E+000	-1.00000E-001	8.15923E-005	8	..........a	-327.66
	2625	0.5252	-8.99529E-002	7.93530E-006	0.00000E+000	-9.00000E-002	8.15923E-005	8	..........a	-327.66
	2626	0.5254	-7.99529E-002	8.08530E-006	0.00000E+000	-8.00000E-002	8.15923E-005	8	..........a	-327.66
	2627	0.5256	-7.01529E-002	8.21531E-006	0.00000E+000	-7.00000E-002	8.15923E-005	8	..........a	-327.66
	2628	0.5258	-5.98529E-002	8.38531E-006	0.00000E+000	-6.00000E-002	8.15923E-005	8	..........a	-327.66
	2629	0.526	-4.99529E-002	8.47532E-006	0.00000E+000	-5.00000E-002	8.15923E-005	8	..........a	-327.66
	2630	0.5262	-3.99529E-002	8.60532E-006	0.00000E+000	-4.00000E-002	8.15923E-005	8	..........a	-327.66
	2631	0.5264	-3.00529E-002	8.77533E-006	0.00000E+000	-3.00000E-002	8.15923E-005	8	..........a	-327.66
	2632	0.5266	-1.97529E-002	8.91533E-006	0.00000E+000	-2.00000E-002	8.15923E-005	8	..........a	-327.66
	2633	0.5268	-9.95289E-003	9.05534E-006	0.00000E+000	-1.00000E-002	8.15923E-005	8	..........a	-327.66
	2634	0.527	1.47114E-004	9.22534E-006	0.00000E+000	7.45058E-009	8.15923E-005	8	..........a	-327.66
	2635	0.5272	1.00471E-002	9.33535E-006	0.00000E+000	1.00000E-002	8.15923E-005	8	..........a	-327.66
	2636	0.5274	2.01971E-002	9.52536E-006	0.00000E+000	2.00000E-002	8.15923E-005	8	..........a	-327.66
	2637	0.5276	2.99971E-002	9.65536E-006	0.00000E+000	3.00000E-002	8.15923E-005	8	..........a	-327.66
	2638	0.5278	4.03471E-002	9.80537E-006	0.00000E+000	4.00000E-002	8.15923E-005	8	..........a	-327.66
	2639	0.528	5.00471E-002	9.98537E-006	0.00000E+000	5.00000E-002	8.15923E-005	8	..........a	-327.66
	2640	0.5282	6.00471E-002	1.01254E-005	0.00000E+000	6.00000E-002	8.15923E-005	8	..........a	-327.66
	2641	0.5284	7.00471E-002	1.03454E-005	0.00000E+000	7.00000E-002	8.15923E-005	8	..........a	-327.66
	2642	0.5286	8.00471E-002	1.04954E-005	0.00000E+000	8.00000E-002	8.15923E-005	8	..........a	-327.66
	2643	0.5288	9.00471E-002	1.06654E-005	0.00000E+000	9.00000E-002	8.15923E-005	8	..........a	-327.66
	2644	0.529	9.99471E-002	1.08454E-005	0.00000E+000	1.00000E-001	8.15923E-005	8	..........a	-327.66
	2645	0.5292	1.10147E-001	1.10454E-005	0.00000E+000	1.10000E-001	8.15923E-005	8	..........a	-327.66
	2646	0.5294	1.20147E-001	1.15554E-005	0.00000E+000	1.20000E-001	8.15923E-005	8	..........a	-327.66
	2647	0.5296	1.30047E-001	1.30255E-005	0.00000E+000	1.30000E-001	8.15923E-005	8	..........a	-327.66
	2648	0.5298	1.40047E-001	1.43855E-005	0.00000E+000	1.40000E-001	8.15923E-005	8	..........a	-327.66
	2649	0.53	1.50047E-001	1.55456E-005	0.00000E+000	1.50000E-001	8.15923E-005	8	..........a	-327.66
	2650	0.5302	1.60047E-001	1.60456E-005	0.00000E+000	1.60000E-001	8.15923E-005	8	..........a	-327.66
	2651	0.5304	1.70047E-001	1.55456E-005	0.00000E+000	1.70000E-001	8.15923E-005	8	..........a	-327.66
	2652	0.5306	1.80247E-001	1.43355E-005	0.00000E+000	1.80000E-001	8.15923E-005	8	..........a	-327.66
	2653	0.5308	1.90047E-001	1.34555E-005	0.00000E+000	1.90000E-001	8.15923E-005	8	..........a	-327.66
	2654	0.531	1.99997E-001	1.32055E-005	0.00000E+000	2.00000E-001	8.15923E-005	8	..........a	-327.66
	2655	0.5312	2.09797E-001	1.32355E-005	0.00000E+000	2.10000E-001	8.15923E-005	8	..........a	-327.66
	2656	0.5314	2.20247E-001	1.33655E-005	0.00000E+000	2.20000E-001	8.15923E-005	8	..........a	-327.66
	2657	0.5316	2.29947E-001	1.35455E-005	0.00000E+000	2.30000E-001	8.15923E-005	8	..........a	-327.66
	2658	0.5318	2.40047E-001	1.37455E-005	0.00000E+000	2.40000E-001	8.15923E-005	8	..........a	-327.66
	2659	0.532	2.49897E-001	1.39855E-005	0.00000E+000	2.50000E-001	-2.18408E-004	8	..........a	-327.66
	2660	0.5322	2.60147E-001	1.41555E-005	0.00000E+000	2.60000E-001	-3.18408E-004	8	..........a	-327.66
	2661	0.5324	2.70247E-001	1.44355E-005	0.00000E+000	2.70000E-001	8.15923E-005	8	..........a	-327.66
	2662	0.5326	2.80047E-001	1.46356E-005	0.00000E+000	2.80000E-001	8.15923E-005	8	..........a	-327.66
	2663	0.5328	2.90047E-001	1.48856E-005	0.00000E+000	2.90000E-001	8.15923E-005	8	..........a	-327.66
	2664	0.533	3.00047E-001	1.51056E-005	0.00000E+000	3.00000E-001	8.15923E-005	8	..........a	-327.66
	2665	0.5332	3.10047E-001	1.52056E-005	0.00000E+000	3.10000E-001	8.15923E-005	8	..........a	-327.66
	2666	0.5334	3.20047E-001	1.53856E-005	0.00000E+000	3.20000E-001	8.15923E-005	8	..........a	-327.66
	2667	0.5336	3.30047E-001	1.55156E-005	0.00000E+000	3.30000E-001	8.15923E-005	8	..........a	-327.66
	2668	0.5338	3.40047E-001	1.56956E-005	0.00000E+000	3.40000E-001	8.15923E-005	8	..........a	-327.66
	2669	0.534	3.49947E-001	1.58556E-005	0.00000E+000	3.50000E-001	8.15923E-005	8	..........a	-327.66
	2670	0.5342	3.59997E-001	1.60856E-005	0.00000E+000	3.60000E-001	8.15923E-005	8	..........a	-327.66
	2671	0.5344	3.69947E-001	1.63456E-005	0.00000E+000	3.70000E-001	8.15923E-005	8	..........a	-327.66
	2672	0.5346	3.80147E-001	1.65956E-005	0.00000E+000	3.80000E-001	8.15923E-005	8	..........a	-327.66
	2673	0.5348	3.90047E-001	1.68156E-005	0.00000E+000	3.90000E-001	8.15923E-005	8	..........a	-327.66
	2674	0.535	3.99897E-001	1.70356E-005	0.00000E+000	4.00000E-001	8.15923E-005	8	..........a	-327.66
	2675	0.5352	4.09947E-001	1.72757E-005	0.00000E+000	4.10000E-001	8.15923E-005	8	..........a	-327.66
	2676	0.5354	4.20047E-001	1.74257E-005	0.00000E+000	4.20000E-001	8.15923E-005	8	..........a	-327.66
	2677	0.5356	4.29897E-001	1.76157E-005	0.00000E+000	4.30000E-001	8.15923E-005	8	..........a	-327.66
	2678	0.5358	4.40147E-001	1.78057E-005	0.00000E+000	4.40000E-001	8.15923E-005	8	..........a	-327.66
	2679	0.536	4.49847E-001	1.79657E-005	0.00000E+000	4.50000E-001	8.15923E-005	8	..........a	-327.66
	2680	0.5362	4.59847E-001	1.81257E-005	0.00000E+000	4.60000E-001	8.15923E-005	8	..........a	-327.66
	2681	0.5364	4.69947E-001	1.82857E-005	0.00000E+000	4.70000E-001	8.15923E-005	8	..........a	-327.66
	2682	0.5366	4.79947E-001	1.84557E-005	0.00000E+000	4.80000E-001	8.15923E-005	8	..........a	-327.66
	2683	0.5368	4.90097E-001	1.85757E-005	0.00000E+000	4.90000E-001	8.15923E-005	8	..........a	-327.66
	2684	0.537	5.00247E-001	1.86957E-005	0.00000E+000	5.00000E-001	8.15923E-005	8	..........a	-327.66
	2685	0.5372	5.10147E-001	1.87657E-005	0.00000E+000	5.10000E-001	8.15923E-005	8	..........a	-327.66
	2686	0.5374	5.20047E-001	1.88657E-005	0.00000E+000	5.20000E-001	8.15923E-005	8	..........a	-327.66
	2687	0.5376	5.29847E-001	1.88857E-005	0.00000E+000	5.30000E-001	8.15923E-005	8	..........a	-327.66
	2688	0.5378	5.40047E-001	1.89057E-005	0.00000E+000	5.40000E-001	8.15923E-005	8	..........a	-327.66
	2689	0.538	5.49947E-001	1.89457E-005	0.00000E+000	5.50000E-001	8.15923E-005	8	..........a	-327.66
	2690	0.5382	5.59847E-001	1.89857E-005	0.00000E+000	5.60000E-001	8.15923E-005	8	..........a	-327.66
	2691	0.5384	5.69947E-001	1.90057E-005	0.00000E+000	5.70000E-001	-1.18408E-004	8	..........a	-327.66
	2692	0.5386	5.80247E-001	1.91057E-005	0.00000E+000	5.80000E-001	1.81592E-004	8	..........a	-327.66
	2693	0.5388	5.89847E-001	1.91257E-005	0.00000E+000	5.90000E-001	8.15923E-005	8	..........a	-327.66
	2694	0.539	6.00047E-001	1.91957E-005	0.00000E+000	6.00000E-001	8.15923E-005	8	..........a	-327.66
	2695	0.5392	6.09697E-001	1.92957E-005	0.00000E+000	6.10000E-001	8.15923E-005	8	..........a	-327.66
	2696	0.5394	6.19947E-001	1.93657E-005	0.00000E+000	6.20000E-001	-1.18408E-004	8	..........a	-327.66
	2697	0.5396	6.30047E-001	1.94257E-005	0.00000E+000	6.30000E-001	8.15923E-005	8	..........a	-327.66
	2698	0.5398	6.39997E-001	1.95157E-005	0.00000E+000	6.40000E-001	8.15923E-005	8	..........a	-327.66
	2699	0.54	6.50047E-001	1.95957E-005	0.00000E+000	6.50000E-001	8.15923E-005	8	..........a	-327.66
	2700	0.5402	6.60247E-001	1.96457E-005	0.00000E+000	6.60000E-001	8.15923E-005	8	..........a	-327.66
	2701	0.5404	6.69947E-001	1.97357E-005	0.00000E+000	6.70000E-001	8.15923E-005	8	..........a	-327.66
	2702	0.5406	6.80147E-001	1.98458E-005	0.00000E+000	6.80000E-001	8.15923E-005	8	..........a	-327.66
	2703	0.5408	6.89947E-001	1.99158E-005	0.00000E+000	6.90000E-001	8.15923E-005	8	..........a	-327.66
	2704	0.541	7.00047E-001	1.99858E-005	0.00000E+000	7.00000E-001	8.15923E-005	8	..........a	-327.66
	2705	0.5412	7.09947E-001	2.00358E-005	0.00000E+000	7.10000E-001	8.15923E-005	8	..........a	-327.66
	2706	0.5414	7.20097E-001	2.00958E-005	0.00000E+000	7.20000E-001	8.15923E-005	8	..........a	-327.66
	2707	0.5416	7.30047E-001	2.01458E-005	0.00000E+000	7.30000E-001	8.15923E-005	8	..........a	-327.66
	2708	0.5418	7.40147E-001	2.01858E-005	0.00000E+000	7.40000E-001	8.15923E-005	8	..........a	-327.66
	2709	0.542	7.49947E-001	2.02058E-005	0.00000E+000	7.50000E-001	8.15923E-005	8	..........a	-327.66
	2710	0.5422	7.59947E-001	2.02858E-005	0.00000E+000	7.60000E-001	8.15923E-005	8	..........a	-327.66
	2711	0.5424	7.70047E-001	2.03158E-005	0.00000E+000	7.70000E-001	8.15923E-005	8	..........a	-327.66
	2712	0.5426	7.80047E-001	2.03158E-005	0.00000E+000	7.80000E-001	8.15923E-005	8	..........a	-327.66
	2713	0.5428	7.89947E-001	2.03458E-005	0.00000E+000	7.90000E-001	8.15923E-005	8	..........a	-327.66
	2714	0.543	7.99947E-001	2.03658E-005	0.00000E+000	8.00000E-001	-1.18408E-004	8	..........a	-327.66
CURVE11	TABLE
	Pt	T	Vf	Im	Vu	Sig	Ach	IERange	Over	Temp
	#	s	V vs. Ref.	A	V	V	V	#	bits	deg C
	2715	0.5432	7.90147E-001	1.74057E-005	0.00000E+000	7.90000E-001	8.15923E-005	8	..........a	-327.66
	2716	0.5434	7.79747E-001	1.51656E-005	0.00000E+000	7.80000E-001	-3.18408E-004	8	..........a	-327.66
	2717	0.5436	7.70047E-001	1.32855E-005	0.00000E+000	7.70000E-001	8.15923E-005	8	..........a	-327.66
	2718	0.5438	7.59647E-001	1.16954E-005	0.00000E+000	7.60000E-001	8.15923E-005	8	..........a	-327.66
	2719	0.544	7.49947E-001	1.02454E-005	0.00000E+000	7.50000E-001	-2.18408E-004	8	..........a	-327.66
	2720	0.5442	7.40097E-001	8.97534E-006	0.00000E+000	7.40000E-001	8.15923E-005	8	..........a	-327.66
	2721	0.5444	7.29897E-001	7.82529E-006	0.00000E+000	7.30000E-001	8.15923E-005	8	..........a	-327.66
	2722	0.5446	7.19847E-001	6.78525E-006	0.00000E+000	7.20000E-001	8.15923E-005	8	..........a	-327.66
	2723	0.5448	7.09897E-001	5.81521E-006	0.00000E+000	7.10000E-001	8.15923E-005	8	..........a	-327.66
	2724	0.545	7.00147E-001	4.91518E-006	0.00000E+000	7.00000E-001	8.15923E-005	8	..........a	-327.66
	2725	0.5452	6.89847E-001	4.10515E-006	0.00000E+000	6.90000E-001	8.15923E-005	8	..........a	-327.66
	2726	0.5454	6.79947E-001	3.31512E-006	0.00000E+000	6.80000E-001	8.15923E-005	8	..........a	-327.66
	2727	0.5456	6.69747E-001	2.56509E-006	0.00000E+000	6.70000E-001	8.15923E-005	8	..........a	-327.66
	2728	0.5458	6.60147E-001	1.88506E-006	0.00000E+000	6.60000E-001	-2.18408E-004	8	..........a	-327.66
	2729	0.546	6.49947E-001	1.31504E-006	0.00000E+000	6.50000E-001	8.15923E-005	8	..........a	-327.66
	2730	0.5462	6.39797E-001	6.75018E-007	0.00000E+000	6.40000E-001	8.15923E-005	8	..........a	-327.66
	2731	0.5464	6.29847E-001	6.49945E-008	0.00000E+000	6.30000E-001	8.15923E-005	8	..........a	-327.66
	2732	0.5466	6.20047E-001	-4.85027E-007	0.00000E+000	6.20000E-001	-3.18408E-004	8	..........a	-327.66
	2733	0.5468	6.10047E-001	-1.00505E-006	0.00000E+000	6.10000E-001	8.15923E-005	8	..........a	-327.66
	2734	0.547	5.99947E-001	-1.48506E-006	0.00000E+000	6.00000E-001	8.15923E-005	8	..........a	-327.66
	2735	0.5472	5.89947E-001	-1.94508E-006	0.00000E+000	5.90000E-001	-3.18408E-004	8	..........a	-327.66
	2736	0.5474	5.79847E-001	-2.36510E-006	0.00000E+000	5.80000E-001	8.15923E-005	8	..........a	-327.66
	2737	0.5476	5.69947E-001	-2.85512E-006	0.00000E+000	5.70000E-001	8.15923E-005	8	..........a	-327.66
	2738	0.5478	5.60147E-001	-3.23513E-006	0.00000E+000	5.60000E-001	8.15923E-005	8	..........a	-327.66
	2739	0.548	5.50097E-001	-3.52514E-006	0.00000E+000	5.50000E-001	8.15923E-005	8	..........a	-327.66
	2740	0.5482	5.40147E-001	-3.96516E-006	0.00000E+000	5.40000E-001	8.15923E-005	8	..........a	-327.66
	2741	0.5484	5.30147E-001	-4.28517E-006	0.00000E+000	5.30000E-001	8.15923E-005	8	..........a	-327.66
	2742	0.5486	5.20047E-001	-4.67519E-006	0.00000E+000	5.20000E-001	8.15923E-005	8	..........a	-327.66
	2743	0.5488	5.09947E-001	-4.99520E-006	0.00000E+000	5.10000E-001	8.15923E-005	8	..........a	-327.66
	2744	0.549	5.00047E-001	-5.31521E-006	0.00000E+000	5.00000E-001	-2.18408E-004	8	..........a	-327.66
	2745	0.5492	4.89947E-001	-5.64522E-006	0.00000E+000	4.90000E-001	8.15923E-005	8	..........a	-327.66
	2746	0.5494	4.79847E-001	-6.01524E-006	0.00000E+000	4.80000E-001	8.15923E-005	8	..........a	-327.66
	2747	0.5496	4.69947E-001	-6.30525E-006	0.00000E+000	4.70000E-001	8.15923E-005	8	..........a	-327.66
	2748	0.5498	4.60147E-001	-6.61526E-006	0.00000E+000	4.60000E-001	8.15923E-005	8	..........a	-327.66
	2749	0.55	4.50047E-001	-6.93527E-006	0.00000E+000	4.50000E-001	8.15923E-005	8	..........a	-327.66
	2750	0.5502	4.39947E-001	-7.21528E-006	0.00000E+000	4.40000E-001	8.15923E-005	8	..........a	-327.66
	2751	0.5504	4.29947E-001	-7.49529E-006	0.00000E+000	4.30000E-001	8.15923E-005	8	..........a	-327.66
	2752	0.5506	4.20047E-001	-7.83531E-006	0.00000E+000	4.20000E-001	8.15923E-005	8	..........a	-327.66
	2753	0.5508	4.10047E-001	-8.05532E-006	0.00000E+000	4.10000E-001	8.15923E-005	8	..........a	-327.66
	2754	0.551	4.00047E-001	-8.35533E-006	0.00000E+000	4.00000E-001	8.15923E-005	8	..........a	-327.66
	2755	0.5512	3.90147E-001	-8.63534E-006	0.00000E+000	3.90000E-001	8.15923E-005	8	..........a	-327.66
	2756	0.5514	3.80147E-001	-8.93535E-006	0.00000E+000	3.80000E-001	8.15923E-005	8	..........a	-327.66
	2757	0.5516	3.70047E-001	-9.22536E-006	0.00000E+000	3.70000E-001	8.15923E-005	8	..........a	-327.66
	2758	0.5518	3.60047E-001	-9.51537E-006	0.00000E+000	3.60000E-001	8.15923E-005	8	..........a	-327.66
	2759	0.552	3.50047E-001	-9.83538E-006	0.00000E+000	3.50000E-001	8.15923E-005	8	..........a	-327.66
	2760	0.5522	3.40047E-001	-1.01154E-005	0.00000E+000	3.40000E-001	8.15923E-005	8	..........a	-327.66
	2761	0.5524	3.29847E-001	-1.04154E-005	0.00000E+000	3.30000E-001	8.15923E-005	8	..........a	-327.66
	2762	0.5526	3.20147E-001	-1.07254E-005	0.00000E+000	3.20000E-001	8.15923E-005	8	..........a	-327.66
	2763	0.5528	3.10047E-001	-1.10054E-005	0.00000E+000	3.10000E-001	8.15923E-005	8	..........a	-327.66
	2764	0.553	3.00247E-001	-1.12754E-005	0.00000E+000	3.00000E-001	8.15923E-005	8	..........a	-327.66
	2765	0.5532	2.90047E-001	-1.15154E-005	0.00000E+000	2.90000E-001	8.15923E-005	8	..........a	-327.66
	2766	0.5534	2.80247E-001	-1.18255E-005	0.00000E+000	2.80000E-001	8.15923E-005	8	..........a	-327.66
	2767	0.5536	2.70047E-001	-1.20755E-005	0.00000E+000	2.70000E-001	8.15923E-005	8	..........a	-327.66
	2768	0.5538	2.60147E-001	-1.23255E-005	0.00000E+000	2.60000E-001	1.81592E-004	8	..........a	-327.66
	2769	0.554	2.49897E-001	-1.25655E-005	0.00000E+000	2.50000E-001	8.15923E-005	8	..........a	-327.66
	2770	0.5542	2.39997E-001	-1.28255E-005	0.00000E+000	2.40000E-001	8.15923E-005	8	..........a	-327.66
	2771	0.5544	2.29947E-001	-1.30155E-005	0.00000E+000	2.30000E-001	8.15923E-005	8	..........a	-327.66
	2772	0.5546	2.19647E-001	-1.32255E-005	0.00000E+000	2.20000E-001	8.15923E-005	8	..........a	-327.66
	2773	0.5548	2.09947E-001	-1.33655E-005	0.00000E+000	2.10000E-001	8.15923E-005	8	..........a	-327.66
	2774	0.555	2.00147E-001	-1.35655E-005	0.00000E+000	2.00000E-001	8.15923E-005	8	..........a	-327.66
	2775	0.5552	1.90047E-001	-1.37155E-005	0.00000E+000	1.90000E-001	8.15923E-005	8	..........a	-327.66
	2776	0.5554	1.80247E-001	-1.38855E-005	0.00000E+000	1.80000E-001	8.15923E-005	8	..........a	-327.66
	2777	0.5556	1.70047E-001	-1.40755E-005	0.00000E+000	1.70000E-001	8.15923E-005	8	..........a	-327.66
	2778	0.5558	1.60047E-001	-1.42256E-005	0.00000E+000	1.60000E-001	8.15923E-005	8	..........a	-327.66
	2779	0.556	1.49947E-001	-1.43356E-005	0.00000E+000	1.50000E-001	8.15923E-005	8	..........a	-327.66
	2780	0.5562	1.40047E-001	-1.44056E-005	0.00000E+000	1.40000E-001	8.15923E-005	8	..........a	-327.66
	2781	0.5564	1.30047E-001	-1.45356E-005	0.00000E+000	1.30000E-001	8.15923E-005	8	..........a	-327.66
	2782	0.5566	1.20147E-001	-1.46956E-005	0.00000E+000	1.20000E-001	8.15923E-005	8	..........a	-327.66
	2783	0.5568	1.10047E-001	-1.47456E-005	0.00000E+000	1.10000E-001	8.15923E-005	8	..........a	-327.66
	2784	0.557	1.00147E-001	-1.49156E-005	0.00000E+000	1.00000E-001	8.15923E-005	8	..........a	-327.66
	2785	0.5572	8.99471E-002	-1.49856E-005	0.00000E+000	9.00000E-002	8.15923E-005	8	..........a	-327.66
	2786	0.5574	8.01471E-002	-1.51356E-005	0.00000E+000	8.00000E-002	8.15923E-005	8	..........a	-327.66
	2787	0.5576	6.99471E-002	-1.52756E-005	0.00000E+000	7.00000E-002	8.15923E-005	8	..........a	-327.66
	2788	0.5578	6.00471E-002	-1.54056E-005	0.00000E+000	6.00000E-002	8.15923E-005	8	..........a	-327.66
	2789	0.558	5.00471E-002	-1.55656E-005	0.00000E+000	5.00000E-002	8.15923E-005	8	..........a	-327.66
	2790	0.5582	4.01471E-002	-1.57156E-005	0.00000E+000	4.00000E-002	8.15923E-005	8	..........a	-327.66
	2791	0.5584	2.99471E-002	-1.58156E-005	0.00000E+000	3.00000E-002	8.15923E-005	8	..........a	-327.66
	2792	0.5586	2.02471E-002	-1.59456E-005	0.00000E+000	2.00000E-002	8.15923E-005	8	..........a	-327.66
	2793	0.5588	1.00471E-002	-1.60356E-005	0.00000E+000	1.00000E-002	8.15923E-005	8	..........a	-327.66
	2794	0.559	1.47114E-004	-1.61656E-005	0.00000E+000	7.45058E-009	8.15923E-005	8	..........a	-327.66
	2795	0.5592	-9.95289E-003	-1.63156E-005	0.00000E+000	-1.00000E-002	8.15923E-005	8	..........a	-327.66
	2796	0.5594	-1.99529E-002	-1.64856E-005	0.00000E+000	-2.00000E-002	8.15923E-005	8	..........a	-327.66
	2797	0.5596	-2.99529E-002	-1.66456E-005	0.00000E+000	-3.00000E-002	8.15923E-005	8	..........a	-327.66
	2798	0.5598	-4.01529E-002	-1.67556E-005	0.00000E+000	-4.00000E-002	8.15923E-005	8	..........a	-327.66
	2799	0.56	-4.99529E-002	-1.69357E-005	0.00000E+000	-5.00000E-002	8.15923E-005	8	..........a	-327.66
	2800	0.5602	-5.97529E-002	-1.71657E-005	0.00000E+000	-6.00000E-002	8.15923E-005	8	..........a	-327.66