File: example_project/raw_outputs/20240321_L_GM0016_HL03_E03_CV50k.DTA
EXPLAIN
TAG	CV
TITLE	LABEL	Cyclic Voltammetry	Test &Identifier
DATE	LABEL	3/21/2024	Date
TIME	LABEL	16:59:26	Time
NOTES	NOTES	1	&Notes...

PSTAT	PSTAT	REF600P-43058	Potentiostat
VINIT	POTEN	0.00000E+000	T	Initial &E (V)
VLIMIT1	POTEN	-6.00000E-001	F	Scan Limit &1 (V)
VLIMIT2	POTEN	8.00000E-001	F	Scan Limit &2 (V)
VFINAL	POTEN	0.00000E+000	T	Final &E (V)
SCANRATE	QUANT	4.99999E+004	&Scan Rate (mV/s)
STEPSIZE	QUANT	1.00000E+001	St&ep Size (mV)
CYCLES	IQUANT	10	C&ycles (#)
IMODE	SELECTOR	1	I/E Range &Mode
IRANGE	QUANT	1.00000E-005	&Max Current (mA)
AREA	QUANT	1.00000E+000	Electrode &Area (cm^2)
ELECTRODETYPE	SELECTOR	0	Electrode Type
STRIPPING	TOGGLE	F	Used for Stripping
POLARITY	TOGGLE	F	Signal Polarity
CONDIT	TWOPARAM	F	1.50000E+001	0.00000E+000	Conditionin&g	Time(s)	E(V)
DELAY	TWOPARAM	T	1.00000E+001	0.00000E+000	Init. De&lay	Time(s)	Stab.(mV/s)
EQDELAY	QUANT	1.00000E+001	Equil. &Time (s)
IRCOMP	SELECTOR	0	IRCom&p
PFCOR	QUANT	5.00000E+001	PF Corr. (ohm)
SAMPLINGMODE	SELECTOR	1	Sampling &Mode
OCVCURVE	TABLE	39
	Pt	T	Vf	Vm	Ach	Over	Temp
	#	s	V vs. Ref.	V	V	bits	deg C
	0	0.258333	4.07269E-001	4.07269E-001	2.41156E-004	..........a	-327.66
	1	0.516667	4.07269E-001	4.07247E-001	2.47422E-004	..........a	-327.66
	2	0.775	4.07266E-001	4.07229E-001	2.44689E-004	..........a	-327.66
	3	1.03333	4.07259E-001	4.07218E-001	2.49356E-004	..........a	-327.66
	4	1.29167	4.07248E-001	4.07215E-001	2.48489E-004	..........a	-327.66
	5	1.55	4.07235E-001	4.07212E-001	2.54222E-004	..........a	-327.66
	6	1.80833	4.07225E-001	4.07214E-001	2.42289E-004	..........a	-327.66
	7	2.06667	4.07218E-001	4.07211E-001	2.43556E-004	..........a	-327.66
	8	2.325	4.07214E-001	4.07203E-001	2.44289E-004	..........a	-327.66
	9	2.58333	4.07211E-001	4.07202E-001	2.42422E-004	..........a	-327.66
	10	2.84167	4.07209E-001	4.07195E-001	2.41622E-004	..........a	-327.66
	11	3.1	4.07205E-001	4.07196E-001	2.46222E-004	..........a	-327.66
	12	3.35833	4.07201E-001	4.07186E-001	2.36222E-004	..........a	-327.66
	13	3.61667	4.07197E-001	4.07179E-001	2.40156E-004	..........a	-327.66
	14	3.875	4.07193E-001	4.07176E-001	2.50156E-004	..........a	-327.66
	15	4.13333	4.07187E-001	4.07170E-001	2.37089E-004	..........a	-327.66
	16	4.39167	4.07181E-001	4.07156E-001	2.42422E-004	..........a	-327.66
	17	4.65	4.07175E-001	4.07153E-001	2.43622E-004	..........a	-327.66
	18	4.90833	4.07168E-001	4.07149E-001	2.40956E-004	..........a	-327.66
	19	5.16667	4.07161E-001	4.07160E-001	2.38556E-004	..........a	-327.66
	20	5.425	4.07157E-001	4.07174E-001	2.34756E-004	..........a	-327.66
	21	5.68333	4.07157E-001	4.07172E-001	2.39889E-004	..........a	-327.66
	22	5.94167	4.07161E-001	4.07182E-001	2.35622E-004	..........a	-327.66
	23	6.2	4.07167E-001	4.07178E-001	2.36556E-004	..........a	-327.66
	24	6.45833	4.07173E-001	4.07176E-001	2.39756E-004	..........a	-327.66
	25	6.71667	4.07177E-001	4.07183E-001	2.42222E-004	..........a	-327.66
	26	6.975	4.07179E-001	4.07187E-001	2.38422E-004	..........a	-327.66
	27	7.23333	4.07180E-001	4.07191E-001	2.47422E-004	..........a	-327.66
	28	7.49167	4.07183E-001	4.07193E-001	2.42089E-004	..........a	-327.66
	29	7.75	4.07186E-001	4.07195E-001	2.51489E-004	..........a	-327.66
	30	8.00833	4.07190E-001	4.07199E-001	2.47289E-004	..........a	-327.66
	31	8.26667	4.07193E-001	4.07202E-001	2.49222E-004	..........a	-327.66
	32	8.525	4.07196E-001	4.07206E-001	2.48222E-004	..........a	-327.66
	33	8.78333	4.07199E-001	4.07209E-001	2.46089E-004	..........a	-327.66
	34	9.04167	4.07202E-001	4.07210E-001	2.39022E-004	..........a	-327.66
	35	9.3	4.07205E-001	4.07214E-001	2.47022E-004	..........a	-327.66
	36	9.5583	4.07208E-001	4.07216E-001	2.47356E-004	..........a	-327.66
	37	9.8167	4.07211E-001	4.07221E-001	2.46556E-004	..........a	-327.66
	38	10.075	4.07214E-001	4.07223E-001	2.40489E-004	..........a	-327.66
EOC	QUANT	0.4072137	Open Circuit (V)
PSTATMODEL	IQUANT	7	Pstat Model
PSTATSECTION	LABEL	REF600P-43058	Pstat Section
PSTATSERIALNO	LABEL	43058	Pstat Serial Number
CTRLMODE	IQUANT	1	Control Mode
ELECTROMETER	IQUANT	0	RE=0 or CS=1
IESTAB	IQUANT	2	I/E Stability
CASPEED	IQUANT	4	Control Amp Speed
CONVENTION	IQUANT	1	Current Convention
ICHRANGE	IQUANT	2	Ich Range
ICHRANGEMODE	TOGGLE	F	Ich Auto Range
ICHOFFSETENABLE	TOGGLE	F	Ich Offset Enable
ICHOFFSET	QUANT	0	Ich Offset (V)
ICHFILTER	IQUANT	1	Ich Filter
VCHRANGE	IQUANT	2	Vch Range
VCHRANGEMODE	TOGGLE	F	Vch Auto Range
VCHOFFSETENABLE	TOGGLE	F	Vch Offset Enable
VCHOFFSET	QUANT	0	Vch Offset (V)
VCHFILTER	IQUANT	1	Vch Filter
ACHRANGE	IQUANT	2	Ach Range
ACHOFFSETENABLE	TOGGLE	F	Ach Offset Enable
ACHOFFSET	QUANT	0	Ach Offset (V)
ACHFILTER	IQUANT	1	Ach Filter
IERANGELOWERLIMIT	IQUANT	1	I/E Range Lower Limit
IERANGEMODE	TOGGLE	F	I/E AutoRange
IERANGE	IQUANT	4	I/E Range
POSFEEDENABLE	TOGGLE	F	Positive Feedback IR Comp
POSFEEDRESISTANCE	QUANT	0	Positive Feedback Resistance (ohm)
ACHSELECT	IQUANT	4	Ach Select
SENSECABLEID	IQUANT	7	Sense Cable ID
PWRCABLEID	IQUANT	7	Power Cable ID
DCCALDATE	LABEL	12/18/2023	DC Calibration Date
ACCALDATE	LABEL	12/18/2023	AC Calibration Date
THERMOSELECT	IQUANT	1	Thermo Select
FRAMEWORKVERSION	LABEL	7.8.4	Framework Version
INSTRUMENTVERSION	LABEL	4.42	Instrument Version
CURVE1	TABLE
	Pt	T	Vf	Im	Vu	Sig	Ach	IERange	Over	Temp
	#	s	V vs. Ref.	A	V	V	V	#	bits	deg C
	0	0.0002	4.06970E-001	1.97884E-011	0.00000E+000	4.07200E-001	8.00223E-005	4	..........a	-327.66
	1	0.0004	3.97270E-001	-2.22132E-011	0.00000E+000	3.97200E-001	8.00223E-005	4	..........a	-327.66
	2	0.0006	3.87170E-001	-6.72149E-011	0.00000E+000	3.87200E-001	8.00223E-005	4	..........a	-327.66
	3	0.0008	3.77270E-001	-1.14217E-010	0.00000E+000	3.77200E-001	-2.19978E-004	4	..........a	-327.66
	4	0.001	3.67370E-001	-1.66219E-010	0.00000E+000	3.67200E-001	8.00223E-005	4	..........a	-327.66
	5	0.0012	3.57170E-001	-2.20221E-010	0.00000E+000	3.57200E-001	8.00223E-005	4	..........a	-327.66
	6	0.0014	3.47070E-001	-2.80223E-010	0.00000E+000	3.47200E-001	8.00223E-005	4	..........a	-327.66
	7	0.0016	3.37270E-001	-3.36225E-010	0.00000E+000	3.37200E-001	-3.19978E-004	4	..........a	-327.66
	8	0.0018	3.27370E-001	-3.91227E-010	0.00000E+000	3.27200E-001	8.00223E-005	4	..........a	-327.66
	9	0.002	3.17170E-001	-4.57230E-010	0.00000E+000	3.17200E-001	8.00223E-005	4	..........a	-327.66
	10	0.0022	3.07170E-001	-5.18232E-010	0.00000E+000	3.07200E-001	-3.19978E-004	4	..........a	-327.66
	11	0.0024	2.97270E-001	-5.87235E-010	0.00000E+000	2.97200E-001	8.00223E-005	4	..........a	-327.66
	12	0.0026	2.87070E-001	-6.58238E-010	0.00000E+000	2.87200E-001	8.00223E-005	4	..........a	-327.66
	13	0.0028	2.77170E-001	-7.28240E-010	0.00000E+000	2.77200E-001	8.00223E-005	4	..........a	-327.66
	14	0.003	2.67270E-001	-8.07243E-010	0.00000E+000	2.67200E-001	8.00223E-005	4	..........a	-327.66
	15	0.0032	2.57270E-001	-8.82246E-010	0.00000E+000	2.57200E-001	8.00223E-005	4	..........a	-327.66
	16	0.0034	2.47370E-001	-9.68250E-010	0.00000E+000	2.47200E-001	8.00223E-005	4	..........a	-327.66
	17	0.0036	2.37270E-001	-1.04825E-009	0.00000E+000	2.37200E-001	-3.19978E-004	4	..........a	-327.66
	18	0.0038	2.27270E-001	-1.13826E-009	0.00000E+000	2.27200E-001	8.00223E-005	4	..........a	-327.66
	19	0.004	2.17270E-001	-1.23226E-009	0.00000E+000	2.17200E-001	8.00223E-005	4	..........a	-327.66
	20	0.0042	2.07170E-001	-1.32626E-009	0.00000E+000	2.07200E-001	8.00223E-005	4	..........a	-327.66
	21	0.0044	1.97070E-001	-1.42627E-009	0.00000E+000	1.97200E-001	8.00223E-005	4	..........a	-327.66
	22	0.0046	1.87270E-001	-1.52727E-009	0.00000E+000	1.87200E-001	8.00223E-005	4	..........a	-327.66
	23	0.0048	1.77270E-001	-1.63628E-009	0.00000E+000	1.77200E-001	8.00223E-005	4	..........a	-327.66
	24	0.005	1.67470E-001	-1.75028E-009	0.00000E+000	1.67200E-001	8.00223E-005	4	..........a	-327.66
	25	0.0052	1.57270E-001	-1.86628E-009	0.00000E+000	1.57200E-001	8.00223E-005	4	..........a	-327.66
	26	0.0054	1.47170E-001	-1.98829E-009	0.00000E+000	1.47200E-001	8.00223E-005	4	..........a	-327.66
	27	0.0056	1.37170E-001	-2.11329E-009	0.00000E+000	1.37200E-001	8.00223E-005	4	..........a	-327.66
	28	0.0058	1.27370E-001	-2.24530E-009	0.00000E+000	1.27200E-001	8.00223E-005	4	..........a	-327.66
	29	0.006	1.17070E-001	-2.37930E-009	0.00000E+000	1.17200E-001	8.00223E-005	4	..........a	-327.66
	30	0.0062	1.07370E-001	-2.51831E-009	0.00000E+000	1.07200E-001	8.00223E-005	4	..........a	-327.66
	31	0.0064	9.70695E-002	-2.66431E-009	0.00000E+000	9.72000E-002	8.00223E-005	4	..........a	-327.66
	32	0.0066	8.71695E-002	-2.81132E-009	0.00000E+000	8.72000E-002	8.00223E-005	4	..........a	-327.66
	33	0.0068	7.71695E-002	-2.97233E-009	0.00000E+000	7.72000E-002	8.00223E-005	4	..........a	-327.66
	34	0.007	6.72695E-002	-3.12133E-009	0.00000E+000	6.72000E-002	8.00223E-005	4	..........a	-327.66
	35	0.0072	5.73695E-002	-3.28834E-009	0.00000E+000	5.72000E-002	8.00223E-005	4	..........a	-327.66
	36	0.0074	4.74695E-002	-3.45134E-009	0.00000E+000	4.72000E-002	8.00223E-005	4	..........a	-327.66
	37	0.0076	3.71695E-002	-3.62435E-009	0.00000E+000	3.72000E-002	8.00223E-005	4	..........a	-327.66
	38	0.0078	2.72695E-002	-3.80136E-009	0.00000E+000	2.72000E-002	8.00223E-005	4	..........a	-327.66
	39	0.008	1.73195E-002	-3.97437E-009	0.00000E+000	1.72000E-002	8.00223E-005	4	..........a	-327.66
	40	0.0082	7.26952E-003	-4.16237E-009	0.00000E+000	7.20000E-003	-4.19978E-004	4	..........a	-327.66
	41	0.0084	-2.83048E-003	-4.34938E-009	0.00000E+000	-2.80000E-003	8.00223E-005	4	..........a	-327.66
	42	0.0086	-1.28305E-002	-4.54239E-009	0.00000E+000	-1.28000E-002	8.00223E-005	4	..........a	-327.66
	43	0.0088	-2.26305E-002	-4.73139E-009	0.00000E+000	-2.28000E-002	8.00223E-005	4	..........a	-327.66
	44	0.009	-3.25305E-002	-4.92440E-009	0.00000E+000	-3.28000E-002	8.00223E-005	4	..........a	-327.66
	45	0.0092	-4.28305E-002	-5.13241E-009	0.00000E+000	-4.28000E-002	8.00223E-005	4	..........a	-327.66
	46	0.0094	-5.27305E-002	-5.32842E-009	0.00000E+000	-5.28000E-002	8.00223E-005	4	..........a	-327.66
	47	0.0096	-6.27305E-002	-5.53543E-009	0.00000E+000	-6.28000E-002	8.00223E-005	4	..........a	-327.66
	48	0.0098	-7.26305E-002	-5.74143E-009	0.00000E+000	-7.28000E-002	8.00223E-005	4	..........a	-327.66
	49	0.01	-8.27305E-002	-5.95444E-009	0.00000E+000	-8.28000E-002	8.00223E-005	4	..........a	-327.66
	50	0.0102	-9.27305E-002	-6.16845E-009	0.00000E+000	-9.28000E-002	8.00223E-005	4	..........a	-327.66
	51	0.0104	-1.02730E-001	-6.38146E-009	0.00000E+000	-1.02800E-001	8.00223E-005	4	..........a	-327.66
	52	0.0106	-1.12630E-001	-6.59447E-009	0.00000E+000	-1.12800E-001	8.00223E-005	4	..........a	-327.66
	53	0.0108	-1.22830E-001	-6.81347E-009	0.00000E+000	-1.22800E-001	8.00223E-005	4	..........a	-327.66
	54	0.011	-1.32930E-001	-7.02048E-009	0.00000E+000	-1.32800E-001	8.00223E-005	4	..........a	-327.66
	55	0.0112	-1.42830E-001	-7.24749E-009	0.00000E+000	-1.42800E-001	8.00223E-005	4	..........a	-327.66
	56	0.0114	-1.52930E-001	-7.46650E-009	0.00000E+000	-1.52800E-001	-2.19978E-004	4	..........a	-327.66
	57	0.0116	-1.62730E-001	-7.68851E-009	0.00000E+000	-1.62800E-001	8.00223E-005	4	..........a	-327.66
	58	0.0118	-1.72730E-001	-7.90352E-009	0.00000E+000	-1.72800E-001	8.00223E-005	4	..........a	-327.66
	59	0.012	-1.82730E-001	-8.12752E-009	0.00000E+000	-1.82800E-001	8.00223E-005	4	..........a	-327.66
	60	0.0122	-1.92830E-001	-8.34653E-009	0.00000E+000	-1.92800E-001	8.00223E-005	4	..........a	-327.66
	61	0.0124	-2.02730E-001	-8.56154E-009	0.00000E+000	-2.02800E-001	8.00223E-005	4	..........a	-327.66
	62	0.0126	-2.12630E-001	-8.78255E-009	0.00000E+000	-2.12800E-001	8.00223E-005	4	..........a	-327.66
	63	0.0128	-2.22630E-001	-8.99756E-009	0.00000E+000	-2.22800E-001	8.00223E-005	4	..........a	-327.66
	64	0.013	-2.32630E-001	-9.21657E-009	0.00000E+000	-2.32800E-001	8.00223E-005	4	..........a	-327.66
	65	0.0132	-2.42730E-001	-9.42957E-009	0.00000E+000	-2.42800E-001	8.00223E-005	4	..........a	-327.66
	66	0.0134	-2.52630E-001	-9.64058E-009	0.00000E+000	-2.52800E-001	8.00223E-005	4	..........a	-327.66
	67	0.0136	-2.62630E-001	-9.85259E-009	0.00000E+000	-2.62800E-001	8.00223E-005	4	..........a	-327.66
	68	0.0138	-2.72730E-001	-1.00626E-008	0.00000E+000	-2.72800E-001	8.00223E-005	4	..........a	-327.66
	69	0.014	-2.82630E-001	-1.02686E-008	0.00000E+000	-2.82800E-001	8.00223E-005	4	..........a	-327.66
	70	0.0142	-2.92730E-001	-1.04756E-008	0.00000E+000	-2.92800E-001	-1.19978E-004	4	..........a	-327.66
	71	0.0144	-3.02730E-001	-1.06806E-008	0.00000E+000	-3.02800E-001	8.00223E-005	4	..........a	-327.66
	72	0.0146	-3.12630E-001	-1.08786E-008	0.00000E+000	-3.12800E-001	-4.19978E-004	4	..........a	-327.66
	73	0.0148	-3.22730E-001	-1.10726E-008	0.00000E+000	-3.22800E-001	8.00223E-005	4	..........a	-327.66
	74	0.015	-3.32730E-001	-1.12746E-008	0.00000E+000	-3.32800E-001	8.00223E-005	4	..........a	-327.66
	75	0.0152	-3.42630E-001	-1.14707E-008	0.00000E+000	-3.42800E-001	8.00223E-005	4	..........a	-327.66
	76	0.0154	-3.52530E-001	-1.16577E-008	0.00000E+000	-3.52800E-001	8.00223E-005	4	..........a	-327.66
	77	0.0156	-3.62530E-001	-1.18507E-008	0.00000E+000	-3.62800E-001	8.00223E-005	4	..........a	-327.66
	78	0.0158	-3.72730E-001	-1.20347E-008	0.00000E+000	-3.72800E-001	8.00223E-005	4	..........a	-327.66
	79	0.016	-3.82630E-001	-1.22227E-008	0.00000E+000	-3.82800E-001	8.00223E-005	4	..........a	-327.66
	80	0.0162	-3.92530E-001	-1.24087E-008	0.00000E+000	-3.92800E-001	8.00223E-005	4	..........a	-327.66
	81	0.0164	-4.02730E-001	-1.25897E-008	0.00000E+000	-4.02800E-001	-3.19978E-004	4	..........a	-327.66
	82	0.0166	-4.12430E-001	-1.27677E-008	0.00000E+000	-4.12800E-001	8.00223E-005	4	..........a	-327.66
	83	0.0168	-4.22730E-001	-1.29477E-008	0.00000E+000	-4.22800E-001	8.00223E-005	4	..........a	-327.66
	84	0.017	-4.32730E-001	-1.31307E-008	0.00000E+000	-4.32800E-001	8.00223E-005	4	..........a	-327.66
	85	0.0172	-4.42830E-001	-1.33017E-008	0.00000E+000	-4.42800E-001	8.00223E-005	4	..........a	-327.66
	86	0.0174	-4.52630E-001	-1.34827E-008	0.00000E+000	-4.52800E-001	8.00223E-005	4	..........a	-327.66
	87	0.0176	-4.62730E-001	-1.36587E-008	0.00000E+000	-4.62800E-001	-3.19978E-004	4	..........a	-327.66
	88	0.0178	-4.72630E-001	-1.38347E-008	0.00000E+000	-4.72800E-001	8.00223E-005	4	..........a	-327.66
	89	0.018	-4.82530E-001	-1.40038E-008	0.00000E+000	-4.82800E-001	-2.19978E-004	4	..........a	-327.66
	90	0.0182	-4.92530E-001	-1.41788E-008	0.00000E+000	-4.92800E-001	8.00223E-005	4	..........a	-327.66
	91	0.0184	-5.02630E-001	-1.43558E-008	0.00000E+000	-5.02800E-001	8.00223E-005	4	..........a	-327.66
	92	0.0186	-5.12531E-001	-1.45278E-008	0.00000E+000	-5.12800E-001	8.00223E-005	4	..........a	-327.66
	93	0.0188	-5.22730E-001	-1.47088E-008	0.00000E+000	-5.22800E-001	8.00223E-005	4	..........a	-327.66
	94	0.019	-5.32631E-001	-1.48888E-008	0.00000E+000	-5.32800E-001	8.00223E-005	4	..........a	-327.66
	95	0.0192	-5.42780E-001	-1.50638E-008	0.00000E+000	-5.42800E-001	8.00223E-005	4	..........a	-327.66
	96	0.0194	-5.52630E-001	-1.52478E-008	0.00000E+000	-5.52800E-001	8.00223E-005	4	..........a	-327.66
	97	0.0196	-5.62730E-001	-1.54268E-008	0.00000E+000	-5.62800E-001	-3.19978E-004	4	..........a	-327.66
	98	0.0198	-5.72630E-001	-1.56098E-008	0.00000E+000	-5.72800E-001	8.00223E-005	4	..........a	-327.66
	99	0.02	-5.82730E-001	-1.57978E-008	0.00000E+000	-5.82800E-001	8.00223E-005	4	..........a	-327.66
	100	0.0202	-5.92631E-001	-1.59878E-008	0.00000E+000	-5.92800E-001	8.00223E-005	4	..........a	-327.66
	101	0.0204	-6.02530E-001	-1.61818E-008	0.00000E+000	-6.02800E-001	8.00223E-005	4	..........a	-327.66
	102	0.0206	-5.92530E-001	-1.62228E-008	0.00000E+000	-5.92800E-001	8.00223E-005	4	..........a	-327.66
	103	0.0208	-5.82631E-001	-1.62328E-008	0.00000E+000	-5.82800E-001	8.00223E-005	4	..........a	-327.66
	104	0.021	-5.72630E-001	-1.62288E-008	0.00000E+000	-5.72800E-001	8.00223E-005	4	..........a	-327.66
	105	0.0212	-5.62630E-001	-1.62088E-008	0.00000E+000	-5.62800E-001	8.00223E-005	4	..........a	-327.66
	106	0.0214	-5.52530E-001	-1.61788E-008	0.00000E+000	-5.52800E-001	8.00223E-005	4	..........a	-327.66
	107	0.0216	-5.42630E-001	-1.61388E-008	0.00000E+000	-5.42800E-001	8.00223E-005	4	..........a	-327.66
	108	0.0218	-5.32780E-001	-1.60918E-008	0.00000E+000	-5.32800E-001	8.00223E-005	4	..........a	-327.66
	109	0.022	-5.22631E-001	-1.60368E-008	0.00000E+000	-5.22800E-001	8.00223E-005	4	..........a	-327.66
	110	0.0222	-5.12531E-001	-1.59758E-008	0.00000E+000	-5.12800E-001	8.00223E-005	4	..........a	-327.66
	111	0.0224	-5.02630E-001	-1.59118E-008	0.00000E+000	-5.02800E-001	-4.19978E-004	4	..........a	-327.66
	112	0.0226	-4.92630E-001	-1.58478E-008	0.00000E+000	-4.92800E-001	8.00223E-005	4	..........a	-327.66
	113	0.0228	-4.82630E-001	-1.57768E-008	0.00000E+000	-4.82800E-001	8.00223E-005	4	..........a	-327.66
	114	0.023	-4.72430E-001	-1.57008E-008	0.00000E+000	-4.72800E-001	8.00223E-005	4	..........a	-327.66
	115	0.0232	-4.62680E-001	-1.56268E-008	0.00000E+000	-4.62800E-001	8.00223E-005	4	..........a	-327.66
	116	0.0234	-4.52730E-001	-1.55488E-008	0.00000E+000	-4.52800E-001	8.00223E-005	4	..........a	-327.66
	117	0.0236	-4.42730E-001	-1.54678E-008	0.00000E+000	-4.42800E-001	8.00223E-005	4	..........a	-327.66
	118	0.0238	-4.32530E-001	-1.53878E-008	0.00000E+000	-4.32800E-001	8.00223E-005	4	..........a	-327.66
	119	0.024	-4.22630E-001	-1.53008E-008	0.00000E+000	-4.22800E-001	8.00223E-005	4	..........a	-327.66
	120	0.0242	-4.12630E-001	-1.52078E-008	0.00000E+000	-4.12800E-001	8.00223E-005	4	..........a	-327.66
	121	0.0244	-4.02630E-001	-1.51338E-008	0.00000E+000	-4.02800E-001	8.00223E-005	4	..........a	-327.66
	122	0.0246	-3.92530E-001	-1.50428E-008	0.00000E+000	-3.92800E-001	8.00223E-005	4	..........a	-327.66
	123	0.0248	-3.82630E-001	-1.49498E-008	0.00000E+000	-3.82800E-001	8.00223E-005	4	..........a	-327.66
	124	0.025	-3.72630E-001	-1.48638E-008	0.00000E+000	-3.72800E-001	8.00223E-005	4	..........a	-327.66
	125	0.0252	-3.62530E-001	-1.47748E-008	0.00000E+000	-3.62800E-001	8.00223E-005	4	..........a	-327.66
	126	0.0254	-3.52530E-001	-1.46768E-008	0.00000E+000	-3.52800E-001	8.00223E-005	4	..........a	-327.66
	127	0.0256	-3.42830E-001	-1.45848E-008	0.00000E+000	-3.42800E-001	8.00223E-005	4	..........a	-327.66
	128	0.0258	-3.32530E-001	-1.44928E-008	0.00000E+000	-3.32800E-001	8.00223E-005	4	..........a	-327.66
	129	0.026	-3.22730E-001	-1.43998E-008	0.00000E+000	-3.22800E-001	8.00223E-005	4	..........a	-327.66
	130	0.0262	-3.12530E-001	-1.43028E-008	0.00000E+000	-3.12800E-001	8.00223E-005	4	..........a	-327.66
	131	0.0264	-3.02630E-001	-1.42028E-008	0.00000E+000	-3.02800E-001	8.00223E-005	4	..........a	-327.66
	132	0.0266	-2.92730E-001	-1.41098E-008	0.00000E+000	-2.92800E-001	8.00223E-005	4	..........a	-327.66
	133	0.0268	-2.82630E-001	-1.40098E-008	0.00000E+000	-2.82800E-001	8.00223E-005	4	..........a	-327.66
	134	0.027	-2.72630E-001	-1.39107E-008	0.00000E+000	-2.72800E-001	8.00223E-005	4	..........a	-327.66
	135	0.0272	-2.62630E-001	-1.38117E-008	0.00000E+000	-2.62800E-001	8.00223E-005	4	..........a	-327.66
	136	0.0274	-2.52630E-001	-1.37147E-008	0.00000E+000	-2.52800E-001	8.00223E-005	4	..........a	-327.66
	137	0.0276	-2.42730E-001	-1.36167E-008	0.00000E+000	-2.42800E-001	8.00223E-005	4	..........a	-327.66
	138	0.0278	-2.32730E-001	-1.35147E-008	0.00000E+000	-2.32800E-001	8.00223E-005	4	..........a	-327.66
	139	0.028	-2.22730E-001	-1.34077E-008	0.00000E+000	-2.22800E-001	8.00223E-005	4	..........a	-327.66
	140	0.0282	-2.12630E-001	-1.33067E-008	0.00000E+000	-2.12800E-001	8.00223E-005	4	..........a	-327.66
	141	0.0284	-2.02730E-001	-1.32077E-008	0.00000E+000	-2.02800E-001	8.00223E-005	4	..........a	-327.66
	142	0.0286	-1.92730E-001	-1.31027E-008	0.00000E+000	-1.92800E-001	8.00223E-005	4	..........a	-327.66
	143	0.0288	-1.82730E-001	-1.29977E-008	0.00000E+000	-1.82800E-001	-3.19978E-004	4	..........a	-327.66
	144	0.029	-1.72830E-001	-1.28977E-008	0.00000E+000	-1.72800E-001	8.00223E-005	4	..........a	-327.66
	145	0.0292	-1.62730E-001	-1.27887E-008	0.00000E+000	-1.62800E-001	-3.19978E-004	4	..........a	-327.66
	146	0.0294	-1.52730E-001	-1.26837E-008	0.00000E+000	-1.52800E-001	8.00223E-005	4	..........a	-327.66
	147	0.0296	-1.42730E-001	-1.25807E-008	0.00000E+000	-1.42800E-001	8.00223E-005	4	..........a	-327.66
	148	0.0298	-1.33030E-001	-1.24737E-008	0.00000E+000	-1.32800E-001	8.00223E-005	4	..........a	-327.66
	149	0.03	-1.22730E-001	-1.23647E-008	0.00000E+000	-1.22800E-001	-3.19978E-004	4	..........a	-327.66
	150	0.0302	-1.12630E-001	-1.22527E-008	0.00000E+000	-1.12800E-001	8.00223E-005	4	..........a	-327.66
	151	0.0304	-1.02830E-001	-1.21487E-008	0.00000E+000	-1.02800E-001	8.00223E-005	4	..........a	-327.66
	152	0.0306	-9.27305E-002	-1.20397E-008	0.00000E+000	-9.28000E-002	8.00223E-005	4	..........a	-327.66
	153	0.0308	-8.27305E-002	-1.19277E-008	0.00000E+000	-8.28000E-002	8.00223E-005	4	..........a	-327.66
	154	0.031	-7.26305E-002	-1.18187E-008	0.00000E+000	-7.28000E-002	8.00223E-005	4	..........a	-327.66
	155	0.0312	-6.27305E-002	-1.17147E-008	0.00000E+000	-6.28000E-002	-2.19978E-004	4	..........a	-327.66
	156	0.0314	-5.29305E-002	-1.15987E-008	0.00000E+000	-5.28000E-002	-3.19978E-004	4	..........a	-327.66
	157	0.0316	-4.27305E-002	-1.14847E-008	0.00000E+000	-4.28000E-002	8.00223E-005	4	..........a	-327.66
	158	0.0318	-3.27305E-002	-1.13716E-008	0.00000E+000	-3.28000E-002	8.00223E-005	4	..........a	-327.66
	159	0.032	-2.26305E-002	-1.12586E-008	0.00000E+000	-2.28000E-002	8.00223E-005	4	..........a	-327.66
	160	0.0322	-1.28305E-002	-1.11436E-008	0.00000E+000	-1.28000E-002	8.00223E-005	4	..........a	-327.66
	161	0.0324	-2.63048E-003	-1.10316E-008	0.00000E+000	-2.80000E-003	8.00223E-005	4	..........a	-327.66
	162	0.0326	7.36952E-003	-1.09126E-008	0.00000E+000	7.20000E-003	8.00223E-005	4	..........a	-327.66
	163	0.0328	1.72695E-002	-1.07936E-008	0.00000E+000	1.72000E-002	8.00223E-005	4	..........a	-327.66
	164	0.033	2.73695E-002	-1.06786E-008	0.00000E+000	2.72000E-002	-3.19978E-004	4	..........a	-327.66
	165	0.0332	3.71695E-002	-1.05596E-008	0.00000E+000	3.72000E-002	8.00223E-005	4	..........a	-327.66
	166	0.0334	4.71695E-002	-1.04396E-008	0.00000E+000	4.72000E-002	8.00223E-005	4	..........a	-327.66
	167	0.0336	5.72695E-002	-1.03136E-008	0.00000E+000	5.72000E-002	8.00223E-005	4	..........a	-327.66
	168	0.0338	6.73695E-002	-1.01906E-008	0.00000E+000	6.72000E-002	8.00223E-005	4	..........a	-327.66
	169	0.034	7.72695E-002	-1.00706E-008	0.00000E+000	7.72000E-002	8.00223E-005	4	..........a	-327.66
	170	0.0342	8.73695E-002	-9.94359E-009	0.00000E+000	8.72000E-002	-3.19978E-004	4	..........a	-327.66
	171	0.0344	9.71695E-002	-9.81159E-009	0.00000E+000	9.72000E-002	8.00223E-005	4	..........a	-327.66
	172	0.0346	1.07270E-001	-9.68458E-009	0.00000E+000	1.07200E-001	8.00223E-005	4	..........a	-327.66
	173	0.0348	1.17270E-001	-9.55258E-009	0.00000E+000	1.17200E-001	8.00223E-005	4	..........a	-327.66
	174	0.035	1.27470E-001	-9.42157E-009	0.00000E+000	1.27200E-001	-4.19978E-004	4	..........a	-327.66
	175	0.0352	1.37270E-001	-9.28457E-009	0.00000E+000	1.37200E-001	8.00223E-005	4	..........a	-327.66
	176	0.0354	1.47370E-001	-9.14856E-009	0.00000E+000	1.47200E-001	8.00223E-005	4	..........a	-327.66
	177	0.0356	1.57270E-001	-9.01156E-009	0.00000E+000	1.57200E-001	8.00223E-005	4	..........a	-327.66
	178	0.0358	1.67270E-001	-8.86455E-009	0.00000E+000	1.67200E-001	8.00223E-005	4	..........a	-327.66
	179	0.036	1.77270E-001	-8.71755E-009	0.00000E+000	1.77200E-001	8.00223E-005	4	..........a	-327.66
	180	0.0362	1.87270E-001	-8.57054E-009	0.00000E+000	1.87200E-001	8.00223E-005	4	..........a	-327.66
	181	0.0364	1.97170E-001	-8.41854E-009	0.00000E+000	1.97200E-001	-3.19978E-004	4	..........a	-327.66
	182	0.0366	2.07370E-001	-8.26653E-009	0.00000E+000	2.07200E-001	8.00223E-005	4	..........a	-327.66
	183	0.0368	2.17270E-001	-8.10752E-009	0.00000E+000	2.17200E-001	8.00223E-005	4	..........a	-327.66
	184	0.037	2.27070E-001	-7.94852E-009	0.00000E+000	2.27200E-001	8.00223E-005	4	..........a	-327.66
	185	0.0372	2.37170E-001	-7.78351E-009	0.00000E+000	2.37200E-001	8.00223E-005	4	..........a	-327.66
	186	0.0374	2.47370E-001	-7.61750E-009	0.00000E+000	2.47200E-001	8.00223E-005	4	..........a	-327.66
	187	0.0376	2.57370E-001	-7.44650E-009	0.00000E+000	2.57200E-001	8.00223E-005	4	..........a	-327.66
	188	0.0378	2.67370E-001	-7.27649E-009	0.00000E+000	2.67200E-001	8.00223E-005	4	..........a	-327.66
	189	0.038	2.77270E-001	-7.10349E-009	0.00000E+000	2.77200E-001	8.00223E-005	4	..........a	-327.66
	190	0.0382	2.87270E-001	-6.92248E-009	0.00000E+000	2.87200E-001	8.00223E-005	4	..........a	-327.66
	191	0.0384	2.97020E-001	-6.74247E-009	0.00000E+000	2.97200E-001	8.00223E-005	4	..........a	-327.66
	192	0.0386	3.07270E-001	-6.55446E-009	0.00000E+000	3.07200E-001	8.00223E-005	4	..........a	-327.66
	193	0.0388	3.17270E-001	-6.36446E-009	0.00000E+000	3.17200E-001	8.00223E-005	4	..........a	-327.66
	194	0.039	3.27470E-001	-6.17145E-009	0.00000E+000	3.27200E-001	-1.19978E-004	4	..........a	-327.66
	195	0.0392	3.37270E-001	-5.98244E-009	0.00000E+000	3.37200E-001	8.00223E-005	4	..........a	-327.66
	196	0.0394	3.47370E-001	-5.77643E-009	0.00000E+000	3.47200E-001	8.00223E-005	4	..........a	-327.66
	197	0.0396	3.57270E-001	-5.57643E-009	0.00000E+000	3.57200E-001	8.00223E-005	4	..........a	-327.66
	198	0.0398	3.67120E-001	-5.37742E-009	0.00000E+000	3.67200E-001	8.00223E-005	4	..........a	-327.66
	199	0.04	3.77270E-001	-5.16741E-009	0.00000E+000	3.77200E-001	8.00223E-005	4	..........a	-327.66
	200	0.0402	3.87270E-001	-4.95940E-009	0.00000E+000	3.87200E-001	8.00223E-005	4	..........a	-327.66
	201	0.0404	3.97270E-001	-4.74639E-009	0.00000E+000	3.97200E-001	8.00223E-005	4	..........a	-327.66
	202	0.0406	4.07470E-001	-4.53339E-009	0.00000E+000	4.07200E-001	8.00223E-005	4	..........a	-327.66
	203	0.0408	4.17170E-001	-4.31538E-009	0.00000E+000	4.17200E-001	8.00223E-005	4	..........a	-327.66
	204	0.041	4.27170E-001	-4.09937E-009	0.00000E+000	4.27200E-001	8.00223E-005	4	..........a	-327.66
	205	0.0412	4.37170E-001	-3.87736E-009	0.00000E+000	4.37200E-001	8.00223E-005	4	..........a	-327.66
	206	0.0414	4.47170E-001	-3.65135E-009	0.00000E+000	4.47200E-001	8.00223E-005	4	..........a	-327.66
	207	0.0416	4.57170E-001	-3.42334E-009	0.00000E+000	4.57200E-001	8.00223E-005	4	..........a	-327.66
	208	0.0418	4.67270E-001	-3.20034E-009	0.00000E+000	4.67200E-001	8.00223E-005	4	..........a	-327.66
	209	0.042	4.77170E-001	-2.97233E-009	0.00000E+000	4.77200E-001	8.00223E-005	4	..........a	-327.66
	210	0.0422	4.87370E-001	-2.73832E-009	0.00000E+000	4.87200E-001	8.00223E-005	4	..........a	-327.66
	211	0.0424	4.97270E-001	-2.51031E-009	0.00000E+000	4.97200E-001	8.00223E-005	4	..........a	-327.66
	212	0.0426	5.07069E-001	-2.27030E-009	0.00000E+000	5.07200E-001	8.00223E-005	4	..........a	-327.66
	213	0.0428	5.17069E-001	-2.03629E-009	0.00000E+000	5.17200E-001	8.00223E-005	4	..........a	-327.66
	214	0.043	5.27070E-001	-1.80228E-009	0.00000E+000	5.27200E-001	8.00223E-005	4	..........a	-327.66
	215	0.0432	5.37069E-001	-1.56027E-009	0.00000E+000	5.37200E-001	8.00223E-005	4	..........a	-327.66
	216	0.0434	5.47170E-001	-1.31426E-009	0.00000E+000	5.47200E-001	8.00223E-005	4	..........a	-327.66
	217	0.0436	5.57270E-001	-1.07625E-009	0.00000E+000	5.57200E-001	8.00223E-005	4	..........a	-327.66
	218	0.0438	5.67270E-001	-8.32244E-010	0.00000E+000	5.67200E-001	8.00223E-005	4	..........a	-327.66
	219	0.044	5.77269E-001	-5.85235E-010	0.00000E+000	5.77200E-001	8.00223E-005	4	..........a	-327.66
	220	0.0442	5.87269E-001	-3.34225E-010	0.00000E+000	5.87200E-001	8.00223E-005	4	..........a	-327.66
	221	0.0444	5.97070E-001	-8.82158E-011	0.00000E+000	5.97200E-001	8.00223E-005	4	..........a	-327.66
	222	0.0446	6.07369E-001	1.60794E-010	0.00000E+000	6.07200E-001	8.00223E-005	4	..........a	-327.66
	223	0.0448	6.17169E-001	4.14804E-010	0.00000E+000	6.17200E-001	8.00223E-005	4	..........a	-327.66
	224	0.045	6.27069E-001	6.68813E-010	0.00000E+000	6.27200E-001	8.00223E-005	4	..........a	-327.66
	225	0.0452	6.37169E-001	9.19823E-010	0.00000E+000	6.37200E-001	8.00223E-005	4	..........a	-327.66
	226	0.0454	6.46969E-001	1.17383E-009	0.00000E+000	6.47200E-001	8.00223E-005	4	..........a	-327.66
	227	0.0456	6.57019E-001	1.43484E-009	0.00000E+000	6.57200E-001	8.00223E-005	4	..........a	-327.66
	228	0.0458	6.67069E-001	1.69285E-009	0.00000E+000	6.67200E-001	8.00223E-005	4	..........a	-327.66
	229	0.046	6.77170E-001	1.94786E-009	0.00000E+000	6.77200E-001	8.00223E-005	4	..........a	-327.66
	230	0.0462	6.86969E-001	2.21487E-009	0.00000E+000	6.87200E-001	8.00223E-005	4	..........a	-327.66
	231	0.0464	6.97169E-001	2.47988E-009	0.00000E+000	6.97200E-001	8.00223E-005	4	..........a	-327.66
	232	0.0466	7.07169E-001	2.74189E-009	0.00000E+000	7.07200E-001	8.00223E-005	4	..........a	-327.66
	233	0.0468	7.17070E-001	3.00990E-009	0.00000E+000	7.17200E-001	8.00223E-005	4	..........a	-327.66
	234	0.047	7.27169E-001	3.28091E-009	0.00000E+000	7.27200E-001	8.00223E-005	4	..........a	-327.66
	235	0.0472	7.37269E-001	3.55292E-009	0.00000E+000	7.37200E-001	8.00223E-005	4	..........a	-327.66
	236	0.0474	7.46969E-001	3.82993E-009	0.00000E+000	7.47200E-001	8.00223E-005	4	..........a	-327.66
	237	0.0476	7.56969E-001	4.11095E-009	0.00000E+000	7.57200E-001	8.00223E-005	4	..........a	-327.66
	238	0.0478	7.67069E-001	4.39096E-009	0.00000E+000	7.67200E-001	8.00223E-005	4	..........a	-327.66
	239	0.048	7.77169E-001	4.67597E-009	0.00000E+000	7.77200E-001	8.00223E-005	4	..........a	-327.66
	240	0.0482	7.87169E-001	4.95998E-009	0.00000E+000	7.87200E-001	8.00223E-005	4	..........a	-327.66
	241	0.0484	7.97069E-001	5.24999E-009	0.00000E+000	7.97200E-001	8.00223E-005	4	..........a	-327.66
CURVE2	TABLE
	Pt	T	Vf	Im	Vu	Sig	Ach	IERange	Over	Temp
	#	s	V vs. Ref.	A	V	V	V	#	bits	deg C
	242	0.0486	7.89869E-001	5.41200E-009	0.00000E+000	7.90000E-001	8.00223E-005	4	..........a	-327.66
	243	0.0488	7.79869E-001	5.51200E-009	0.00000E+000	7.80000E-001	8.00223E-005	4	..........a	-327.66
	244	0.049	7.69769E-001	5.57800E-009	0.00000E+000	7.70000E-001	8.00223E-005	4	..........a	-327.66
	245	0.0492	7.59820E-001	5.62000E-009	0.00000E+000	7.60000E-001	8.00223E-005	4	..........a	-327.66
	246	0.0494	7.49969E-001	5.63300E-009	0.00000E+000	7.50000E-001	8.00223E-005	4	..........a	-327.66
	247	0.0496	7.39969E-001	5.63600E-009	0.00000E+000	7.40000E-001	8.00223E-005	4	..........a	-327.66
	248	0.0498	7.29869E-001	5.62200E-009	0.00000E+000	7.30000E-001	8.00223E-005	4	..........a	-327.66
	249	0.05	7.20069E-001	5.60400E-009	0.00000E+000	7.20000E-001	8.00223E-005	4	..........a	-327.66
	250	0.0502	7.09870E-001	5.57400E-009	0.00000E+000	7.10000E-001	8.00223E-005	4	..........a	-327.66
	251	0.0504	6.99869E-001	5.53600E-009	0.00000E+000	7.00000E-001	8.00223E-005	4	..........a	-327.66
	252	0.0506	6.89819E-001	5.48900E-009	0.00000E+000	6.90000E-001	8.00223E-005	4	..........a	-327.66
	253	0.0508	6.80169E-001	5.43900E-009	0.00000E+000	6.80000E-001	-2.19978E-004	4	..........a	-327.66
	254	0.051	6.69969E-001	5.38399E-009	0.00000E+000	6.70000E-001	8.00223E-005	4	..........a	-327.66
	255	0.0512	6.59669E-001	5.32299E-009	0.00000E+000	6.60000E-001	-3.19978E-004	4	..........a	-327.66
	256	0.0514	6.49870E-001	5.25799E-009	0.00000E+000	6.50000E-001	8.00223E-005	4	..........a	-327.66
	257	0.0516	6.39870E-001	5.18899E-009	0.00000E+000	6.40000E-001	8.00223E-005	4	..........a	-327.66
	258	0.0518	6.30069E-001	5.11698E-009	0.00000E+000	6.30000E-001	8.00223E-005	4	..........a	-327.66
	259	0.052	6.20070E-001	5.04598E-009	0.00000E+000	6.20000E-001	8.00223E-005	4	..........a	-327.66
	260	0.0522	6.09869E-001	4.96498E-009	0.00000E+000	6.10000E-001	8.00223E-005	4	..........a	-327.66
	261	0.0524	5.99869E-001	4.88398E-009	0.00000E+000	6.00000E-001	8.00223E-005	4	..........a	-327.66
	262	0.0526	5.89869E-001	4.79597E-009	0.00000E+000	5.90000E-001	8.00223E-005	4	..........a	-327.66
	263	0.0528	5.79820E-001	4.71397E-009	0.00000E+000	5.80000E-001	8.00223E-005	4	..........a	-327.66
	264	0.053	5.69869E-001	4.62697E-009	0.00000E+000	5.70000E-001	8.00223E-005	4	..........a	-327.66
	265	0.0532	5.59969E-001	4.53696E-009	0.00000E+000	5.60000E-001	8.00223E-005	4	..........a	-327.66
	266	0.0534	5.49969E-001	4.43996E-009	0.00000E+000	5.50000E-001	8.00223E-005	4	..........a	-327.66
	267	0.0536	5.39970E-001	4.34495E-009	0.00000E+000	5.40000E-001	8.00223E-005	4	..........a	-327.66
	268	0.0538	5.30069E-001	4.24495E-009	0.00000E+000	5.30000E-001	8.00223E-005	4	..........a	-327.66
	269	0.054	5.20069E-001	4.14195E-009	0.00000E+000	5.20000E-001	8.00223E-005	4	..........a	-327.66
	270	0.0542	5.09969E-001	4.03294E-009	0.00000E+000	5.10000E-001	8.00223E-005	4	..........a	-327.66
	271	0.0544	4.99970E-001	3.93094E-009	0.00000E+000	5.00000E-001	8.00223E-005	4	..........a	-327.66
	272	0.0546	4.89870E-001	3.82393E-009	0.00000E+000	4.90000E-001	8.00223E-005	4	..........a	-327.66
	273	0.0548	4.79670E-001	3.71293E-009	0.00000E+000	4.80000E-001	8.00223E-005	4	..........a	-327.66
	274	0.055	4.69970E-001	3.59693E-009	0.00000E+000	4.70000E-001	8.00223E-005	4	..........a	-327.66
	275	0.0552	4.59970E-001	3.48492E-009	0.00000E+000	4.60000E-001	8.00223E-005	4	..........a	-327.66
	276	0.0554	4.49870E-001	3.36392E-009	0.00000E+000	4.50000E-001	8.00223E-005	4	..........a	-327.66
	277	0.0556	4.39770E-001	3.23991E-009	0.00000E+000	4.40000E-001	8.00223E-005	4	..........a	-327.66
	278	0.0558	4.29870E-001	3.11391E-009	0.00000E+000	4.30000E-001	8.00223E-005	4	..........a	-327.66
	279	0.056	4.20070E-001	2.98390E-009	0.00000E+000	4.20000E-001	8.00223E-005	4	..........a	-327.66
	280	0.0562	4.09870E-001	2.85290E-009	0.00000E+000	4.10000E-001	8.00223E-005	4	..........a	-327.66
	281	0.0564	3.99870E-001	2.71989E-009	0.00000E+000	4.00000E-001	8.00223E-005	4	..........a	-327.66
	282	0.0566	3.90070E-001	2.58189E-009	0.00000E+000	3.90000E-001	8.00223E-005	4	..........a	-327.66
	283	0.0568	3.80070E-001	2.43688E-009	0.00000E+000	3.80000E-001	8.00223E-005	4	..........a	-327.66
	284	0.057	3.69970E-001	2.28988E-009	0.00000E+000	3.70000E-001	8.00223E-005	4	..........a	-327.66
	285	0.0572	3.60070E-001	2.13787E-009	0.00000E+000	3.60000E-001	8.00223E-005	4	..........a	-327.66
	286	0.0574	3.50070E-001	1.98186E-009	0.00000E+000	3.50000E-001	8.00223E-005	4	..........a	-327.66
	287	0.0576	3.39970E-001	1.82586E-009	0.00000E+000	3.40000E-001	8.00223E-005	4	..........a	-327.66
	288	0.0578	3.29870E-001	1.66585E-009	0.00000E+000	3.30000E-001	8.00223E-005	4	..........a	-327.66
	289	0.058	3.19970E-001	1.49885E-009	0.00000E+000	3.20000E-001	-2.19978E-004	4	..........a	-327.66
	290	0.0582	3.09970E-001	1.32784E-009	0.00000E+000	3.10000E-001	8.00223E-005	4	..........a	-327.66
	291	0.0584	3.00270E-001	1.15583E-009	0.00000E+000	3.00000E-001	8.00223E-005	4	..........a	-327.66
	292	0.0586	2.89970E-001	9.72825E-010	0.00000E+000	2.90000E-001	8.00223E-005	4	..........a	-327.66
	293	0.0588	2.79970E-001	7.93818E-010	0.00000E+000	2.80000E-001	8.00223E-005	4	..........a	-327.66
	294	0.059	2.70070E-001	6.03811E-010	0.00000E+000	2.70000E-001	-3.19978E-004	4	..........a	-327.66
	295	0.0592	2.59970E-001	4.10803E-010	0.00000E+000	2.60000E-001	-4.19978E-004	4	..........a	-327.66
	296	0.0594	2.50070E-001	2.12796E-010	0.00000E+000	2.50000E-001	8.00223E-005	4	..........a	-327.66
	297	0.0596	2.39970E-001	1.67883E-011	0.00000E+000	2.40000E-001	8.00223E-005	4	..........a	-327.66
	298	0.0598	2.29970E-001	-1.84219E-010	0.00000E+000	2.30000E-001	8.00223E-005	4	..........a	-327.66
	299	0.06	2.19670E-001	-3.86227E-010	0.00000E+000	2.20000E-001	8.00223E-005	4	..........a	-327.66
	300	0.0602	2.09970E-001	-5.96235E-010	0.00000E+000	2.10000E-001	8.00223E-005	4	..........a	-327.66
	301	0.0604	2.00170E-001	-8.05243E-010	0.00000E+000	2.00000E-001	8.00223E-005	4	..........a	-327.66
	302	0.0606	1.90070E-001	-1.02225E-009	0.00000E+000	1.90000E-001	8.00223E-005	4	..........a	-327.66
	303	0.0608	1.80170E-001	-1.23026E-009	0.00000E+000	1.80000E-001	8.00223E-005	4	..........a	-327.66
	304	0.061	1.69770E-001	-1.44527E-009	0.00000E+000	1.70000E-001	8.00223E-005	4	..........a	-327.66
	305	0.0612	1.59970E-001	-1.65928E-009	0.00000E+000	1.60000E-001	8.00223E-005	4	..........a	-327.66
	306	0.0614	1.50170E-001	-1.87028E-009	0.00000E+000	1.50000E-001	-3.19978E-004	4	..........a	-327.66
	307	0.0616	1.39970E-001	-2.09029E-009	0.00000E+000	1.40000E-001	8.00223E-005	4	..........a	-327.66
	308	0.0618	1.29820E-001	-2.30530E-009	0.00000E+000	1.30000E-001	8.00223E-005	4	..........a	-327.66
	309	0.062	1.20170E-001	-2.51531E-009	0.00000E+000	1.20000E-001	8.00223E-005	4	..........a	-327.66
	310	0.0622	1.09870E-001	-2.72632E-009	0.00000E+000	1.10000E-001	8.00223E-005	4	..........a	-327.66
	311	0.0624	1.00170E-001	-2.92732E-009	0.00000E+000	1.00000E-001	8.00223E-005	4	..........a	-327.66
	312	0.0626	9.00695E-002	-3.14433E-009	0.00000E+000	9.00000E-002	8.00223E-005	4	..........a	-327.66
	313	0.0628	8.00695E-002	-3.34934E-009	0.00000E+000	8.00000E-002	8.00223E-005	4	..........a	-327.66
	314	0.063	7.00695E-002	-3.55135E-009	0.00000E+000	7.00000E-002	8.00223E-005	4	..........a	-327.66
	315	0.0632	6.00695E-002	-3.75036E-009	0.00000E+000	6.00000E-002	8.00223E-005	4	..........a	-327.66
	316	0.0634	5.01695E-002	-3.94536E-009	0.00000E+000	5.00000E-002	8.00223E-005	4	..........a	-327.66
	317	0.0636	4.00695E-002	-4.14337E-009	0.00000E+000	4.00000E-002	8.00223E-005	4	..........a	-327.66
	318	0.0638	3.01195E-002	-4.33338E-009	0.00000E+000	3.00000E-002	8.00223E-005	4	..........a	-327.66
	319	0.064	2.01695E-002	-4.52239E-009	0.00000E+000	2.00000E-002	8.00223E-005	4	..........a	-327.66
	320	0.0642	1.00695E-002	-4.70739E-009	0.00000E+000	1.00000E-002	8.00223E-005	4	..........a	-327.66
	321	0.0644	-1.30481E-004	-4.88840E-009	0.00000E+000	7.45058E-009	8.00223E-005	4	..........a	-327.66
	322	0.0646	-9.93048E-003	-5.06841E-009	0.00000E+000	-1.00000E-002	-4.19978E-004	4	..........a	-327.66
	323	0.0648	-1.99305E-002	-5.24041E-009	0.00000E+000	-2.00000E-002	-3.19978E-004	4	..........a	-327.66
	324	0.065	-2.98305E-002	-5.42042E-009	0.00000E+000	-3.00000E-002	8.00223E-005	4	..........a	-327.66
	325	0.0652	-3.99305E-002	-5.58643E-009	0.00000E+000	-4.00000E-002	-2.19978E-004	4	..........a	-327.66
	326	0.0654	-4.99305E-002	-5.75143E-009	0.00000E+000	-5.00000E-002	8.00223E-005	4	..........a	-327.66
	327	0.0656	-5.97305E-002	-5.91844E-009	0.00000E+000	-6.00000E-002	8.00223E-005	4	..........a	-327.66
	328	0.0658	-6.99305E-002	-6.08145E-009	0.00000E+000	-7.00000E-002	-3.19978E-004	4	..........a	-327.66
	329	0.066	-7.98305E-002	-6.24145E-009	0.00000E+000	-8.00000E-002	8.00223E-005	4	..........a	-327.66
	330	0.0662	-8.98305E-002	-6.39646E-009	0.00000E+000	-9.00000E-002	8.00223E-005	4	..........a	-327.66
	331	0.0664	-9.99305E-002	-6.55646E-009	0.00000E+000	-1.00000E-001	8.00223E-005	4	..........a	-327.66
	332	0.0666	-1.09930E-001	-6.70447E-009	0.00000E+000	-1.10000E-001	-3.19978E-004	4	..........a	-327.66
	333	0.0668	-1.19930E-001	-6.85748E-009	0.00000E+000	-1.20000E-001	8.00223E-005	4	..........a	-327.66
	334	0.067	-1.30030E-001	-7.00548E-009	0.00000E+000	-1.30000E-001	8.00223E-005	4	..........a	-327.66
	335	0.0672	-1.39780E-001	-7.14849E-009	0.00000E+000	-1.40000E-001	8.00223E-005	4	..........a	-327.66
	336	0.0674	-1.49930E-001	-7.29449E-009	0.00000E+000	-1.50000E-001	8.00223E-005	4	..........a	-327.66
	337	0.0676	-1.60080E-001	-7.43850E-009	0.00000E+000	-1.60000E-001	8.00223E-005	4	..........a	-327.66
	338	0.0678	-1.69930E-001	-7.58050E-009	0.00000E+000	-1.70000E-001	8.00223E-005	4	..........a	-327.66
	339	0.068	-1.79830E-001	-7.71851E-009	0.00000E+000	-1.80000E-001	8.00223E-005	4	..........a	-327.66
	340	0.0682	-1.89930E-001	-7.86051E-009	0.00000E+000	-1.90000E-001	8.00223E-005	4	..........a	-327.66
	341	0.0684	-1.99930E-001	-7.99152E-009	0.00000E+000	-2.00000E-001	8.00223E-005	4	..........a	-327.66
	342	0.0686	-2.09930E-001	-8.12852E-009	0.00000E+000	-2.10000E-001	8.00223E-005	4	..........a	-327.66
	343	0.0688	-2.19930E-001	-8.26653E-009	0.00000E+000	-2.20000E-001	8.00223E-005	4	..........a	-327.66
	344	0.069	-2.29830E-001	-8.39754E-009	0.00000E+000	-2.30000E-001	8.00223E-005	4	..........a	-327.66
[...]
	2605	0.5212	-4.40130E-001	-7.12349E-009	0.00000E+000	-4.40000E-001	8.00223E-005	4	..........a	-327.66
	2606	0.5214	-4.49930E-001	-7.24249E-009	0.00000E+000	-4.50000E-001	8.00223E-005	4	..........a	-327.66
	2607	0.5216	-4.59930E-001	-7.36750E-009	0.00000E+000	-4.60000E-001	-1.19978E-004	4	..........a	-327.66
	2608	0.5218	-4.69930E-001	-7.48650E-009	0.00000E+000	-4.70000E-001	8.00223E-005	4	..........a	-327.66
	2609	0.522	-4.79830E-001	-7.60951E-009	0.00000E+000	-4.80000E-001	-3.19978E-004	4	..........a	-327.66
	2610	0.5222	-4.89930E-001	-7.73451E-009	0.00000E+000	-4.90000E-001	8.00223E-005	4	..........a	-327.66
	2611	0.5224	-4.99930E-001	-7.86251E-009	0.00000E+000	-5.00000E-001	8.00223E-005	4	..........a	-327.66
	2612	0.5226	-5.09930E-001	-7.99152E-009	0.00000E+000	-5.10000E-001	8.00223E-005	4	..........a	-327.66
	2613	0.5228	-5.19830E-001	-8.11752E-009	0.00000E+000	-5.20000E-001	8.00223E-005	4	..........a	-327.66
	2614	0.523	-5.29831E-001	-8.24853E-009	0.00000E+000	-5.30000E-001	8.00223E-005	4	..........a	-327.66
	2615	0.5232	-5.39730E-001	-8.38253E-009	0.00000E+000	-5.40000E-001	8.00223E-005	4	..........a	-327.66
	2616	0.5234	-5.49931E-001	-8.52054E-009	0.00000E+000	-5.50000E-001	8.00223E-005	4	..........a	-327.66
	2617	0.5236	-5.59730E-001	-8.66455E-009	0.00000E+000	-5.60000E-001	8.00223E-005	4	..........a	-327.66
	2618	0.5238	-5.69930E-001	-8.80255E-009	0.00000E+000	-5.70000E-001	8.00223E-005	4	..........a	-327.66
	2619	0.524	-5.79731E-001	-8.94856E-009	0.00000E+000	-5.80000E-001	8.00223E-005	4	..........a	-327.66
	2620	0.5242	-5.89930E-001	-9.10056E-009	0.00000E+000	-5.90000E-001	8.00223E-005	4	..........a	-327.66
	2621	0.5244	-5.99730E-001	-9.25057E-009	0.00000E+000	-6.00000E-001	-4.19978E-004	4	..........a	-327.66
	2622	0.5246	-5.89930E-001	-9.26157E-009	0.00000E+000	-5.90000E-001	8.00223E-005	4	..........a	-327.66
	2623	0.5248	-5.79830E-001	-9.25957E-009	0.00000E+000	-5.80000E-001	-4.19978E-004	4	..........a	-327.66
	2624	0.525	-5.69830E-001	-9.23957E-009	0.00000E+000	-5.70000E-001	-2.19978E-004	4	..........a	-327.66
	2625	0.5252	-5.59830E-001	-9.20657E-009	0.00000E+000	-5.60000E-001	8.00223E-005	4	..........a	-327.66
	2626	0.5254	-5.49931E-001	-9.17256E-009	0.00000E+000	-5.50000E-001	8.00223E-005	4	..........a	-327.66
	2627	0.5256	-5.39630E-001	-9.12656E-009	0.00000E+000	-5.40000E-001	8.00223E-005	4	..........a	-327.66
	2628	0.5258	-5.29930E-001	-9.07956E-009	0.00000E+000	-5.30000E-001	8.00223E-005	4	..........a	-327.66
	2629	0.526	-5.19830E-001	-9.02856E-009	0.00000E+000	-5.20000E-001	8.00223E-005	4	..........a	-327.66
	2630	0.5262	-5.10130E-001	-8.96756E-009	0.00000E+000	-5.10000E-001	8.00223E-005	4	..........a	-327.66
	2631	0.5264	-4.99830E-001	-8.91256E-009	0.00000E+000	-5.00000E-001	8.00223E-005	4	..........a	-327.66
	2632	0.5266	-4.89830E-001	-8.85155E-009	0.00000E+000	-4.90000E-001	8.00223E-005	4	..........a	-327.66
	2633	0.5268	-4.79830E-001	-8.78755E-009	0.00000E+000	-4.80000E-001	8.00223E-005	4	..........a	-327.66
	2634	0.527	-4.69730E-001	-8.72255E-009	0.00000E+000	-4.70000E-001	8.00223E-005	4	..........a	-327.66
	2635	0.5272	-4.59930E-001	-8.65054E-009	0.00000E+000	-4.60000E-001	8.00223E-005	4	..........a	-327.66
	2636	0.5274	-4.49980E-001	-8.58054E-009	0.00000E+000	-4.50000E-001	8.00223E-005	4	..........a	-327.66
	2637	0.5276	-4.39830E-001	-8.51054E-009	0.00000E+000	-4.40000E-001	8.00223E-005	4	..........a	-327.66
	2638	0.5278	-4.29930E-001	-8.44054E-009	0.00000E+000	-4.30000E-001	8.00223E-005	4	..........a	-327.66
	2639	0.528	-4.20030E-001	-8.36653E-009	0.00000E+000	-4.20000E-001	8.00223E-005	4	..........a	-327.66
	2640	0.5282	-4.09830E-001	-8.29553E-009	0.00000E+000	-4.10000E-001	8.00223E-005	4	..........a	-327.66
	2641	0.5284	-3.99930E-001	-8.21953E-009	0.00000E+000	-4.00000E-001	8.00223E-005	4	..........a	-327.66
	2642	0.5286	-3.90030E-001	-8.14052E-009	0.00000E+000	-3.90000E-001	8.00223E-005	4	..........a	-327.66
	2643	0.5288	-3.79730E-001	-8.06252E-009	0.00000E+000	-3.80000E-001	8.00223E-005	4	..........a	-327.66
	2644	0.529	-3.70030E-001	-7.98652E-009	0.00000E+000	-3.70000E-001	8.00223E-005	4	..........a	-327.66
	2645	0.5292	-3.59930E-001	-7.90852E-009	0.00000E+000	-3.60000E-001	8.00223E-005	4	..........a	-327.66
	2646	0.5294	-3.49930E-001	-7.82851E-009	0.00000E+000	-3.50000E-001	8.00223E-005	4	..........a	-327.66
	2647	0.5296	-3.39730E-001	-7.74851E-009	0.00000E+000	-3.40000E-001	8.00223E-005	4	..........a	-327.66
	2648	0.5298	-3.29930E-001	-7.66551E-009	0.00000E+000	-3.30000E-001	8.00223E-005	4	..........a	-327.66
	2649	0.53	-3.19830E-001	-7.58650E-009	0.00000E+000	-3.20000E-001	8.00223E-005	4	..........a	-327.66
	2650	0.5302	-3.09930E-001	-7.50250E-009	0.00000E+000	-3.10000E-001	8.00223E-005	4	..........a	-327.66
	2651	0.5304	-2.99830E-001	-7.42250E-009	0.00000E+000	-3.00000E-001	8.00223E-005	4	..........a	-327.66
	2652	0.5306	-2.89830E-001	-7.33849E-009	0.00000E+000	-2.90000E-001	8.00223E-005	4	..........a	-327.66
	2653	0.5308	-2.79930E-001	-7.25449E-009	0.00000E+000	-2.80000E-001	8.00223E-005	4	..........a	-327.66
	2654	0.531	-2.69830E-001	-7.17049E-009	0.00000E+000	-2.70000E-001	8.00223E-005	4	..........a	-327.66
	2655	0.5312	-2.59630E-001	-7.08448E-009	0.00000E+000	-2.60000E-001	8.00223E-005	4	..........a	-327.66
	2656	0.5314	-2.49930E-001	-6.99748E-009	0.00000E+000	-2.50000E-001	-3.19978E-004	4	..........a	-327.66
	2657	0.5316	-2.39830E-001	-6.91548E-009	0.00000E+000	-2.40000E-001	8.00223E-005	4	..........a	-327.66
	2658	0.5318	-2.30030E-001	-6.83047E-009	0.00000E+000	-2.30000E-001	8.00223E-005	4	..........a	-327.66
	2659	0.532	-2.19930E-001	-6.74247E-009	0.00000E+000	-2.20000E-001	8.00223E-005	4	..........a	-327.66
	2660	0.5322	-2.09930E-001	-6.65647E-009	0.00000E+000	-2.10000E-001	8.00223E-005	4	..........a	-327.66
	2661	0.5324	-1.99830E-001	-6.56846E-009	0.00000E+000	-2.00000E-001	8.00223E-005	4	..........a	-327.66
	2662	0.5326	-1.90130E-001	-6.47646E-009	0.00000E+000	-1.90000E-001	8.00223E-005	4	..........a	-327.66
	2663	0.5328	-1.79930E-001	-6.39046E-009	0.00000E+000	-1.80000E-001	8.00223E-005	4	..........a	-327.66
	2664	0.533	-1.69930E-001	-6.30245E-009	0.00000E+000	-1.70000E-001	8.00223E-005	4	..........a	-327.66
	2665	0.5332	-1.59930E-001	-6.21545E-009	0.00000E+000	-1.60000E-001	8.00223E-005	4	..........a	-327.66
	2666	0.5334	-1.49930E-001	-6.12545E-009	0.00000E+000	-1.50000E-001	8.00223E-005	4	..........a	-327.66
	2667	0.5336	-1.39730E-001	-6.03444E-009	0.00000E+000	-1.40000E-001	8.00223E-005	4	..........a	-327.66
	2668	0.5338	-1.30030E-001	-5.94344E-009	0.00000E+000	-1.30000E-001	8.00223E-005	4	..........a	-327.66
	2669	0.534	-1.20230E-001	-5.85144E-009	0.00000E+000	-1.20000E-001	8.00223E-005	4	..........a	-327.66
	2670	0.5342	-1.09930E-001	-5.76143E-009	0.00000E+000	-1.10000E-001	8.00223E-005	4	..........a	-327.66
	2671	0.5344	-9.99305E-002	-5.67043E-009	0.00000E+000	-1.00000E-001	8.00223E-005	4	..........a	-327.66
	2672	0.5346	-8.99305E-002	-5.57343E-009	0.00000E+000	-9.00000E-002	8.00223E-005	4	..........a	-327.66
	2673	0.5348	-7.98305E-002	-5.47242E-009	0.00000E+000	-8.00000E-002	8.00223E-005	4	..........a	-327.66
	2674	0.535	-6.99305E-002	-5.38642E-009	0.00000E+000	-7.00000E-002	8.00223E-005	4	..........a	-327.66
	2675	0.5352	-5.99305E-002	-5.29342E-009	0.00000E+000	-6.00000E-002	8.00223E-005	4	..........a	-327.66
	2676	0.5354	-4.99305E-002	-5.19641E-009	0.00000E+000	-5.00000E-002	8.00223E-005	4	..........a	-327.66
	2677	0.5356	-3.99305E-002	-5.11041E-009	0.00000E+000	-4.00000E-002	8.00223E-005	4	..........a	-327.66
	2678	0.5358	-2.99305E-002	-5.01040E-009	0.00000E+000	-3.00000E-002	8.00223E-005	4	..........a	-327.66
	2679	0.536	-1.99305E-002	-4.91440E-009	0.00000E+000	-2.00000E-002	8.00223E-005	4	..........a	-327.66
	2680	0.5362	-9.93048E-003	-4.81440E-009	0.00000E+000	-1.00000E-002	8.00223E-005	4	..........a	-327.66
	2681	0.5364	-3.04808E-005	-4.71539E-009	0.00000E+000	7.45058E-009	8.00223E-005	4	..........a	-327.66
	2682	0.5366	1.00695E-002	-4.61339E-009	0.00000E+000	1.00000E-002	8.00223E-005	4	..........a	-327.66
	2683	0.5368	2.00695E-002	-4.51639E-009	0.00000E+000	2.00000E-002	8.00223E-005	4	..........a	-327.66
	2684	0.537	3.00695E-002	-4.41638E-009	0.00000E+000	3.00000E-002	8.00223E-005	4	..........a	-327.66
	2685	0.5372	3.98695E-002	-4.31438E-009	0.00000E+000	4.00000E-002	8.00223E-005	4	..........a	-327.66
	2686	0.5374	4.99695E-002	-4.20837E-009	0.00000E+000	5.00000E-002	8.00223E-005	4	..........a	-327.66
	2687	0.5376	6.00695E-002	-4.10237E-009	0.00000E+000	6.00000E-002	8.00223E-005	4	..........a	-327.66
	2688	0.5378	6.99695E-002	-3.99737E-009	0.00000E+000	7.00000E-002	8.00223E-005	4	..........a	-327.66
	2689	0.538	8.01695E-002	-3.88936E-009	0.00000E+000	8.00000E-002	8.00223E-005	4	..........a	-327.66
	2690	0.5382	9.00695E-002	-3.77636E-009	0.00000E+000	9.00000E-002	8.00223E-005	4	..........a	-327.66
	2691	0.5384	1.00170E-001	-3.66635E-009	0.00000E+000	1.00000E-001	8.00223E-005	4	..........a	-327.66
	2692	0.5386	1.10070E-001	-3.55235E-009	0.00000E+000	1.10000E-001	8.00223E-005	4	..........a	-327.66
	2693	0.5388	1.19870E-001	-3.43934E-009	0.00000E+000	1.20000E-001	8.00223E-005	4	..........a	-327.66
	2694	0.539	1.29970E-001	-3.32234E-009	0.00000E+000	1.30000E-001	8.00223E-005	4	..........a	-327.66
	2695	0.5392	1.40170E-001	-3.20034E-009	0.00000E+000	1.40000E-001	8.00223E-005	4	..........a	-327.66
	2696	0.5394	1.50070E-001	-3.07633E-009	0.00000E+000	1.50000E-001	-1.19978E-004	4	..........a	-327.66
	2697	0.5396	1.60070E-001	-2.95633E-009	0.00000E+000	1.60000E-001	8.00223E-005	4	..........a	-327.66
	2698	0.5398	1.69970E-001	-2.82632E-009	0.00000E+000	1.70000E-001	8.00223E-005	4	..........a	-327.66
	2699	0.54	1.80270E-001	-2.69432E-009	0.00000E+000	1.80000E-001	8.00223E-005	4	..........a	-327.66
	2700	0.5402	1.90070E-001	-2.56231E-009	0.00000E+000	1.90000E-001	8.00223E-005	4	..........a	-327.66
	2701	0.5404	2.00070E-001	-2.42431E-009	0.00000E+000	2.00000E-001	8.00223E-005	4	..........a	-327.66
	2702	0.5406	2.10070E-001	-2.28430E-009	0.00000E+000	2.10000E-001	8.00223E-005	4	..........a	-327.66
	2703	0.5408	2.20370E-001	-2.14229E-009	0.00000E+000	2.20000E-001	8.00223E-005	4	..........a	-327.66
	2704	0.541	2.29970E-001	-1.99529E-009	0.00000E+000	2.30000E-001	8.00223E-005	4	..........a	-327.66
	2705	0.5412	2.40070E-001	-1.84228E-009	0.00000E+000	2.40000E-001	8.00223E-005	4	..........a	-327.66
	2706	0.5414	2.49970E-001	-1.69328E-009	0.00000E+000	2.50000E-001	8.00223E-005	4	..........a	-327.66
	2707	0.5416	2.60070E-001	-1.53227E-009	0.00000E+000	2.60000E-001	8.00223E-005	4	..........a	-327.66
	2708	0.5418	2.69970E-001	-1.37027E-009	0.00000E+000	2.70000E-001	8.00223E-005	4	..........a	-327.66
	2709	0.542	2.79970E-001	-1.20326E-009	0.00000E+000	2.80000E-001	8.00223E-005	4	..........a	-327.66
	2710	0.5422	2.89970E-001	-1.03625E-009	0.00000E+000	2.90000E-001	8.00223E-005	4	..........a	-327.66
	2711	0.5424	3.00070E-001	-8.64246E-010	0.00000E+000	3.00000E-001	8.00223E-005	4	..........a	-327.66
	2712	0.5426	3.09970E-001	-6.90239E-010	0.00000E+000	3.10000E-001	8.00223E-005	4	..........a	-327.66
	2713	0.5428	3.19870E-001	-5.08232E-010	0.00000E+000	3.20000E-001	-3.19978E-004	4	..........a	-327.66
	2714	0.543	3.30070E-001	-3.26225E-010	0.00000E+000	3.30000E-001	8.00223E-005	4	..........a	-327.66
	2715	0.5432	3.40070E-001	-1.38218E-010	0.00000E+000	3.40000E-001	8.00223E-005	4	..........a	-327.66
	2716	0.5434	3.49970E-001	4.97895E-011	0.00000E+000	3.50000E-001	-2.19978E-004	4	..........a	-327.66
	2717	0.5436	3.59770E-001	2.43797E-010	0.00000E+000	3.60000E-001	8.00223E-005	4	..........a	-327.66
	2718	0.5438	3.69870E-001	4.41805E-010	0.00000E+000	3.70000E-001	-2.19978E-004	4	..........a	-327.66
	2719	0.544	3.80070E-001	6.38812E-010	0.00000E+000	3.80000E-001	8.00223E-005	4	..........a	-327.66
	2720	0.5442	3.90070E-001	8.41820E-010	0.00000E+000	3.90000E-001	8.00223E-005	4	..........a	-327.66
	2721	0.5444	3.99970E-001	1.04183E-009	0.00000E+000	4.00000E-001	8.00223E-005	4	..........a	-327.66
	2722	0.5446	4.09870E-001	1.25184E-009	0.00000E+000	4.10000E-001	8.00223E-005	4	..........a	-327.66
	2723	0.5448	4.20070E-001	1.46184E-009	0.00000E+000	4.20000E-001	8.00223E-005	4	..........a	-327.66
	2724	0.545	4.30070E-001	1.66885E-009	0.00000E+000	4.30000E-001	8.00223E-005	4	..........a	-327.66
	2725	0.5452	4.39970E-001	1.89086E-009	0.00000E+000	4.40000E-001	8.00223E-005	4	..........a	-327.66
	2726	0.5454	4.49670E-001	2.10187E-009	0.00000E+000	4.50000E-001	-3.19978E-004	4	..........a	-327.66
	2727	0.5456	4.60070E-001	2.32588E-009	0.00000E+000	4.60000E-001	8.00223E-005	4	..........a	-327.66
	2728	0.5458	4.69920E-001	2.54389E-009	0.00000E+000	4.70000E-001	-3.19978E-004	4	..........a	-327.66
	2729	0.546	4.79970E-001	2.76889E-009	0.00000E+000	4.80000E-001	-3.19978E-004	4	..........a	-327.66
	2730	0.5462	4.90070E-001	2.99290E-009	0.00000E+000	4.90000E-001	8.00223E-005	4	..........a	-327.66
	2731	0.5464	5.00219E-001	3.22091E-009	0.00000E+000	5.00000E-001	8.00223E-005	4	..........a	-327.66
	2732	0.5466	5.09870E-001	3.44692E-009	0.00000E+000	5.10000E-001	-4.19978E-004	4	..........a	-327.66
	2733	0.5468	5.19969E-001	3.67593E-009	0.00000E+000	5.20000E-001	8.00223E-005	4	..........a	-327.66
	2734	0.547	5.29869E-001	3.91194E-009	0.00000E+000	5.30000E-001	8.00223E-005	4	..........a	-327.66
	2735	0.5472	5.39970E-001	4.14095E-009	0.00000E+000	5.40000E-001	8.00223E-005	4	..........a	-327.66
	2736	0.5474	5.49869E-001	4.38096E-009	0.00000E+000	5.50000E-001	8.00223E-005	4	..........a	-327.66
	2737	0.5476	5.60070E-001	4.60996E-009	0.00000E+000	5.60000E-001	8.00223E-005	4	..........a	-327.66
	2738	0.5478	5.69820E-001	4.84897E-009	0.00000E+000	5.70000E-001	8.00223E-005	4	..........a	-327.66
	2739	0.548	5.79969E-001	5.08798E-009	0.00000E+000	5.80000E-001	8.00223E-005	4	..........a	-327.66
	2740	0.5482	5.89969E-001	5.32899E-009	0.00000E+000	5.90000E-001	8.00223E-005	4	..........a	-327.66
	2741	0.5484	5.99970E-001	5.56900E-009	0.00000E+000	6.00000E-001	8.00223E-005	4	..........a	-327.66
	2742	0.5486	6.09869E-001	5.81001E-009	0.00000E+000	6.10000E-001	8.00223E-005	4	..........a	-327.66
	2743	0.5488	6.19969E-001	6.05002E-009	0.00000E+000	6.20000E-001	8.00223E-005	4	..........a	-327.66
	2744	0.549	6.29969E-001	6.29503E-009	0.00000E+000	6.30000E-001	8.00223E-005	4	..........a	-327.66
	2745	0.5492	6.39669E-001	6.53704E-009	0.00000E+000	6.40000E-001	8.00223E-005	4	..........a	-327.66
	2746	0.5494	6.49769E-001	6.78505E-009	0.00000E+000	6.50000E-001	8.00223E-005	4	..........a	-327.66
	2747	0.5496	6.59869E-001	7.02606E-009	0.00000E+000	6.60000E-001	8.00223E-005	4	..........a	-327.66
	2748	0.5498	6.69869E-001	7.27207E-009	0.00000E+000	6.70000E-001	8.00223E-005	4	..........a	-327.66
	2749	0.55	6.79869E-001	7.52308E-009	0.00000E+000	6.80000E-001	8.00223E-005	4	..........a	-327.66
	2750	0.5502	6.89869E-001	7.77109E-009	0.00000E+000	6.90000E-001	8.00223E-005	4	..........a	-327.66
	2751	0.5504	6.99869E-001	8.03010E-009	0.00000E+000	7.00000E-001	-2.19978E-004	4	..........a	-327.66
	2752	0.5506	7.09870E-001	8.28311E-009	0.00000E+000	7.10000E-001	8.00223E-005	4	..........a	-327.66
	2753	0.5508	7.19869E-001	8.53912E-009	0.00000E+000	7.20000E-001	8.00223E-005	4	..........a	-327.66
	2754	0.551	7.29869E-001	8.79413E-009	0.00000E+000	7.30000E-001	8.00223E-005	4	..........a	-327.66
	2755	0.5512	7.39969E-001	9.05714E-009	0.00000E+000	7.40000E-001	8.00223E-005	4	..........a	-327.66
	2756	0.5514	7.49869E-001	9.32015E-009	0.00000E+000	7.50000E-001	8.00223E-005	4	..........a	-327.66
	2757	0.5516	7.59969E-001	9.58416E-009	0.00000E+000	7.60000E-001	-2.19978E-004	4	..........a	-327.66
	2758	0.5518	7.70069E-001	9.85017E-009	0.00000E+000	7.70000E-001	8.00223E-005	4	..........a	-327.66
	2759	0.552	7.79769E-001	1.01232E-008	0.00000E+000	7.80000E-001	8.00223E-005	4	..........a	-327.66
	2760	0.5522	7.89970E-001	1.03972E-008	0.00000E+000	7.90000E-001	8.00223E-005	4	..........a	-327.66
	2761	0.5524	7.99819E-001	1.06762E-008	0.00000E+000	8.00000E-001	8.00223E-005	4	..........a	-327.66
CURVE11	TABLE
	Pt	T	Vf	Im	Vu	Sig	Ach	IERange	Over	Temp
	#	s	V vs. Ref.	A	V	V	V	#	bits	deg C
	2762	0.5526	7.90069E-001	1.08022E-008	0.00000E+000	7.90000E-001	8.00223E-005	4	..........a	-327.66
	2763	0.5528	7.79769E-001	1.08822E-008	0.00000E+000	7.80000E-001	8.00223E-005	4	..........a	-327.66
	2764	0.553	7.69669E-001	1.09262E-008	0.00000E+000	7.70000E-001	8.00223E-005	4	..........a	-327.66
	2765	0.5532	7.59869E-001	1.09472E-008	0.00000E+000	7.60000E-001	8.00223E-005	4	..........a	-327.66
	2766	0.5534	7.49969E-001	1.09512E-008	0.00000E+000	7.50000E-001	8.00223E-005	4	..........a	-327.66
	2767	0.5536	7.39969E-001	1.09372E-008	0.00000E+000	7.40000E-001	8.00223E-005	4	..........a	-327.66
	2768	0.5538	7.29869E-001	1.09122E-008	0.00000E+000	7.30000E-001	8.00223E-005	4	..........a	-327.66
	2769	0.554	7.19969E-001	1.08692E-008	0.00000E+000	7.20000E-001	8.00223E-005	4	..........a	-327.66
	2770	0.5542	7.10019E-001	1.08192E-008	0.00000E+000	7.10000E-001	8.00223E-005	4	..........a	-327.66
	2771	0.5544	6.99869E-001	1.07662E-008	0.00000E+000	7.00000E-001	8.00223E-005	4	..........a	-327.66
	2772	0.5546	6.89869E-001	1.07042E-008	0.00000E+000	6.90000E-001	-2.19978E-004	4	..........a	-327.66
	2773	0.5548	6.80070E-001	1.06382E-008	0.00000E+000	6.80000E-001	8.00223E-005	4	..........a	-327.66
	2774	0.555	6.69869E-001	1.05692E-008	0.00000E+000	6.70000E-001	8.00223E-005	4	..........a	-327.66
	2775	0.5552	6.59819E-001	1.04912E-008	0.00000E+000	6.60000E-001	8.00223E-005	4	..........a	-327.66
	2776	0.5554	6.49969E-001	1.04062E-008	0.00000E+000	6.50000E-001	8.00223E-005	4	..........a	-327.66
	2777	0.5556	6.39669E-001	1.03222E-008	0.00000E+000	6.40000E-001	8.00223E-005	4	..........a	-327.66
	2778	0.5558	6.29969E-001	1.02362E-008	0.00000E+000	6.30000E-001	8.00223E-005	4	..........a	-327.66
	2779	0.556	6.19769E-001	1.01422E-008	0.00000E+000	6.20000E-001	-3.19978E-004	4	..........a	-327.66
	2780	0.5562	6.09969E-001	1.00472E-008	0.00000E+000	6.10000E-001	-4.19978E-004	4	..........a	-327.66
	2781	0.5564	5.99970E-001	9.94817E-009	0.00000E+000	6.00000E-001	8.00223E-005	4	..........a	-327.66
	2782	0.5566	5.89969E-001	9.84917E-009	0.00000E+000	5.90000E-001	8.00223E-005	4	..........a	-327.66
	2783	0.5568	5.79870E-001	9.74916E-009	0.00000E+000	5.80000E-001	8.00223E-005	4	..........a	-327.66
	2784	0.557	5.69869E-001	9.64116E-009	0.00000E+000	5.70000E-001	8.00223E-005	4	..........a	-327.66
	2785	0.5572	5.59869E-001	9.53215E-009	0.00000E+000	5.60000E-001	8.00223E-005	4	..........a	-327.66
	2786	0.5574	5.50070E-001	9.41815E-009	0.00000E+000	5.50000E-001	8.00223E-005	4	..........a	-327.66
	2787	0.5576	5.40069E-001	9.30415E-009	0.00000E+000	5.40000E-001	8.00223E-005	4	..........a	-327.66
	2788	0.5578	5.29869E-001	9.18714E-009	0.00000E+000	5.30000E-001	8.00223E-005	4	..........a	-327.66
	2789	0.558	5.19969E-001	9.06514E-009	0.00000E+000	5.20000E-001	8.00223E-005	4	..........a	-327.66
	2790	0.5582	5.09820E-001	8.94213E-009	0.00000E+000	5.10000E-001	8.00223E-005	4	..........a	-327.66
	2791	0.5584	5.00170E-001	8.81413E-009	0.00000E+000	5.00000E-001	8.00223E-005	4	..........a	-327.66
	2792	0.5586	4.89870E-001	8.69212E-009	0.00000E+000	4.90000E-001	8.00223E-005	4	..........a	-327.66
	2793	0.5588	4.79870E-001	8.56112E-009	0.00000E+000	4.80000E-001	8.00223E-005	4	..........a	-327.66
	2794	0.559	4.69870E-001	8.42611E-009	0.00000E+000	4.70000E-001	8.00223E-005	4	..........a	-327.66
	2795	0.5592	4.60070E-001	8.28911E-009	0.00000E+000	4.60000E-001	8.00223E-005	4	..........a	-327.66
	2796	0.5594	4.49970E-001	8.14510E-009	0.00000E+000	4.50000E-001	8.00223E-005	4	..........a	-327.66
	2797	0.5596	4.39870E-001	8.00410E-009	0.00000E+000	4.40000E-001	-3.19978E-004	4	..........a	-327.66
	2798	0.5598	4.29970E-001	7.85409E-009	0.00000E+000	4.30000E-001	8.00223E-005	4	..........a	-327.66
	2799	0.56	4.20070E-001	7.70208E-009	0.00000E+000	4.20000E-001	8.00223E-005	4	..........a	-327.66
	2800	0.5602	4.09770E-001	7.55008E-009	0.00000E+000	4.10000E-001	8.00223E-005	4	..........a	-327.66