File: example_project/raw_outputs/20240321_ZZG_GM0016_HL03_E15_CV50.DTA
EXPLAIN
TAG	CV
TITLE	LABEL	Cyclic Voltammetry	Test &Identifier
DATE	LABEL	3/21/2024	Date
TIME	LABEL	19:50:03	Time
NOTES	NOTES	1	&Notes...

PSTAT	PSTAT	REF600P-43058	Potentiostat
VINIT	POTEN	0.00000E+000	T	Initial &E (V)
VLIMIT1	POTEN	-6.00000E-001	F	Scan Limit &1 (V)
VLIMIT2	POTEN	8.00000E-001	F	Scan Limit &2 (V)
VFINAL	POTEN	0.00000E+000	T	Final &E (V)
SCANRATE	QUANT	4.99999E+001	&Scan Rate (mV/s)
STEPSIZE	QUANT	1.00000E+001	St&ep Size (mV)
CYCLES	IQUANT	4	C&ycles (#)
IMODE	SELECTOR	1	I/E Range &Mode
IRANGE	QUANT	1.00000E-005	&Max Current (mA)
AREA	QUANT	1.00000E+000	Electrode &Area (cm^2)
ELECTRODETYPE	SELECTOR	0	Electrode Type
STRIPPING	TOGGLE	F	Used for Stripping
POLARITY	TOGGLE	F	Signal Polarity
CONDIT	TWOPARAM	F	1.50000E+001	0.00000E+000	Conditionin&g	Time(s)	E(V)
DELAY	TWOPARAM	T	1.00000E+001	0.00000E+000	Init. De&lay	Time(s)	Stab.(mV/s)
EQDELAY	QUANT	1.00000E+001	Equil. &Time (s)
IRCOMP	SELECTOR	0	IRCom&p
PFCOR	QUANT	5.00000E+001	PF Corr. (ohm)
SAMPLINGMODE	SELECTOR	1	Sampling &Mode
OCVCURVE	TABLE	39
	Pt	T	Vf	Vm	Ach	Over	Temp
	#	s	V vs. Ref.	V	V	bits	deg C
	0	0.258333	1.75018E-001	1.75018E-001	2.59156E-004	..........a	-327.66
	1	0.516667	1.75029E-001	1.75623E-001	2.67356E-004	..........a	-327.66
	2	0.775	1.75103E-001	1.76316E-001	2.79556E-004	..........a	-327.66
	3	1.03333	1.75319E-001	1.77074E-001	2.74689E-004	..........a	-327.66
	4	1.29167	1.75730E-001	1.77844E-001	2.68356E-004	..........a	-327.66
	5	1.55	1.76317E-001	1.78631E-001	2.74156E-004	..........a	-327.66
	6	1.80833	1.77019E-001	1.79430E-001	2.73489E-004	..........a	-327.66
	7	2.06667	1.77781E-001	1.80237E-001	2.51889E-004	..........a	-327.66
	8	2.325	1.78570E-001	1.81050E-001	2.60156E-004	..........a	-327.66
	9	2.58333	1.79370E-001	1.81857E-001	2.74489E-004	..........a	-327.66
	10	2.84167	1.80176E-001	1.82664E-001	2.76822E-004	..........a	-327.66
	11	3.1	1.80984E-001	1.83465E-001	2.63022E-004	..........a	-327.66
	12	3.35833	1.81792E-001	1.84262E-001	2.82022E-004	..........a	-327.66
	13	3.61667	1.82597E-001	1.85058E-001	2.73356E-004	..........a	-327.66
	14	3.875	1.83400E-001	1.85852E-001	2.87956E-004	..........a	-327.66
	15	4.13333	1.84199E-001	1.86647E-001	2.82956E-004	..........a	-327.66
	16	4.39167	1.84995E-001	1.87429E-001	2.89156E-004	..........a	-327.66
	17	4.65	1.85789E-001	1.88203E-001	2.64956E-004	..........a	-327.66
	18	4.90833	1.86578E-001	1.88985E-001	2.77622E-004	..........a	-327.66
	19	5.16667	1.87363E-001	1.89754E-001	2.69489E-004	..........a	-327.66
	20	5.425	1.88144E-001	1.90527E-001	2.59822E-004	..........a	-327.66
	21	5.68333	1.88920E-001	1.91297E-001	2.71556E-004	..........a	-327.66
	22	5.94167	1.89694E-001	1.92056E-001	2.84489E-004	..........a	-327.66
	23	6.2	1.90465E-001	1.92811E-001	2.74222E-004	..........a	-327.66
	24	6.45833	1.91231E-001	1.93562E-001	2.47089E-004	..........a	-327.66
	25	6.71667	1.91993E-001	1.94304E-001	2.65756E-004	..........a	-327.66
	26	6.975	1.92749E-001	1.95044E-001	2.66556E-004	..........a	-327.66
	27	7.23333	1.93499E-001	1.95785E-001	2.68356E-004	..........a	-327.66
	28	7.49167	1.94244E-001	1.96506E-001	2.62489E-004	..........a	-327.66
	29	7.75	1.94985E-001	1.97239E-001	2.68422E-004	..........a	-327.66
	30	8.00833	1.95720E-001	1.97956E-001	2.59556E-004	..........a	-327.66
	31	8.26667	1.96451E-001	1.98672E-001	2.54556E-004	..........a	-327.66
	32	8.525	1.97176E-001	1.99385E-001	2.77956E-004	..........a	-327.66
	33	8.78333	1.97898E-001	2.00102E-001	2.56556E-004	..........a	-327.66
	34	9.04167	1.98615E-001	2.00810E-001	2.66089E-004	..........a	-327.66
	35	9.3	1.99330E-001	2.01508E-001	2.72756E-004	..........a	-327.66
	36	9.5583	2.00042E-001	2.02208E-001	2.60756E-004	..........a	-327.66
	37	9.8167	2.00749E-001	2.02900E-001	2.60556E-004	..........a	-327.66
	38	10.075	2.01452E-001	2.03594E-001	2.68422E-004	..........a	-327.66
EOC	QUANT	0.2014519	Open Circuit (V)
PSTATMODEL	IQUANT	7	Pstat Model
PSTATSECTION	LABEL	REF600P-43058	Pstat Section
PSTATSERIALNO	LABEL	43058	Pstat Serial Number
CTRLMODE	IQUANT	1	Control Mode
ELECTROMETER	IQUANT	0	RE=0 or CS=1
IESTAB	IQUANT	2	I/E Stability
CASPEED	IQUANT	4	Control Amp Speed
CONVENTION	IQUANT	1	Current Convention
ICHRANGE	IQUANT	2	Ich Range
ICHRANGEMODE	TOGGLE	F	Ich Auto Range
ICHOFFSETENABLE	TOGGLE	F	Ich Offset Enable
ICHOFFSET	QUANT	0	Ich Offset (V)
ICHFILTER	IQUANT	2	Ich Filter
VCHRANGE	IQUANT	2	Vch Range
VCHRANGEMODE	TOGGLE	F	Vch Auto Range
VCHOFFSETENABLE	TOGGLE	F	Vch Offset Enable
VCHOFFSET	QUANT	0	Vch Offset (V)
VCHFILTER	IQUANT	2	Vch Filter
ACHRANGE	IQUANT	2	Ach Range
ACHOFFSETENABLE	TOGGLE	F	Ach Offset Enable
ACHOFFSET	QUANT	0	Ach Offset (V)
ACHFILTER	IQUANT	1	Ach Filter
IERANGELOWERLIMIT	IQUANT	1	I/E Range Lower Limit
IERANGEMODE	TOGGLE	F	I/E AutoRange
IERANGE	IQUANT	4	I/E Range
POSFEEDENABLE	TOGGLE	F	Positive Feedback IR Comp
POSFEEDRESISTANCE	QUANT	0	Positive Feedback Resistance (ohm)
ACHSELECT	IQUANT	4	Ach Select
SENSECABLEID	IQUANT	7	Sense Cable ID
PWRCABLEID	IQUANT	7	Power Cable ID
DCCALDATE	LABEL	12/18/2023	DC Calibration Date
ACCALDATE	LABEL	12/18/2023	AC Calibration Date
THERMOSELECT	IQUANT	1	Thermo Select
FRAMEWORKVERSION	LABEL	7.8.4	Framework Version
INSTRUMENTVERSION	LABEL	4.42	Instrument Version
CURVE1	TABLE
	Pt	T	Vf	Im	Vu	Sig	Ach	IERange	Over	Temp
	#	s	V vs. Ref.	A	V	V	V	#	bits	deg C
	0	0.2	2.01469E-001	1.72525E-011	0.00000E+000	2.01450E-001	1.04572E-003	4	..........a	-327.66
	1	0.4	1.91461E-001	-7.44549E-012	0.00000E+000	1.91450E-001	1.00662E-003	4	..........a	-327.66
	2	0.6	1.81591E-001	-2.25921E-011	0.00000E+000	1.81450E-001	1.02812E-003	4	..........a	-327.66
	3	0.8	1.71447E-001	-3.42235E-011	0.00000E+000	1.71450E-001	1.00912E-003	4	..........a	-327.66
	4	1	1.61482E-001	-3.89267E-011	0.00000E+000	1.61450E-001	1.02562E-003	4	..........a	-327.66
	5	1.2	1.51453E-001	-4.50699E-011	0.00000E+000	1.51450E-001	1.02692E-003	4	..........a	-327.66
	6	1.4	1.41579E-001	-5.14212E-011	0.00000E+000	1.41450E-001	1.00542E-003	4	..........a	-327.66
	7	1.6	1.31501E-001	-5.55893E-011	0.00000E+000	1.31450E-001	1.02642E-003	4	..........a	-327.66
	8	1.8	1.21495E-001	-6.04875E-011	0.00000E+000	1.21450E-001	1.00962E-003	4	..........a	-327.66
	9	2	1.11484E-001	-6.73518E-011	0.00000E+000	1.11450E-001	9.81122E-004	4	..........a	-327.66
	10	2.2	1.01570E-001	-6.88208E-011	0.00000E+000	1.01450E-001	1.01282E-003	4	..........a	-327.66
	11	2.4	9.14443E-002	-7.40060E-011	0.00000E+000	9.14500E-002	9.86922E-004	4	..........a	-327.66
	12	2.6	8.14290E-002	-7.82352E-011	0.00000E+000	8.14500E-002	1.03662E-003	4	..........a	-327.66
	13	2.8	7.14620E-002	-8.30654E-011	0.00000E+000	7.14500E-002	1.02012E-003	4	..........a	-327.66
	14	3	6.15398E-002	-8.68845E-011	0.00000E+000	6.14500E-002	9.96622E-004	4	..........a	-327.66
	15	3.2	5.14562E-002	-9.07457E-011	0.00000E+000	5.14500E-002	1.01822E-003	4	..........a	-327.66
	16	3.4	4.15250E-002	-9.69549E-011	0.00000E+000	4.14500E-002	1.02112E-003	4	..........a	-327.66
	17	3.6	3.14813E-002	-1.00166E-010	0.00000E+000	3.14500E-002	1.00612E-003	4	..........a	-327.66
	18	3.8	2.15748E-002	-1.02933E-010	0.00000E+000	2.14500E-002	1.00662E-003	4	..........a	-327.66
	19	4	1.14709E-002	-1.05897E-010	0.00000E+000	1.14500E-002	1.05692E-003	4	..........a	-327.66
	20	4.2	1.48804E-003	-1.10829E-010	0.00000E+000	1.45000E-003	1.03332E-003	4	..........a	-327.66
	21	4.4	-8.56411E-003	-1.14892E-010	0.00000E+000	-8.55000E-003	1.01182E-003	4	..........a	-327.66
	22	4.6	-1.84808E-002	-1.18686E-010	0.00000E+000	-1.85500E-002	1.02542E-003	4	..........a	-327.66
	23	4.8	-2.85484E-002	-1.22055E-010	0.00000E+000	-2.85500E-002	1.01252E-003	4	..........a	-327.66
	24	5	-3.85720E-002	-1.27761E-010	0.00000E+000	-3.85500E-002	1.01502E-003	4	..........a	-327.66
	25	5.2	-4.85534E-002	-1.32901E-010	0.00000E+000	-4.85500E-002	1.04672E-003	4	..........a	-327.66
	26	5.4	-5.84344E-002	-1.36025E-010	0.00000E+000	-5.85500E-002	1.01352E-003	4	..........a	-327.66
	27	5.6	-6.85580E-002	-1.41304E-010	0.00000E+000	-6.85500E-002	1.03872E-003	4	..........a	-327.66
	28	5.8	-7.85116E-002	-1.46816E-010	0.00000E+000	-7.85500E-002	1.02652E-003	4	..........a	-327.66
	29	6	-8.85364E-002	-1.51171E-010	0.00000E+000	-8.85500E-002	9.97722E-004	4	..........a	-327.66
	30	6.2	-9.84384E-002	-1.56704E-010	0.00000E+000	-9.85500E-002	1.03182E-003	4	..........a	-327.66
	31	6.4	-1.08582E-001	-1.63215E-010	0.00000E+000	-1.08550E-001	1.00012E-003	4	..........a	-327.66
	32	6.6	-1.18548E-001	-1.67963E-010	0.00000E+000	-1.18550E-001	1.03022E-003	4	..........a	-327.66
	33	6.8	-1.28592E-001	-1.74337E-010	0.00000E+000	-1.28550E-001	1.03642E-003	4	..........a	-327.66
	34	7	-1.38409E-001	-1.80686E-010	0.00000E+000	-1.38550E-001	1.03072E-003	4	..........a	-327.66
	35	7.2	-1.48557E-001	-1.86932E-010	0.00000E+000	-1.48550E-001	1.02702E-003	4	..........a	-327.66
	36	7.4	-1.58582E-001	-1.93846E-010	0.00000E+000	-1.58550E-001	1.02692E-003	4	..........a	-327.66
	37	7.6	-1.68541E-001	-2.00399E-010	0.00000E+000	-1.68550E-001	1.00712E-003	4	..........a	-327.66
	38	7.8	-1.78510E-001	-2.06735E-010	0.00000E+000	-1.78550E-001	1.01282E-003	4	..........a	-327.66
	39	8	-1.88537E-001	-2.14119E-010	0.00000E+000	-1.88550E-001	1.02602E-003	4	..........a	-327.66
	40	8.2	-1.98534E-001	-2.21473E-010	0.00000E+000	-1.98550E-001	1.05342E-003	4	..........a	-327.66
	41	8.4	-2.08520E-001	-2.28607E-010	0.00000E+000	-2.08550E-001	1.02692E-003	4	..........a	-327.66
	42	8.6	-2.18475E-001	-2.35269E-010	0.00000E+000	-2.18550E-001	1.04702E-003	4	..........a	-327.66
	43	8.8	-2.28539E-001	-2.43368E-010	0.00000E+000	-2.28550E-001	9.98022E-004	4	..........a	-327.66
	44	9	-2.38531E-001	-2.50813E-010	0.00000E+000	-2.38550E-001	1.01262E-003	4	..........a	-327.66
	45	9.2	-2.48532E-001	-2.60238E-010	0.00000E+000	-2.48550E-001	1.04152E-003	4	..........a	-327.66
	46	9.4	-2.58422E-001	-2.66213E-010	0.00000E+000	-2.58550E-001	1.04292E-003	4	..........a	-327.66
	47	9.6	-2.68501E-001	-2.76725E-010	0.00000E+000	-2.68550E-001	9.89622E-004	4	..........a	-327.66
	48	9.8	-2.78470E-001	-2.90653E-010	0.00000E+000	-2.78550E-001	1.00452E-003	4	..........a	-327.66
	49	10	-2.88546E-001	-2.92962E-010	0.00000E+000	-2.88550E-001	1.04492E-003	4	..........a	-327.66
	50	10.2	-2.98463E-001	-3.00903E-010	0.00000E+000	-2.98550E-001	1.04252E-003	4	..........a	-327.66
	51	10.4	-3.08529E-001	-3.10480E-010	0.00000E+000	-3.08550E-001	1.01012E-003	4	..........a	-327.66
	52	10.6	-3.18378E-001	-3.19377E-010	0.00000E+000	-3.18550E-001	1.01572E-003	4	..........a	-327.66
	53	10.8	-3.28532E-001	-3.27277E-010	0.00000E+000	-3.28550E-001	1.00932E-003	4	..........a	-327.66
	54	11	-3.38425E-001	-3.38798E-010	0.00000E+000	-3.38550E-001	1.01842E-003	4	..........a	-327.66
	55	11.2	-3.48532E-001	-3.48287E-010	0.00000E+000	-3.48550E-001	1.02892E-003	4	..........a	-327.66
	56	11.4	-3.58424E-001	-3.52487E-010	0.00000E+000	-3.58550E-001	1.02062E-003	4	..........a	-327.66
	57	11.6	-3.68534E-001	-3.69172E-010	0.00000E+000	-3.68550E-001	1.01522E-003	4	..........a	-327.66
	58	11.8	-3.78452E-001	-3.79660E-010	0.00000E+000	-3.78550E-001	1.01002E-003	4	..........a	-327.66
	59	12	-3.88529E-001	-3.90237E-010	0.00000E+000	-3.88550E-001	1.02342E-003	4	..........a	-327.66
	60	12.2	-3.98469E-001	-4.03572E-010	0.00000E+000	-3.98550E-001	1.00312E-003	4	..........a	-327.66
	61	12.4	-4.08523E-001	-4.17140E-010	0.00000E+000	-4.08550E-001	1.00452E-003	4	..........a	-327.66
	62	12.6	-4.18374E-001	-4.26523E-010	0.00000E+000	-4.18550E-001	1.03402E-003	4	..........a	-327.66
	63	12.8	-4.28481E-001	-4.42115E-010	0.00000E+000	-4.28550E-001	1.01662E-003	4	..........a	-327.66
	64	13	-4.38440E-001	-4.53716E-010	0.00000E+000	-4.38550E-001	1.00232E-003	4	..........a	-327.66
	65	13.2	-4.48512E-001	-4.65395E-010	0.00000E+000	-4.48550E-001	1.00832E-003	4	..........a	-327.66
	66	13.4	-4.58432E-001	-4.79264E-010	0.00000E+000	-4.58550E-001	1.00542E-003	4	..........a	-327.66
	67	13.6	-4.68538E-001	-4.93540E-010	0.00000E+000	-4.68550E-001	1.03552E-003	4	..........a	-327.66
	68	13.8	-4.78430E-001	-5.08166E-010	0.00000E+000	-4.78550E-001	1.04462E-003	4	..........a	-327.66
	69	14	-4.88509E-001	-5.22988E-010	0.00000E+000	-4.88550E-001	1.05022E-003	4	..........a	-327.66
	70	14.2	-4.98397E-001	-5.42435E-010	0.00000E+000	-4.98550E-001	1.01282E-003	4	..........a	-327.66
	71	14.4	-5.08517E-001	-5.56886E-010	0.00000E+000	-5.08550E-001	1.03972E-003	4	..........a	-327.66
	72	14.6	-5.18468E-001	-5.76065E-010	0.00000E+000	-5.18550E-001	1.02232E-003	4	..........a	-327.66
	73	14.8	-5.28510E-001	-5.92792E-010	0.00000E+000	-5.28550E-001	1.05402E-003	4	..........a	-327.66
	74	15	-5.38410E-001	-6.12760E-010	0.00000E+000	-5.38550E-001	1.01952E-003	4	..........a	-327.66
	75	15.2	-5.48523E-001	-6.35222E-010	0.00000E+000	-5.48550E-001	9.96022E-004	4	..........a	-327.66
	76	15.4	-5.58496E-001	-6.57599E-010	0.00000E+000	-5.58550E-001	1.01612E-003	4	..........a	-327.66
	77	15.6	-5.68507E-001	-6.81544E-010	0.00000E+000	-5.68550E-001	9.84022E-004	4	..........a	-327.66
	78	15.8	-5.78425E-001	-7.08514E-010	0.00000E+000	-5.78550E-001	1.02642E-003	4	..........a	-327.66
	79	16	-5.88492E-001	-7.36357E-010	0.00000E+000	-5.88550E-001	9.94922E-004	4	..........a	-327.66
	80	16.2	-5.98534E-001	-7.67671E-010	0.00000E+000	-5.98550E-001	1.01172E-003	4	..........a	-327.66
	81	16.4	-5.88567E-001	-5.91687E-010	0.00000E+000	-5.88550E-001	1.02132E-003	4	..........a	-327.66
	82	16.6	-5.78480E-001	-4.76854E-010	0.00000E+000	-5.78550E-001	1.04042E-003	4	..........a	-327.66
	83	16.8	-5.68507E-001	-3.88572E-010	0.00000E+000	-5.68550E-001	1.03552E-003	4	..........a	-327.66
	84	17	-5.58475E-001	-3.23072E-010	0.00000E+000	-5.58550E-001	1.01682E-003	4	..........a	-327.66
	85	17.2	-5.48530E-001	-2.64167E-010	0.00000E+000	-5.48550E-001	9.86122E-004	4	..........a	-327.66
	86	17.4	-5.38405E-001	-2.16365E-010	0.00000E+000	-5.38550E-001	1.00602E-003	4	..........a	-327.66
	87	17.6	-5.28513E-001	-1.76400E-010	0.00000E+000	-5.28550E-001	1.02272E-003	4	..........a	-327.66
	88	17.8	-5.18531E-001	-1.42568E-010	0.00000E+000	-5.18550E-001	1.03412E-003	4	..........a	-327.66
	89	18	-5.08506E-001	-1.13140E-010	0.00000E+000	-5.08550E-001	1.02112E-003	4	..........a	-327.66
	90	18.2	-4.98393E-001	-8.65785E-011	0.00000E+000	-4.98550E-001	1.01852E-003	4	..........a	-327.66
	91	18.4	-4.88490E-001	-6.48807E-011	0.00000E+000	-4.88550E-001	1.03132E-003	4	..........a	-327.66
	92	18.6	-4.78443E-001	-4.41429E-011	0.00000E+000	-4.78550E-001	1.01772E-003	4	..........a	-327.66
	93	18.8	-4.68462E-001	-2.73563E-011	0.00000E+000	-4.68550E-001	9.93222E-004	4	..........a	-327.66
	94	19	-4.58425E-001	-8.92954E-012	0.00000E+000	-4.58550E-001	9.92022E-004	4	..........a	-327.66
	95	19.2	-4.48509E-001	5.82902E-012	0.00000E+000	-4.48550E-001	9.95822E-004	4	..........a	-327.66
	96	19.4	-4.38465E-001	1.90885E-011	0.00000E+000	-4.38550E-001	1.01602E-003	4	..........a	-327.66
	97	19.6	-4.28494E-001	3.03600E-011	0.00000E+000	-4.28550E-001	1.02232E-003	4	..........a	-327.66
	98	19.8	-4.18386E-001	4.28354E-011	0.00000E+000	-4.18550E-001	1.03232E-003	4	..........a	-327.66
	99	20	-4.08531E-001	5.29938E-011	0.00000E+000	-4.08550E-001	9.93522E-004	4	..........a	-327.66
	100	20.2	-3.98511E-001	6.24092E-011	0.00000E+000	-3.98550E-001	1.00352E-003	4	..........a	-327.66
	101	20.4	-3.88500E-001	7.18846E-011	0.00000E+000	-3.88550E-001	1.01152E-003	4	..........a	-327.66
	102	20.6	-3.78438E-001	8.05469E-011	0.00000E+000	-3.78550E-001	1.00552E-003	4	..........a	-327.66
	103	20.8	-3.68506E-001	8.90522E-011	0.00000E+000	-3.68550E-001	9.98322E-004	4	..........a	-327.66
	104	21	-3.58480E-001	9.34414E-011	0.00000E+000	-3.58550E-001	1.02552E-003	4	..........a	-327.66
	105	21.2	-3.48499E-001	1.00696E-010	0.00000E+000	-3.48550E-001	1.01302E-003	4	..........a	-327.66
	106	21.4	-3.38436E-001	1.08657E-010	0.00000E+000	-3.38550E-001	1.00442E-003	4	..........a	-327.66
	107	21.6	-3.28560E-001	1.16790E-010	0.00000E+000	-3.28550E-001	1.01632E-003	4	..........a	-327.66
	108	21.8	-3.18564E-001	1.20636E-010	0.00000E+000	-3.18550E-001	1.03352E-003	4	..........a	-327.66
	109	22	-3.08581E-001	1.27720E-010	0.00000E+000	-3.08550E-001	9.96722E-004	4	..........a	-327.66
	110	22.2	-2.98444E-001	1.30567E-010	0.00000E+000	-2.98550E-001	1.01952E-003	4	..........a	-327.66
	111	22.4	-2.88523E-001	1.34377E-010	0.00000E+000	-2.88550E-001	9.84422E-004	4	..........a	-327.66
	112	22.6	-2.78486E-001	1.37899E-010	0.00000E+000	-2.78550E-001	1.01802E-003	4	..........a	-327.66
	113	22.8	-2.68506E-001	1.42610E-010	0.00000E+000	-2.68550E-001	1.00262E-003	4	..........a	-327.66
	114	23	-2.58426E-001	1.45286E-010	0.00000E+000	-2.58550E-001	1.00262E-003	4	..........a	-327.66
	115	23.2	-2.48559E-001	1.52387E-010	0.00000E+000	-2.48550E-001	1.03212E-003	4	..........a	-327.66
	116	23.4	-2.38486E-001	1.51327E-010	0.00000E+000	-2.38550E-001	9.94122E-004	4	..........a	-327.66
	117	23.6	-2.28525E-001	1.53251E-010	0.00000E+000	-2.28550E-001	1.04142E-003	4	..........a	-327.66
	118	23.8	-2.18516E-001	1.59949E-010	0.00000E+000	-2.18550E-001	1.01932E-003	4	..........a	-327.66
	119	24	-2.08579E-001	1.59910E-010	0.00000E+000	-2.08550E-001	1.01652E-003	4	..........a	-327.66
	120	24.2	-1.98564E-001	1.56146E-010	0.00000E+000	-1.98550E-001	9.98822E-004	4	..........a	-327.66
	121	24.4	-1.88558E-001	1.58657E-010	0.00000E+000	-1.88550E-001	1.02862E-003	4	..........a	-327.66
	122	24.6	-1.78445E-001	1.62797E-010	0.00000E+000	-1.78550E-001	1.03452E-003	4	..........a	-327.66
	123	24.8	-1.68559E-001	1.64207E-010	0.00000E+000	-1.68550E-001	1.02142E-003	4	..........a	-327.66
	124	25	-1.58536E-001	1.65130E-010	0.00000E+000	-1.58550E-001	1.01182E-003	4	..........a	-327.66
	125	25.2	-1.48541E-001	1.64101E-010	0.00000E+000	-1.48550E-001	9.92222E-004	4	..........a	-327.66
	126	25.4	-1.38537E-001	1.66169E-010	0.00000E+000	-1.38550E-001	1.00362E-003	4	..........a	-327.66
	127	25.6	-1.28549E-001	1.67780E-010	0.00000E+000	-1.28550E-001	1.03102E-003	4	..........a	-327.66
	128	25.8	-1.18519E-001	1.68779E-010	0.00000E+000	-1.18550E-001	9.88522E-004	4	..........a	-327.66
	129	26	-1.08554E-001	1.68754E-010	0.00000E+000	-1.08550E-001	1.02112E-003	4	..........a	-327.66
	130	26.2	-9.84455E-002	1.69940E-010	0.00000E+000	-9.85500E-002	1.03252E-003	4	..........a	-327.66
	131	26.4	-8.85558E-002	1.70264E-010	0.00000E+000	-8.85500E-002	1.04162E-003	4	..........a	-327.66
	132	26.6	-7.85412E-002	1.70971E-010	0.00000E+000	-7.85500E-002	1.03142E-003	4	..........a	-327.66
	133	26.8	-6.85408E-002	1.72254E-010	0.00000E+000	-6.85500E-002	9.96722E-004	4	..........a	-327.66
	134	27	-5.84194E-002	1.73042E-010	0.00000E+000	-5.85500E-002	1.01642E-003	4	..........a	-327.66
	135	27.2	-4.85500E-002	1.73301E-010	0.00000E+000	-4.85500E-002	9.99422E-004	4	..........a	-327.66
	136	27.4	-3.84957E-002	1.74956E-010	0.00000E+000	-3.85500E-002	1.02042E-003	4	..........a	-327.66
	137	27.6	-2.85572E-002	1.76090E-010	0.00000E+000	-2.85500E-002	1.02412E-003	4	..........a	-327.66
	138	27.8	-1.84953E-002	1.76929E-010	0.00000E+000	-1.85500E-002	1.04772E-003	4	..........a	-327.66
	139	28	-8.55776E-003	1.78583E-010	0.00000E+000	-8.55000E-003	1.01382E-003	4	..........a	-327.66
	140	28.2	1.46089E-003	1.78733E-010	0.00000E+000	1.45000E-003	1.00452E-003	4	..........a	-327.66
	141	28.4	1.14599E-002	1.79052E-010	0.00000E+000	1.14500E-002	1.02682E-003	4	..........a	-327.66
	142	28.6	2.15673E-002	1.81094E-010	0.00000E+000	2.14500E-002	1.00102E-003	4	..........a	-327.66
	143	28.8	3.14265E-002	1.89999E-010	0.00000E+000	3.14500E-002	1.03112E-003	4	..........a	-327.66
	144	29	4.14465E-002	1.82807E-010	0.00000E+000	4.14500E-002	1.03492E-003	4	..........a	-327.66
	145	29.2	5.14259E-002	1.86747E-010	0.00000E+000	5.14500E-002	1.01462E-003	4	..........a	-327.66
	146	29.4	6.15321E-002	1.84519E-010	0.00000E+000	6.14500E-002	1.02042E-003	4	..........a	-327.66
	147	29.6	7.14857E-002	1.85478E-010	0.00000E+000	7.14500E-002	1.00022E-003	4	..........a	-327.66
	148	29.8	8.14755E-002	1.91133E-010	0.00000E+000	8.14500E-002	1.04882E-003	4	..........a	-327.66
	149	30	9.10041E-002	1.86267E-010	0.00000E+000	9.14500E-002	1.01482E-003	4	..........a	-327.66
	150	30.2	1.01593E-001	1.92263E-010	0.00000E+000	1.01450E-001	1.03112E-003	4	..........a	-327.66
	151	30.4	1.11463E-001	1.90124E-010	0.00000E+000	1.11450E-001	1.02442E-003	4	..........a	-327.66
	152	30.6	1.21495E-001	1.93283E-010	0.00000E+000	1.21450E-001	1.03072E-003	4	..........a	-327.66
	153	30.8	1.31462E-001	1.94970E-010	0.00000E+000	1.31450E-001	1.02312E-003	4	..........a	-327.66
	154	31	1.41585E-001	1.96228E-010	0.00000E+000	1.41450E-001	1.03172E-003	4	..........a	-327.66
	155	31.2	1.51496E-001	1.99164E-010	0.00000E+000	1.51450E-001	1.02312E-003	4	..........a	-327.66
	156	31.4	1.61480E-001	2.01003E-010	0.00000E+000	1.61450E-001	1.01472E-003	4	..........a	-327.66
	157	31.6	1.71484E-001	2.02464E-010	0.00000E+000	1.71450E-001	1.00012E-003	4	..........a	-327.66
	158	31.8	1.81574E-001	2.04740E-010	0.00000E+000	1.81450E-001	9.87522E-004	4	..........a	-327.66
	159	32	1.91458E-001	2.08752E-010	0.00000E+000	1.91450E-001	1.02182E-003	4	..........a	-327.66
	160	32.2	2.01484E-001	2.12209E-010	0.00000E+000	2.01450E-001	1.00702E-003	4	..........a	-327.66
	161	32.4	2.11459E-001	2.14898E-010	0.00000E+000	2.11450E-001	1.00032E-003	4	..........a	-327.66
	162	32.6	2.21557E-001	2.17147E-010	0.00000E+000	2.21450E-001	1.02692E-003	4	..........a	-327.66
	163	32.8	2.31442E-001	2.18143E-010	0.00000E+000	2.31450E-001	1.01012E-003	4	..........a	-327.66
	164	33	2.41441E-001	2.19506E-010	0.00000E+000	2.41450E-001	1.00342E-003	4	..........a	-327.66
	165	33.2	2.51447E-001	2.21207E-010	0.00000E+000	2.51450E-001	1.00132E-003	4	..........a	-327.66
	166	33.4	2.61507E-001	2.25420E-010	0.00000E+000	2.61450E-001	1.03652E-003	4	..........a	-327.66
	167	33.6	2.71441E-001	2.29606E-010	0.00000E+000	2.71450E-001	1.01952E-003	4	..........a	-327.66
	168	33.8	2.81358E-001	2.34577E-010	0.00000E+000	2.81450E-001	1.02652E-003	4	..........a	-327.66
	169	34	2.91439E-001	2.37587E-010	0.00000E+000	2.91450E-001	1.02212E-003	4	..........a	-327.66
	170	34.2	3.01444E-001	2.43027E-010	0.00000E+000	3.01450E-001	1.05322E-003	4	..........a	-327.66
	171	34.4	3.11432E-001	2.45317E-010	0.00000E+000	3.11450E-001	1.05022E-003	4	..........a	-327.66
	172	34.6	3.21329E-001	2.49782E-010	0.00000E+000	3.21450E-001	1.00192E-003	4	..........a	-327.66
	173	34.8	3.31388E-001	2.53379E-010	0.00000E+000	3.31450E-001	1.02712E-003	4	..........a	-327.66
	174	35	3.41528E-001	2.57427E-010	0.00000E+000	3.41450E-001	9.98122E-004	4	..........a	-327.66
	175	35.2	3.51360E-001	2.61107E-010	0.00000E+000	3.51450E-001	1.03112E-003	4	..........a	-327.66
	176	35.4	3.61360E-001	2.65458E-010	0.00000E+000	3.61450E-001	1.04392E-003	4	..........a	-327.66
	177	35.6	3.71365E-001	2.70358E-010	0.00000E+000	3.71450E-001	1.01682E-003	4	..........a	-327.66
	178	35.8	3.81494E-001	2.75147E-010	0.00000E+000	3.81450E-001	9.99922E-004	4	..........a	-327.66
	179	36	3.91439E-001	2.79695E-010	0.00000E+000	3.91450E-001	1.03112E-003	4	..........a	-327.66
	180	36.2	4.01424E-001	2.84082E-010	0.00000E+000	4.01450E-001	1.02062E-003	4	..........a	-327.66
	181	36.4	4.11371E-001	2.89636E-010	0.00000E+000	4.11450E-001	9.97122E-004	4	..........a	-327.66
	182	36.6	4.21466E-001	2.95183E-010	0.00000E+000	4.21450E-001	1.01242E-003	4	..........a	-327.66
	183	36.8	4.31357E-001	3.00684E-010	0.00000E+000	4.31450E-001	1.01572E-003	4	..........a	-327.66
	184	37	4.41366E-001	3.05773E-010	0.00000E+000	4.41450E-001	1.02082E-003	4	..........a	-327.66
	185	37.2	4.51410E-001	3.12231E-010	0.00000E+000	4.51450E-001	1.02752E-003	4	..........a	-327.66
	186	37.4	4.61481E-001	3.18277E-010	0.00000E+000	4.61450E-001	1.00562E-003	4	..........a	-327.66
	187	37.6	4.71408E-001	3.24650E-010	0.00000E+000	4.71450E-001	1.02242E-003	4	..........a	-327.66
	188	37.8	4.81362E-001	3.31844E-010	0.00000E+000	4.81450E-001	1.00892E-003	4	..........a	-327.66
	189	38	4.91403E-001	3.39934E-010	0.00000E+000	4.91450E-001	1.01042E-003	4	..........a	-327.66
	190	38.2	5.01521E-001	3.46249E-010	0.00000E+000	5.01450E-001	1.00202E-003	4	..........a	-327.66
	191	38.4	5.11349E-001	3.53703E-010	0.00000E+000	5.11450E-001	1.02652E-003	4	..........a	-327.66
	192	38.6	5.21414E-001	3.62203E-010	0.00000E+000	5.21450E-001	1.00242E-003	4	..........a	-327.66
	193	38.8	5.31346E-001	3.70631E-010	0.00000E+000	5.31450E-001	1.02752E-003	4	..........a	-327.66
	194	39	5.41480E-001	3.78476E-010	0.00000E+000	5.41450E-001	9.89122E-004	4	..........a	-327.66
	195	39.2	5.51375E-001	3.86856E-010	0.00000E+000	5.51450E-001	1.02862E-003	4	..........a	-327.66
	196	39.4	5.61396E-001	3.95825E-010	0.00000E+000	5.61450E-001	1.00612E-003	4	..........a	-327.66
	197	39.6	5.71410E-001	4.05375E-010	0.00000E+000	5.71450E-001	1.00262E-003	4	..........a	-327.66
	198	39.8	5.81518E-001	4.13773E-010	0.00000E+000	5.81450E-001	1.00382E-003	4	..........a	-327.66
	199	40	5.91385E-001	4.23587E-010	0.00000E+000	5.91450E-001	1.01622E-003	4	..........a	-327.66
	200	40.2	6.01449E-001	4.34591E-010	0.00000E+000	6.01450E-001	9.90322E-004	4	..........a	-327.66
	201	40.4	6.11391E-001	4.42603E-010	0.00000E+000	6.11450E-001	1.01142E-003	4	..........a	-327.66
	202	40.6	6.21436E-001	4.52342E-010	0.00000E+000	6.21450E-001	1.02622E-003	4	..........a	-327.66
	203	40.8	6.31352E-001	4.63085E-010	0.00000E+000	6.31450E-001	1.01612E-003	4	..........a	-327.66
	204	41	6.41396E-001	4.73095E-010	0.00000E+000	6.41450E-001	1.02572E-003	4	..........a	-327.66
	205	41.2	6.51386E-001	4.82710E-010	0.00000E+000	6.51450E-001	1.02582E-003	4	..........a	-327.66
	206	41.4	6.61479E-001	4.94396E-010	0.00000E+000	6.61450E-001	1.00562E-003	4	..........a	-327.66
	207	41.6	6.71381E-001	5.05981E-010	0.00000E+000	6.71450E-001	1.00762E-003	4	..........a	-327.66
	208	41.8	6.81331E-001	5.15394E-010	0.00000E+000	6.81450E-001	1.02822E-003	4	..........a	-327.66
	209	42	6.91319E-001	5.26581E-010	0.00000E+000	6.91450E-001	1.03382E-003	4	..........a	-327.66
	210	42.2	7.01414E-001	5.41429E-010	0.00000E+000	7.01450E-001	9.95722E-004	4	..........a	-327.66
	211	42.4	7.11379E-001	5.51715E-010	0.00000E+000	7.11450E-001	1.02162E-003	4	..........a	-327.66
	212	42.6	7.21367E-001	5.64969E-010	0.00000E+000	7.21450E-001	9.83222E-004	4	..........a	-327.66
	213	42.8	7.31026E-001	5.77217E-010	0.00000E+000	7.31450E-001	1.03012E-003	4	..........a	-327.66
	214	43	7.41440E-001	5.93752E-010	0.00000E+000	7.41450E-001	1.00542E-003	4	..........a	-327.66
	215	43.2	7.51389E-001	6.08326E-010	0.00000E+000	7.51450E-001	1.02592E-003	4	..........a	-327.66
	216	43.4	7.61276E-001	6.28568E-010	0.00000E+000	7.61450E-001	1.00732E-003	4	..........a	-327.66
	217	43.6	7.71389E-001	6.46239E-010	0.00000E+000	7.71450E-001	1.02372E-003	4	..........a	-327.66
	218	43.8	7.81508E-001	6.71695E-010	0.00000E+000	7.81450E-001	1.02192E-003	4	..........a	-327.66
	219	44	7.91373E-001	6.88731E-010	0.00000E+000	7.91450E-001	1.00342E-003	4	..........a	-327.66
	220	44.2	8.01384E-001	7.12731E-010	0.00000E+000	8.01450E-001	1.01462E-003	4	..........a	-327.66
CURVE2	TABLE
	Pt	T	Vf	Im	Vu	Sig	Ach	IERange	Over	Temp
	#	s	V vs. Ref.	A	V	V	V	#	bits	deg C
	221	44.4	7.89818E-001	5.43645E-010	0.00000E+000	7.90000E-001	1.05362E-003	4	..........a	-327.66
	222	44.6	7.79953E-001	4.42377E-010	0.00000E+000	7.80000E-001	1.03002E-003	4	..........a	-327.66
	223	44.8	7.69835E-001	3.68699E-010	0.00000E+000	7.70000E-001	1.02362E-003	4	..........a	-327.66
	224	45	7.59868E-001	3.12845E-010	0.00000E+000	7.60000E-001	1.03032E-003	4	..........a	-327.66
	225	45.2	7.49934E-001	2.66252E-010	0.00000E+000	7.50000E-001	1.01202E-003	4	..........a	-327.66
	226	45.4	7.39981E-001	2.23674E-010	0.00000E+000	7.40000E-001	1.02302E-003	4	..........a	-327.66
	227	45.6	7.29980E-001	1.94959E-010	0.00000E+000	7.30000E-001	9.85122E-004	4	..........a	-327.66
	228	45.8	7.19881E-001	1.66524E-010	0.00000E+000	7.20000E-001	1.02222E-003	4	..........a	-327.66
	229	46	7.09876E-001	1.41435E-010	0.00000E+000	7.10000E-001	1.01412E-003	4	..........a	-327.66
	230	46.2	6.99981E-001	1.21963E-010	0.00000E+000	7.00000E-001	1.00642E-003	4	..........a	-327.66
	231	46.4	6.89935E-001	1.01381E-010	0.00000E+000	6.90000E-001	1.01242E-003	4	..........a	-327.66
	232	46.6	6.79805E-001	8.62401E-011	0.00000E+000	6.80000E-001	9.96922E-004	4	..........a	-327.66
	233	46.8	6.69902E-001	7.05735E-011	0.00000E+000	6.70000E-001	1.02242E-003	4	..........a	-327.66
	234	47	6.60025E-001	5.68690E-011	0.00000E+000	6.60000E-001	1.04402E-003	4	..........a	-327.66
	235	47.2	6.49921E-001	4.37505E-011	0.00000E+000	6.50000E-001	1.04182E-003	4	..........a	-327.66
	236	47.4	6.39874E-001	3.27981E-011	0.00000E+000	6.40000E-001	1.00732E-003	4	..........a	-327.66
	237	47.6	6.29915E-001	2.25427E-011	0.00000E+000	6.30000E-001	9.98322E-004	4	..........a	-327.66
	238	47.8	6.19995E-001	1.25883E-011	0.00000E+000	6.20000E-001	1.04572E-003	4	..........a	-327.66
	239	48	6.09900E-001	2.96991E-012	0.00000E+000	6.10000E-001	1.03082E-003	4	..........a	-327.66
	240	48.2	5.99869E-001	-5.48241E-012	0.00000E+000	6.00000E-001	1.01652E-003	4	..........a	-327.66
	241	48.4	5.89921E-001	-1.14376E-011	0.00000E+000	5.90000E-001	1.01202E-003	4	..........a	-327.66
	242	48.6	5.79996E-001	-2.04710E-011	0.00000E+000	5.80000E-001	1.01762E-003	4	..........a	-327.66
	243	48.8	5.69964E-001	-2.76943E-011	0.00000E+000	5.70000E-001	1.02982E-003	4	..........a	-327.66
	244	49	5.59970E-001	-3.59236E-011	0.00000E+000	5.60000E-001	1.01882E-003	4	..........a	-327.66
	245	49.2	5.49957E-001	-3.85707E-011	0.00000E+000	5.50000E-001	9.90222E-004	4	..........a	-327.66
	246	49.4	5.40016E-001	-4.45099E-011	0.00000E+000	5.40000E-001	1.01762E-003	4	..........a	-327.66
	247	49.6	5.29944E-001	-5.14952E-011	0.00000E+000	5.30000E-001	1.01472E-003	4	..........a	-327.66
	248	49.8	5.19973E-001	-5.59944E-011	0.00000E+000	5.20000E-001	1.01442E-003	4	..........a	-327.66
	249	50	5.09903E-001	-6.14066E-011	0.00000E+000	5.10000E-001	1.01162E-003	4	..........a	-327.66
	250	50.2	5.00022E-001	-6.79778E-011	0.00000E+000	5.00000E-001	1.01632E-003	4	..........a	-327.66
	251	50.4	4.89968E-001	-7.12729E-011	0.00000E+000	4.90000E-001	1.00192E-003	4	..........a	-327.66
	252	50.6	4.79904E-001	-7.54351E-011	0.00000E+000	4.80000E-001	1.00162E-003	4	..........a	-327.66
	253	50.8	4.69917E-001	-8.09113E-011	0.00000E+000	4.70000E-001	1.04022E-003	4	..........a	-327.66
	254	51	4.60011E-001	-8.47225E-011	0.00000E+000	4.60000E-001	1.02422E-003	4	..........a	-327.66
	255	51.2	4.50043E-001	-8.88576E-011	0.00000E+000	4.50000E-001	1.00582E-003	4	..........a	-327.66
	256	51.4	4.39977E-001	-9.38488E-011	0.00000E+000	4.40000E-001	1.02892E-003	4	..........a	-327.66
	257	51.6	4.29934E-001	-9.76750E-011	0.00000E+000	4.30000E-001	1.02712E-003	4	..........a	-327.66
	258	51.8	4.20008E-001	-1.01701E-010	0.00000E+000	4.20000E-001	1.01902E-003	4	..........a	-327.66
	259	52	4.09943E-001	-1.05077E-010	0.00000E+000	4.10000E-001	1.00332E-003	4	..........a	-327.66
	260	52.2	4.00059E-001	-1.09713E-010	0.00000E+000	4.00000E-001	1.00802E-003	4	..........a	-327.66
	261	52.4	3.89939E-001	-1.13834E-010	0.00000E+000	3.90000E-001	1.02142E-003	4	..........a	-327.66
	262	52.6	3.80018E-001	-1.17566E-010	0.00000E+000	3.80000E-001	1.02192E-003	4	..........a	-327.66
	263	52.8	3.69993E-001	-1.21124E-010	0.00000E+000	3.70000E-001	1.04152E-003	4	..........a	-327.66
	264	53	3.59945E-001	-1.25587E-010	0.00000E+000	3.60000E-001	1.03662E-003	4	..........a	-327.66
	265	53.2	3.49909E-001	-1.29208E-010	0.00000E+000	3.50000E-001	1.00342E-003	4	..........a	-327.66
	266	53.4	3.40031E-001	-1.33735E-010	0.00000E+000	3.40000E-001	1.00342E-003	4	..........a	-327.66
	267	53.6	3.29999E-001	-1.36204E-010	0.00000E+000	3.30000E-001	1.00342E-003	4	..........a	-327.66
	268	53.8	3.19885E-001	-1.40405E-010	0.00000E+000	3.20000E-001	1.01442E-003	4	..........a	-327.66
	269	54	3.09940E-001	-1.43402E-010	0.00000E+000	3.10000E-001	1.01142E-003	4	..........a	-327.66
	270	54.2	2.99995E-001	-1.47277E-010	0.00000E+000	3.00000E-001	1.03392E-003	4	..........a	-327.66
	271	54.4	2.90004E-001	-1.49890E-010	0.00000E+000	2.90000E-001	1.02712E-003	4	..........a	-327.66
	272	54.6	2.80002E-001	-1.53297E-010	0.00000E+000	2.80000E-001	9.99622E-004	4	..........a	-327.66
	273	54.8	2.69959E-001	-1.55570E-010	0.00000E+000	2.70000E-001	1.01622E-003	4	..........a	-327.66
	274	55	2.60012E-001	-1.59904E-010	0.00000E+000	2.60000E-001	1.01812E-003	4	..........a	-327.66
	275	55.2	2.49987E-001	-1.62525E-010	0.00000E+000	2.50000E-001	1.03382E-003	4	..........a	-327.66
	276	55.4	2.40000E-001	-1.65120E-010	0.00000E+000	2.40000E-001	1.02542E-003	4	..........a	-327.66
	277	55.6	2.29986E-001	-1.66700E-010	0.00000E+000	2.30000E-001	1.01562E-003	4	..........a	-327.66
	278	55.8	2.20015E-001	-1.69177E-010	0.00000E+000	2.20000E-001	1.03522E-003	4	..........a	-327.66
	279	56	2.09971E-001	-1.71320E-010	0.00000E+000	2.10000E-001	1.01392E-003	4	..........a	-327.66
	280	56.2	2.00015E-001	-1.72975E-010	0.00000E+000	2.00000E-001	1.02812E-003	4	..........a	-327.66
	281	56.4	1.90000E-001	-1.74792E-010	0.00000E+000	1.90000E-001	1.01052E-003	4	..........a	-327.66
	282	56.6	1.80028E-001	-1.77347E-010	0.00000E+000	1.80000E-001	9.86622E-004	4	..........a	-327.66
	283	56.8	1.70060E-001	-1.79021E-010	0.00000E+000	1.70000E-001	1.01782E-003	4	..........a	-327.66
	284	57	1.60019E-001	-1.80143E-010	0.00000E+000	1.60000E-001	1.01042E-003	4	..........a	-327.66
	285	57.2	1.49982E-001	-1.81320E-010	0.00000E+000	1.50000E-001	1.05512E-003	4	..........a	-327.66
	286	57.4	1.40066E-001	-1.82772E-010	0.00000E+000	1.40000E-001	1.01922E-003	4	..........a	-327.66
	287	57.6	1.30060E-001	-1.83944E-010	0.00000E+000	1.30000E-001	1.02312E-003	4	..........a	-327.66
	288	57.8	1.19993E-001	-1.85528E-010	0.00000E+000	1.20000E-001	1.02412E-003	4	..........a	-327.66
	289	58	1.10005E-001	-1.87539E-010	0.00000E+000	1.10000E-001	1.00372E-003	4	..........a	-327.66
	290	58.2	9.99636E-002	-1.89643E-010	0.00000E+000	1.00000E-001	1.03592E-003	4	..........a	-327.66
	291	58.4	9.01537E-002	-1.91527E-010	0.00000E+000	9.00000E-002	1.00742E-003	4	..........a	-327.66
	292	58.6	7.99682E-002	-1.94084E-010	0.00000E+000	8.00000E-002	1.04432E-003	4	..........a	-327.66
	293	58.8	6.99623E-002	-1.95209E-010	0.00000E+000	7.00000E-002	1.01462E-003	4	..........a	-327.66
	294	59	6.00372E-002	-1.97827E-010	0.00000E+000	6.00000E-002	1.02562E-003	4	..........a	-327.66
	295	59.2	5.00028E-002	-2.00000E-010	0.00000E+000	5.00000E-002	1.04572E-003	4	..........a	-327.66
	296	59.4	4.00003E-002	-2.03493E-010	0.00000E+000	4.00000E-002	1.00772E-003	4	..........a	-327.66
	297	59.6	2.99675E-002	-2.06632E-010	0.00000E+000	3.00000E-002	1.04982E-003	4	..........a	-327.66
	298	59.8	1.99777E-002	-2.10264E-010	0.00000E+000	2.00000E-002	1.03472E-003	4	..........a	-327.66
	299	60	1.00583E-002	-2.12832E-010	0.00000E+000	1.00000E-002	1.00252E-003	4	..........a	-327.66
	300	60.2	-1.96592E-005	-2.17327E-010	0.00000E+000	7.45058E-009	1.02532E-003	4	..........a	-327.66
	301	60.4	-1.00513E-002	-2.21569E-010	0.00000E+000	-1.00000E-002	1.02312E-003	4	..........a	-327.66
	302	60.6	-1.99534E-002	-2.26408E-010	0.00000E+000	-2.00000E-002	1.01562E-003	4	..........a	-327.66
	303	60.8	-2.99624E-002	-2.29997E-010	0.00000E+000	-3.00000E-002	1.00682E-003	4	..........a	-327.66
	304	61	-3.99477E-002	-2.34777E-010	0.00000E+000	-4.00000E-002	1.00162E-003	4	..........a	-327.66
	305	61.2	-5.00729E-002	-2.40552E-010	0.00000E+000	-5.00000E-002	1.01422E-003	4	..........a	-327.66
	306	61.4	-5.99547E-002	-2.45138E-010	0.00000E+000	-6.00000E-002	1.02812E-003	4	..........a	-327.66
	307	61.6	-6.99561E-002	-2.50527E-010	0.00000E+000	-7.00000E-002	9.99922E-004	4	..........a	-327.66
	308	61.8	-8.00536E-002	-2.57849E-010	0.00000E+000	-8.00000E-002	1.02732E-003	4	..........a	-327.66
	309	62	-8.99840E-002	-2.62296E-010	0.00000E+000	-9.00000E-002	1.02702E-003	4	..........a	-327.66
	310	62.2	-9.99036E-002	-2.65680E-010	0.00000E+000	-1.00000E-001	1.01402E-003	4	..........a	-327.66
	311	62.4	-1.10008E-001	-2.75508E-010	0.00000E+000	-1.10000E-001	1.01882E-003	4	..........a	-327.66
	312	62.6	-1.19987E-001	-2.86443E-010	0.00000E+000	-1.20000E-001	9.93722E-004	4	..........a	-327.66
	313	62.8	-1.30025E-001	-2.91467E-010	0.00000E+000	-1.30000E-001	1.01682E-003	4	..........a	-327.66
	314	63	-1.39901E-001	-2.92694E-010	0.00000E+000	-1.40000E-001	1.02852E-003	4	..........a	-327.66
	315	63.2	-1.50006E-001	-2.98743E-010	0.00000E+000	-1.50000E-001	9.89422E-004	4	..........a	-327.66
	316	63.4	-1.59938E-001	-3.05877E-010	0.00000E+000	-1.60000E-001	1.02852E-003	4	..........a	-327.66
	317	63.6	-1.69947E-001	-3.10424E-010	0.00000E+000	-1.70000E-001	1.02502E-003	4	..........a	-327.66
	318	63.8	-1.79935E-001	-3.16503E-010	0.00000E+000	-1.80000E-001	1.04572E-003	4	..........a	-327.66
	319	64	-1.90008E-001	-3.22347E-010	0.00000E+000	-1.90000E-001	1.02512E-003	4	..........a	-327.66
	320	64.2	-1.99926E-001	-3.29815E-010	0.00000E+000	-2.00000E-001	1.03782E-003	4	..........a	-327.66
	321	64.4	-2.09961E-001	-3.35275E-010	0.00000E+000	-2.10000E-001	1.03132E-003	4	..........a	-327.66
	322	64.6	-2.19938E-001	-3.41489E-010	0.00000E+000	-2.20000E-001	1.00892E-003	4	..........a	-327.66
	323	64.8	-2.29997E-001	-3.47755E-010	0.00000E+000	-2.30000E-001	9.80922E-004	4	..........a	-327.66
	324	65	-2.39852E-001	-3.52441E-010	0.00000E+000	-2.40000E-001	1.01062E-003	4	..........a	-327.66
	325	65.2	-2.49926E-001	-3.58768E-010	0.00000E+000	-2.50000E-001	9.97122E-004	4	..........a	-327.66
	326	65.4	-2.59867E-001	-3.58153E-010	0.00000E+000	-2.60000E-001	1.02672E-003	4	..........a	-327.66
	327	65.6	-2.69908E-001	-3.71043E-010	0.00000E+000	-2.70000E-001	1.00882E-003	4	..........a	-327.66
	328	65.8	-2.79878E-001	-3.78738E-010	0.00000E+000	-2.80000E-001	1.01142E-003	4	..........a	-327.66
	329	66	-2.89966E-001	-3.87583E-010	0.00000E+000	-2.90000E-001	9.88222E-004	4	..........a	-327.66
	330	66.2	-2.99868E-001	-3.90708E-010	0.00000E+000	-3.00000E-001	1.01302E-003	4	..........a	-327.66
	331	66.4	-3.09956E-001	-4.00120E-010	0.00000E+000	-3.10000E-001	1.01602E-003	4	..........a	-327.66
	332	66.6	-3.19895E-001	-4.06644E-010	0.00000E+000	-3.20000E-001	1.03612E-003	4	..........a	-327.66
	333	66.8	-3.29954E-001	-4.16524E-010	0.00000E+000	-3.30000E-001	1.02902E-003	4	..........a	-327.66
	334	67	-3.39904E-001	-4.21084E-010	0.00000E+000	-3.40000E-001	1.00762E-003	4	..........a	-327.66
	335	67.2	-3.49912E-001	-4.27868E-010	0.00000E+000	-3.50000E-001	1.01182E-003	4	..........a	-327.66
	336	67.4	-3.59908E-001	-4.35781E-010	0.00000E+000	-3.60000E-001	1.00552E-003	4	..........a	-327.66
	337	67.6	-3.69922E-001	-4.45234E-010	0.00000E+000	-3.70000E-001	9.95822E-004	4	..........a	-327.66
	338	67.8	-3.79880E-001	-4.53109E-010	0.00000E+000	-3.80000E-001	1.03042E-003	4	..........a	-327.66
	339	68	-3.89961E-001	-4.61691E-010	0.00000E+000	-3.90000E-001	1.00072E-003	4	..........a	-327.66
	340	68.2	-3.99884E-001	-4.71138E-010	0.00000E+000	-4.00000E-001	9.91522E-004	4	..........a	-327.66
	341	68.4	-4.09929E-001	-4.77716E-010	0.00000E+000	-4.10000E-001	1.03342E-003	4	..........a	-327.66
	342	68.6	-4.19833E-001	-4.89004E-010	0.00000E+000	-4.20000E-001	1.02632E-003	4	..........a	-327.66
	343	68.8	-4.29878E-001	-4.99758E-010	0.00000E+000	-4.30000E-001	1.00602E-003	4	..........a	-327.66
	344	69	-4.39918E-001	-5.10814E-010	0.00000E+000	-4.40000E-001	1.03072E-003	4	..........a	-327.66
	345	69.2	-4.49893E-001	-5.21690E-010	0.00000E+000	-4.50000E-001	9.96622E-004	4	..........a	-327.66
	346	69.4	-4.59881E-001	-5.34264E-010	0.00000E+000	-4.60000E-001	9.97522E-004	4	..........a	-327.66
	347	69.6	-4.69872E-001	-5.48046E-010	0.00000E+000	-4.70000E-001	9.83622E-004	4	..........a	-327.66
	348	69.8	-4.79865E-001	-5.60200E-010	0.00000E+000	-4.80000E-001	1.02252E-003	4	..........a	-327.66
	349	70	-4.89899E-001	-5.74484E-010	0.00000E+000	-4.90000E-001	1.01612E-003	4	..........a	-327.66
	350	70.2	-4.99901E-001	-5.87656E-010	0.00000E+000	-5.00000E-001	1.02802E-003	4	..........a	-327.66
	351	70.4	-5.09868E-001	-6.05547E-010	0.00000E+000	-5.10000E-001	1.01052E-003	4	..........a	-327.66
	352	70.6	-5.19893E-001	-6.21755E-010	0.00000E+000	-5.20000E-001	1.02592E-003	4	..........a	-327.66
	353	70.8	-5.29901E-001	-6.40552E-010	0.00000E+000	-5.30000E-001	1.02962E-003	4	..........a	-327.66
[...]
	895	179.2	-3.49921E-001	-4.58286E-010	0.00000E+000	-3.50000E-001	9.89722E-004	4	..........a	-327.66
	896	179.4	-3.59902E-001	-4.66992E-010	0.00000E+000	-3.60000E-001	1.02022E-003	4	..........a	-327.66
	897	179.6	-3.69829E-001	-4.74930E-010	0.00000E+000	-3.70000E-001	1.00652E-003	4	..........a	-327.66
	898	179.8	-3.79893E-001	-4.84698E-010	0.00000E+000	-3.80000E-001	1.00062E-003	4	..........a	-327.66
	899	180	-3.89951E-001	-4.93025E-010	0.00000E+000	-3.90000E-001	9.98322E-004	4	..........a	-327.66
	900	180.2	-3.99890E-001	-5.03314E-010	0.00000E+000	-4.00000E-001	1.01982E-003	4	..........a	-327.66
	901	180.4	-4.09918E-001	-5.13134E-010	0.00000E+000	-4.10000E-001	1.03132E-003	4	..........a	-327.66
	902	180.6	-4.19843E-001	-5.22518E-010	0.00000E+000	-4.20000E-001	1.00452E-003	4	..........a	-327.66
	903	180.8	-4.29892E-001	-5.35009E-010	0.00000E+000	-4.30000E-001	1.00002E-003	4	..........a	-327.66
	904	181	-4.39903E-001	-5.46375E-010	0.00000E+000	-4.40000E-001	9.94022E-004	4	..........a	-327.66
	905	181.2	-4.49906E-001	-5.56362E-010	0.00000E+000	-4.50000E-001	9.82822E-004	4	..........a	-327.66
	906	181.4	-4.59876E-001	-5.68389E-010	0.00000E+000	-4.60000E-001	9.93822E-004	4	..........a	-327.66
	907	181.6	-4.69901E-001	-5.82184E-010	0.00000E+000	-4.70000E-001	9.92522E-004	4	..........a	-327.66
	908	181.8	-4.79861E-001	-5.94928E-010	0.00000E+000	-4.80000E-001	1.01692E-003	4	..........a	-327.66
	909	182	-4.89896E-001	-6.08347E-010	0.00000E+000	-4.90000E-001	1.02542E-003	4	..........a	-327.66
	910	182.2	-4.99880E-001	-6.24400E-010	0.00000E+000	-5.00000E-001	1.01322E-003	4	..........a	-327.66
	911	182.4	-5.09882E-001	-6.41642E-010	0.00000E+000	-5.10000E-001	9.83222E-004	4	..........a	-327.66
	912	182.6	-5.19945E-001	-6.58714E-010	0.00000E+000	-5.20000E-001	1.01292E-003	4	..........a	-327.66
	913	182.8	-5.29887E-001	-6.77754E-010	0.00000E+000	-5.30000E-001	1.00442E-003	4	..........a	-327.66
	914	183	-5.39920E-001	-6.98392E-010	0.00000E+000	-5.40000E-001	1.02522E-003	4	..........a	-327.66
	915	183.2	-5.49939E-001	-7.19527E-010	0.00000E+000	-5.50000E-001	9.80722E-004	4	..........a	-327.66
	916	183.4	-5.59927E-001	-7.44032E-010	0.00000E+000	-5.60000E-001	9.96322E-004	4	..........a	-327.66
	917	183.6	-5.69948E-001	-7.70307E-010	0.00000E+000	-5.70000E-001	1.01012E-003	4	..........a	-327.66
	918	183.8	-5.79872E-001	-8.02077E-010	0.00000E+000	-5.80000E-001	1.00072E-003	4	..........a	-327.66
	919	184	-5.89877E-001	-8.32317E-010	0.00000E+000	-5.90000E-001	9.86822E-004	4	..........a	-327.66
	920	184.2	-5.99855E-001	-8.67417E-010	0.00000E+000	-6.00000E-001	9.89722E-004	4	..........a	-327.66
	921	184.4	-5.89844E-001	-6.31694E-010	0.00000E+000	-5.90000E-001	1.01212E-003	4	..........a	-327.66
	922	184.6	-5.79867E-001	-4.89458E-010	0.00000E+000	-5.80000E-001	1.00002E-003	4	..........a	-327.66
	923	184.8	-5.69932E-001	-4.00639E-010	0.00000E+000	-5.70000E-001	1.01502E-003	4	..........a	-327.66
	924	185	-5.59871E-001	-3.31349E-010	0.00000E+000	-5.60000E-001	1.02772E-003	4	..........a	-327.66
	925	185.2	-5.49908E-001	-2.82483E-010	0.00000E+000	-5.50000E-001	1.00162E-003	4	..........a	-327.66
	926	185.4	-5.39916E-001	-2.35453E-010	0.00000E+000	-5.40000E-001	9.82022E-004	4	..........a	-327.66
	927	185.6	-5.29934E-001	-1.99330E-010	0.00000E+000	-5.30000E-001	1.01092E-003	4	..........a	-327.66
	928	185.8	-5.19930E-001	-1.68839E-010	0.00000E+000	-5.20000E-001	1.00642E-003	4	..........a	-327.66
	929	186	-5.09884E-001	-1.41262E-010	0.00000E+000	-5.10000E-001	9.77822E-004	4	..........a	-327.66
	930	186.2	-4.99872E-001	-1.16456E-010	0.00000E+000	-5.00000E-001	9.95122E-004	4	..........a	-327.66
	931	186.4	-4.89944E-001	-9.48638E-011	0.00000E+000	-4.90000E-001	1.00682E-003	4	..........a	-327.66
	932	186.6	-4.79895E-001	-7.53381E-011	0.00000E+000	-4.80000E-001	1.01552E-003	4	..........a	-327.66
	933	186.8	-4.69846E-001	-5.72504E-011	0.00000E+000	-4.70000E-001	1.00492E-003	4	..........a	-327.66
	934	187	-4.59887E-001	-3.96787E-011	0.00000E+000	-4.60000E-001	9.98022E-004	4	..........a	-327.66
	935	187.2	-4.49920E-001	-2.46021E-011	0.00000E+000	-4.50000E-001	1.00122E-003	4	..........a	-327.66
	936	187.4	-4.40002E-001	-9.50357E-012	0.00000E+000	-4.40000E-001	1.01092E-003	4	..........a	-327.66
	937	187.6	-4.29901E-001	5.70902E-012	0.00000E+000	-4.30000E-001	1.00122E-003	4	..........a	-327.66
	938	187.8	-4.19856E-001	1.86035E-011	0.00000E+000	-4.20000E-001	9.98122E-004	4	..........a	-327.66
	939	188	-4.09976E-001	3.19400E-011	0.00000E+000	-4.10000E-001	1.02382E-003	4	..........a	-327.66
	940	188.2	-3.99894E-001	4.13884E-011	0.00000E+000	-4.00000E-001	1.01032E-003	4	..........a	-327.66
	941	188.4	-3.89943E-001	5.21698E-011	0.00000E+000	-3.90000E-001	1.00102E-003	4	..........a	-327.66
	942	188.6	-3.79922E-001	6.16452E-011	0.00000E+000	-3.80000E-001	1.00612E-003	4	..........a	-327.66
	943	188.8	-3.69981E-001	7.10755E-011	0.00000E+000	-3.70000E-001	1.01482E-003	4	..........a	-327.66
	944	189	-3.59930E-001	8.06199E-011	0.00000E+000	-3.60000E-001	1.00512E-003	4	..........a	-327.66
	945	189.2	-3.49914E-001	8.88472E-011	0.00000E+000	-3.50000E-001	1.00632E-003	4	..........a	-327.66
	946	189.4	-3.39960E-001	9.65545E-011	0.00000E+000	-3.40000E-001	1.01902E-003	4	..........a	-327.66
	947	189.6	-3.29995E-001	1.04670E-010	0.00000E+000	-3.30000E-001	1.00642E-003	4	..........a	-327.66
	948	189.8	-3.19956E-001	1.12521E-010	0.00000E+000	-3.20000E-001	1.01532E-003	4	..........a	-327.66
	949	190	-3.09936E-001	1.18640E-010	0.00000E+000	-3.10000E-001	1.00462E-003	4	..........a	-327.66
	950	190.2	-2.99900E-001	1.25723E-010	0.00000E+000	-3.00000E-001	9.82322E-004	4	..........a	-327.66
	951	190.4	-2.90001E-001	1.32424E-010	0.00000E+000	-2.90000E-001	9.95422E-004	4	..........a	-327.66
	952	190.6	-2.79919E-001	1.37192E-010	0.00000E+000	-2.80000E-001	9.92322E-004	4	..........a	-327.66
	953	190.8	-2.69919E-001	1.43919E-010	0.00000E+000	-2.70000E-001	9.93222E-004	4	..........a	-327.66
	954	191	-2.59933E-001	1.50234E-010	0.00000E+000	-2.60000E-001	1.00422E-003	4	..........a	-327.66
	955	191.2	-2.49937E-001	1.51932E-010	0.00000E+000	-2.50000E-001	1.00252E-003	4	..........a	-327.66
	956	191.4	-2.39919E-001	1.55561E-010	0.00000E+000	-2.40000E-001	1.01802E-003	4	..........a	-327.66
	957	191.6	-2.30046E-001	1.62037E-010	0.00000E+000	-2.30000E-001	1.01072E-003	4	..........a	-327.66
	958	191.8	-2.19923E-001	1.65031E-010	0.00000E+000	-2.20000E-001	9.76822E-004	4	..........a	-327.66
	959	192	-2.09948E-001	1.67862E-010	0.00000E+000	-2.10000E-001	1.01092E-003	4	..........a	-327.66
	960	192.2	-2.00024E-001	1.69015E-010	0.00000E+000	-2.00000E-001	9.90622E-004	4	..........a	-327.66
	961	192.4	-1.90162E-001	1.72607E-010	0.00000E+000	-1.90000E-001	1.01552E-003	4	..........a	-327.66
	962	192.6	-1.79974E-001	1.74814E-010	0.00000E+000	-1.80000E-001	1.02042E-003	4	..........a	-327.66
	963	192.8	-1.69973E-001	1.77249E-010	0.00000E+000	-1.70000E-001	9.99722E-004	4	..........a	-327.66
	964	193	-1.59994E-001	1.78802E-010	0.00000E+000	-1.60000E-001	9.94522E-004	4	..........a	-327.66
	965	193.2	-1.49988E-001	1.81376E-010	0.00000E+000	-1.50000E-001	1.00892E-003	4	..........a	-327.66
	966	193.4	-1.39910E-001	1.82974E-010	0.00000E+000	-1.40000E-001	1.01852E-003	4	..........a	-327.66
	967	193.6	-1.30020E-001	1.85847E-010	0.00000E+000	-1.30000E-001	1.01042E-003	4	..........a	-327.66
	968	193.8	-1.19975E-001	1.85667E-010	0.00000E+000	-1.20000E-001	1.00892E-003	4	..........a	-327.66
	969	194	-1.10010E-001	1.86845E-010	0.00000E+000	-1.10000E-001	9.89222E-004	4	..........a	-327.66
	970	194.2	-9.99366E-002	1.87213E-010	0.00000E+000	-1.00000E-001	9.96322E-004	4	..........a	-327.66
	971	194.4	-8.99883E-002	1.89367E-010	0.00000E+000	-9.00000E-002	1.00412E-003	4	..........a	-327.66
	972	194.6	-7.99837E-002	1.88255E-010	0.00000E+000	-8.00000E-002	1.00932E-003	4	..........a	-327.66
	973	194.8	-6.99564E-002	1.88251E-010	0.00000E+000	-7.00000E-002	1.02572E-003	4	..........a	-327.66
	974	195	-5.99558E-002	1.88745E-010	0.00000E+000	-6.00000E-002	1.02792E-003	4	..........a	-327.66
	975	195.2	-5.00294E-002	1.91155E-010	0.00000E+000	-5.00000E-002	1.00362E-003	4	..........a	-327.66
	976	195.4	-3.99710E-002	1.92100E-010	0.00000E+000	-4.00000E-002	9.98022E-004	4	..........a	-327.66
	977	195.6	-2.99907E-002	1.92111E-010	0.00000E+000	-3.00000E-002	9.73622E-004	4	..........a	-327.66
	978	195.8	-1.99265E-002	1.95483E-010	0.00000E+000	-2.00000E-002	1.01842E-003	4	..........a	-327.66
	979	196	-1.00188E-002	1.95389E-010	0.00000E+000	-1.00000E-002	1.01552E-003	4	..........a	-327.66
	980	196.2	5.00908E-005	1.96575E-010	0.00000E+000	7.45058E-009	1.00972E-003	4	..........a	-327.66
	981	196.4	1.00687E-002	1.97608E-010	0.00000E+000	1.00000E-002	9.80722E-004	4	..........a	-327.66
	982	196.6	2.00431E-002	1.98412E-010	0.00000E+000	2.00000E-002	1.02002E-003	4	..........a	-327.66
	983	196.8	3.00324E-002	1.99359E-010	0.00000E+000	3.00000E-002	9.93822E-004	4	..........a	-327.66
	984	197	3.97944E-002	1.99851E-010	0.00000E+000	4.00000E-002	1.02432E-003	4	..........a	-327.66
	985	197.2	5.00934E-002	2.01141E-010	0.00000E+000	5.00000E-002	1.00712E-003	4	..........a	-327.66
	986	197.4	6.00808E-002	2.02606E-010	0.00000E+000	6.00000E-002	1.01592E-003	4	..........a	-327.66
	987	197.6	6.99965E-002	2.03636E-010	0.00000E+000	7.00000E-002	1.00812E-003	4	..........a	-327.66
	988	197.8	8.00367E-002	2.04961E-010	0.00000E+000	8.00000E-002	9.98322E-004	4	..........a	-327.66
	989	198	9.00679E-002	2.06224E-010	0.00000E+000	9.00000E-002	9.89422E-004	4	..........a	-327.66
	990	198.2	1.00034E-001	2.09238E-010	0.00000E+000	1.00000E-001	1.00452E-003	4	..........a	-327.66
	991	198.4	1.10043E-001	2.11657E-010	0.00000E+000	1.10000E-001	9.92222E-004	4	..........a	-327.66
	992	198.6	1.20047E-001	2.13471E-010	0.00000E+000	1.20000E-001	1.03042E-003	4	..........a	-327.66
	993	198.8	1.30070E-001	2.14582E-010	0.00000E+000	1.30000E-001	9.94122E-004	4	..........a	-327.66
	994	199	1.40098E-001	2.17167E-010	0.00000E+000	1.40000E-001	9.96922E-004	4	..........a	-327.66
	995	199.2	1.50038E-001	2.18589E-010	0.00000E+000	1.50000E-001	9.95622E-004	4	..........a	-327.66
	996	199.4	1.60043E-001	2.19271E-010	0.00000E+000	1.60000E-001	1.00542E-003	4	..........a	-327.66
	997	199.6	1.70073E-001	2.21742E-010	0.00000E+000	1.70000E-001	1.01382E-003	4	..........a	-327.66
	998	199.8	1.80012E-001	2.25074E-010	0.00000E+000	1.80000E-001	9.96122E-004	4	..........a	-327.66
	999	200	1.90017E-001	2.30079E-010	0.00000E+000	1.90000E-001	9.96522E-004	4	..........a	-327.66
	1000	200.2	1.99923E-001	2.34496E-010	0.00000E+000	2.00000E-001	1.02402E-003	4	..........a	-327.66
	1001	200.4	2.09987E-001	2.39805E-010	0.00000E+000	2.10000E-001	9.82922E-004	4	..........a	-327.66
	1002	200.6	2.19979E-001	2.43135E-010	0.00000E+000	2.20000E-001	9.87622E-004	4	..........a	-327.66
	1003	200.8	2.29931E-001	2.47390E-010	0.00000E+000	2.30000E-001	1.01022E-003	4	..........a	-327.66
	1004	201	2.39936E-001	2.51192E-010	0.00000E+000	2.40000E-001	1.00142E-003	4	..........a	-327.66
	1005	201.2	2.49939E-001	2.55174E-010	0.00000E+000	2.50000E-001	1.00922E-003	4	..........a	-327.66
	1006	201.4	2.59930E-001	2.59547E-010	0.00000E+000	2.60000E-001	1.02932E-003	4	..........a	-327.66
	1007	201.6	2.69916E-001	2.63454E-010	0.00000E+000	2.70000E-001	1.01532E-003	4	..........a	-327.66
	1008	201.8	2.79923E-001	2.67489E-010	0.00000E+000	2.80000E-001	1.01812E-003	4	..........a	-327.66
	1009	202	2.89960E-001	2.71806E-010	0.00000E+000	2.90000E-001	9.85022E-004	4	..........a	-327.66
	1010	202.2	2.99986E-001	2.75293E-010	0.00000E+000	3.00000E-001	1.01292E-003	4	..........a	-327.66
	1011	202.4	3.09946E-001	2.78326E-010	0.00000E+000	3.10000E-001	9.97922E-004	4	..........a	-327.66
	1012	202.6	3.19950E-001	2.81535E-010	0.00000E+000	3.20000E-001	1.00282E-003	4	..........a	-327.66
	1013	202.8	3.29995E-001	2.84760E-010	0.00000E+000	3.30000E-001	9.94122E-004	4	..........a	-327.66
	1014	203	3.40023E-001	2.87641E-010	0.00000E+000	3.40000E-001	1.00372E-003	4	..........a	-327.66
	1015	203.2	3.49924E-001	2.90181E-010	0.00000E+000	3.50000E-001	1.03422E-003	4	..........a	-327.66
	1016	203.4	3.59955E-001	2.93298E-010	0.00000E+000	3.60000E-001	1.00112E-003	4	..........a	-327.66
	1017	203.6	3.69992E-001	2.96257E-010	0.00000E+000	3.70000E-001	1.01752E-003	4	..........a	-327.66
	1018	203.8	3.79981E-001	2.98638E-010	0.00000E+000	3.80000E-001	9.97722E-004	4	..........a	-327.66
	1019	204	3.89945E-001	3.01058E-010	0.00000E+000	3.90000E-001	1.01722E-003	4	..........a	-327.66
	1020	204.2	3.99936E-001	3.03140E-010	0.00000E+000	4.00000E-001	9.78822E-004	4	..........a	-327.66
	1021	204.4	4.09917E-001	3.05780E-010	0.00000E+000	4.10000E-001	1.01412E-003	4	..........a	-327.66
	1022	204.6	4.20028E-001	3.07792E-010	0.00000E+000	4.20000E-001	1.00002E-003	4	..........a	-327.66
	1023	204.8	4.29922E-001	3.10359E-010	0.00000E+000	4.30000E-001	9.94222E-004	4	..........a	-327.66
	1024	205	4.39919E-001	3.12894E-010	0.00000E+000	4.40000E-001	9.83622E-004	4	..........a	-327.66
	1025	205.2	4.49979E-001	3.14751E-010	0.00000E+000	4.50000E-001	1.00662E-003	4	..........a	-327.66
	1026	205.4	4.59987E-001	3.17042E-010	0.00000E+000	4.60000E-001	1.00022E-003	4	..........a	-327.66
	1027	205.6	4.69929E-001	3.20037E-010	0.00000E+000	4.70000E-001	9.87622E-004	4	..........a	-327.66
	1028	205.8	4.79911E-001	3.23138E-010	0.00000E+000	4.80000E-001	1.02802E-003	4	..........a	-327.66
	1029	206	4.89945E-001	3.25595E-010	0.00000E+000	4.90000E-001	1.00632E-003	4	..........a	-327.66
	1030	206.2	5.00008E-001	3.28317E-010	0.00000E+000	5.00000E-001	1.01192E-003	4	..........a	-327.66
	1031	206.4	5.09911E-001	3.31469E-010	0.00000E+000	5.10000E-001	9.88422E-004	4	..........a	-327.66
	1032	206.6	5.19969E-001	3.34868E-010	0.00000E+000	5.20000E-001	9.90822E-004	4	..........a	-327.66
	1033	206.8	5.29909E-001	3.38485E-010	0.00000E+000	5.30000E-001	1.00692E-003	4	..........a	-327.66
	1034	207	5.40020E-001	3.42568E-010	0.00000E+000	5.40000E-001	9.92622E-004	4	..........a	-327.66
	1035	207.2	5.49964E-001	3.46406E-010	0.00000E+000	5.50000E-001	1.01382E-003	4	..........a	-327.66
	1036	207.4	5.59995E-001	3.50141E-010	0.00000E+000	5.60000E-001	1.01512E-003	4	..........a	-327.66
	1037	207.6	5.69940E-001	3.55254E-010	0.00000E+000	5.70000E-001	9.91722E-004	4	..........a	-327.66
	1038	207.8	5.80007E-001	3.60535E-010	0.00000E+000	5.80000E-001	1.03592E-003	4	..........a	-327.66
	1039	208	5.89914E-001	3.65132E-010	0.00000E+000	5.90000E-001	1.00232E-003	4	..........a	-327.66
	1040	208.2	5.99889E-001	3.71653E-010	0.00000E+000	6.00000E-001	9.92122E-004	4	..........a	-327.66
	1041	208.4	6.09948E-001	3.76762E-010	0.00000E+000	6.10000E-001	9.82922E-004	4	..........a	-327.66
	1042	208.6	6.19996E-001	3.84449E-010	0.00000E+000	6.20000E-001	1.01152E-003	4	..........a	-327.66
	1043	208.8	6.29891E-001	3.90985E-010	0.00000E+000	6.30000E-001	1.01342E-003	4	..........a	-327.66
	1044	209	6.39931E-001	3.98486E-010	0.00000E+000	6.40000E-001	1.02192E-003	4	..........a	-327.66
	1045	209.2	6.49919E-001	4.06416E-010	0.00000E+000	6.50000E-001	9.85422E-004	4	..........a	-327.66
	1046	209.4	6.60004E-001	4.15294E-010	0.00000E+000	6.60000E-001	9.88022E-004	4	..........a	-327.66
	1047	209.6	6.69901E-001	4.24079E-010	0.00000E+000	6.70000E-001	9.95322E-004	4	..........a	-327.66
CURVE5	TABLE
	Pt	T	Vf	Im	Vu	Sig	Ach	IERange	Over	Temp
	#	s	V vs. Ref.	A	V	V	V	#	bits	deg C
	1048	209.8	6.60025E-001	3.11829E-010	0.00000E+000	6.60000E-001	9.80022E-004	4	..........a	-327.66
	1049	210	6.49960E-001	2.48087E-010	0.00000E+000	6.50000E-001	9.87022E-004	4	..........a	-327.66
	1050	210.2	6.39942E-001	2.02401E-010	0.00000E+000	6.40000E-001	1.00882E-003	4	..........a	-327.66
	1051	210.4	6.29929E-001	1.70172E-010	0.00000E+000	6.30000E-001	9.98822E-004	4	..........a	-327.66
	1052	210.6	6.19984E-001	1.43492E-010	0.00000E+000	6.20000E-001	9.84822E-004	4	..........a	-327.66
	1053	210.8	6.09960E-001	1.23040E-010	0.00000E+000	6.10000E-001	1.00242E-003	4	..........a	-327.66
	1054	211	5.99953E-001	1.03624E-010	0.00000E+000	6.00000E-001	9.89822E-004	4	..........a	-327.66
	1055	211.2	5.89973E-001	8.92702E-011	0.00000E+000	5.90000E-001	9.78322E-004	4	..........a	-327.66
	1056	211.4	5.80013E-001	7.55017E-011	0.00000E+000	5.80000E-001	1.01942E-003	4	..........a	-327.66
	1057	211.6	5.69954E-001	6.18932E-011	0.00000E+000	5.70000E-001	9.94322E-004	4	..........a	-327.66
	1058	211.8	5.59974E-001	5.30278E-011	0.00000E+000	5.60000E-001	1.00142E-003	4	..........a	-327.66
	1059	212	5.49959E-001	4.26614E-011	0.00000E+000	5.50000E-001	9.88922E-004	4	..........a	-327.66
	1060	212.2	5.39990E-001	3.18060E-011	0.00000E+000	5.40000E-001	1.02542E-003	4	..........a	-327.66
	1061	212.4	5.29961E-001	2.46977E-011	0.00000E+000	5.30000E-001	9.73122E-004	4	..........a	-327.66
	1062	212.6	5.19973E-001	1.57084E-011	0.00000E+000	5.20000E-001	9.98422E-004	4	..........a	-327.66
	1063	212.8	5.09932E-001	8.20711E-012	0.00000E+000	5.10000E-001	1.00432E-003	4	..........a	-327.66
	1064	213	4.99994E-001	-1.00024E-012	0.00000E+000	5.00000E-001	1.00592E-003	4	..........a	-327.66
	1065	213.2	4.89956E-001	-7.01147E-012	0.00000E+000	4.90000E-001	1.00302E-003	4	..........a	-327.66
	1066	213.4	4.79839E-001	-1.37237E-011	0.00000E+000	4.80000E-001	9.87822E-004	4	..........a	-327.66
	1067	213.6	4.69953E-001	-2.13610E-011	0.00000E+000	4.70000E-001	9.92022E-004	4	..........a	-327.66
	1068	213.8	4.60003E-001	-2.85943E-011	0.00000E+000	4.60000E-001	1.00552E-003	4	..........a	-327.66
	1069	214	4.49952E-001	-3.55226E-011	0.00000E+000	4.50000E-001	9.96522E-004	4	..........a	-327.66
	1070	214.2	4.39982E-001	-4.09738E-011	0.00000E+000	4.40000E-001	1.00642E-003	4	..........a	-327.66
	1071	214.4	4.29918E-001	-4.63100E-011	0.00000E+000	4.30000E-001	1.01262E-003	4	..........a	-327.66
	1072	214.6	4.20016E-001	-5.27872E-011	0.00000E+000	4.20000E-001	9.81522E-004	4	..........a	-327.66
	1073	214.8	4.09951E-001	-5.85105E-011	0.00000E+000	4.10000E-001	9.90122E-004	4	..........a	-327.66
	1074	215	3.99958E-001	-6.57557E-011	0.00000E+000	4.00000E-001	9.96622E-004	4	..........a	-327.66
	1075	215.2	3.89977E-001	-7.01189E-011	0.00000E+000	3.90000E-001	1.02492E-003	4	..........a	-327.66
	1076	215.4	3.80037E-001	-7.51541E-011	0.00000E+000	3.80000E-001	9.78322E-004	4	..........a	-327.66
	1077	215.6	3.69979E-001	-8.16173E-011	0.00000E+000	3.70000E-001	9.94722E-004	4	..........a	-327.66
	1078	215.8	3.59962E-001	-8.69775E-011	0.00000E+000	3.60000E-001	1.01232E-003	4	..........a	-327.66
	1079	216	3.49968E-001	-9.31608E-011	0.00000E+000	3.50000E-001	1.00962E-003	4	..........a	-327.66
	1080	216.2	3.40053E-001	-9.67869E-011	0.00000E+000	3.40000E-001	1.00902E-003	4	..........a	-327.66
	1081	216.4	3.30002E-001	-1.02519E-010	0.00000E+000	3.30000E-001	9.91222E-004	4	..........a	-327.66
	1082	216.6	3.20001E-001	-1.07061E-010	0.00000E+000	3.20000E-001	9.82622E-004	4	..........a	-327.66
	1083	216.8	3.09940E-001	-1.12759E-010	0.00000E+000	3.10000E-001	1.03032E-003	4	..........a	-327.66
	1084	217	3.00028E-001	-1.16649E-010	0.00000E+000	3.00000E-001	1.01132E-003	4	..........a	-327.66
	1085	217.2	2.89993E-001	-1.21162E-010	0.00000E+000	2.90000E-001	9.91022E-004	4	..........a	-327.66
	1086	217.4	2.79978E-001	-1.25610E-010	0.00000E+000	2.80000E-001	1.01872E-003	4	..........a	-327.66
	1087	217.6	2.69948E-001	-1.30665E-010	0.00000E+000	2.70000E-001	9.79322E-004	4	..........a	-327.66
	1088	217.8	2.60008E-001	-1.33766E-010	0.00000E+000	2.60000E-001	9.95122E-004	4	..........a	-327.66
	1089	218	2.49982E-001	-1.36788E-010	0.00000E+000	2.50000E-001	9.82522E-004	4	..........a	-327.66
	1090	218.2	2.39918E-001	-1.39734E-010	0.00000E+000	2.40000E-001	9.84222E-004	4	..........a	-327.66
	1091	218.4	2.29943E-001	-1.42947E-010	0.00000E+000	2.30000E-001	9.94322E-004	4	..........a	-327.66
	1092	218.6	2.19996E-001	-1.45819E-010	0.00000E+000	2.20000E-001	1.00182E-003	4	..........a	-327.66
	1093	218.8	2.09994E-001	-1.48095E-010	0.00000E+000	2.10000E-001	1.00842E-003	4	..........a	-327.66
	1094	219	2.00032E-001	-1.49884E-010	0.00000E+000	2.00000E-001	1.01922E-003	4	..........a	-327.66