File: example_project/raw_outputs/20240509_ZZZK_GM0016_HL03_E16_CV50.DTA
EXPLAIN
TAG	CV
TITLE	LABEL	Cyclic Voltammetry	Test &Identifier
DATE	LABEL	5/9/2024	Date
TIME	LABEL	15:49:56	Time
NOTES	NOTES	1	&Notes...

PSTAT	PSTAT	REF600P-43058	Potentiostat
VINIT	POTEN	0.00000E+000	T	Initial &E (V)
VLIMIT1	POTEN	8.00000E-001	F	Scan Limit &1 (V)
VLIMIT2	POTEN	-6.00000E-001	F	Scan Limit &2 (V)
VFINAL	POTEN	0.00000E+000	T	Final &E (V)
SCANRATE	QUANT	4.99999E+001	&Scan Rate (mV/s)
STEPSIZE	QUANT	1.00000E+001	St&ep Size (mV)
CYCLES	IQUANT	4	C&ycles (#)
IMODE	SELECTOR	0	I/E Range &Mode
IRANGE	QUANT	1.00000E-005	&Max Current (mA)
AREA	QUANT	1.00000E+000	Electrode &Area (cm^2)
ELECTRODETYPE	SELECTOR	0	Electrode Type
STRIPPING	TOGGLE	F	Used for Stripping
POLARITY	TOGGLE	F	Signal Polarity
CONDIT	TWOPARAM	F	1.50000E+001	0.00000E+000	Conditionin&g	Time(s)	E(V)
DELAY	TWOPARAM	T	1.00000E+001	0.00000E+000	Init. De&lay	Time(s)	Stab.(mV/s)
EQDELAY	QUANT	1.00000E+001	Equil. &Time (s)
IRCOMP	SELECTOR	0	IRCom&p
PFCOR	QUANT	5.00000E+001	PF Corr. (ohm)
SAMPLINGMODE	SELECTOR	1	Sampling &Mode
OCVCURVE	TABLE	39
	Pt	T	Vf	Vm	Ach	Over	Temp
	#	s	V vs. Ref.	V	V	bits	deg C
	0	0.258333	-1.69904E-001	-1.69904E-001	2.27526E-004	..........a	-327.66
	1	0.516667	-1.69909E-001	-1.70191E-001	2.25992E-004	..........a	-327.66
	2	0.775	-1.69940E-001	-1.70288E-001	2.40259E-004	..........a	-327.66
	3	1.03333	-1.70019E-001	-1.70602E-001	2.26259E-004	..........a	-327.66
	4	1.29167	-1.70157E-001	-1.70897E-001	2.31059E-004	..........a	-327.66
	5	1.55	-1.70352E-001	-1.71200E-001	2.38526E-004	..........a	-327.66
	6	1.80833	-1.70597E-001	-1.71498E-001	2.16726E-004	..........a	-327.66
	7	2.06667	-1.70874E-001	-1.71751E-001	2.20926E-004	..........a	-327.66
	8	2.325	-1.71165E-001	-1.72051E-001	2.27659E-004	..........a	-327.66
	9	2.58333	-1.71454E-001	-1.72267E-001	2.39059E-004	..........a	-327.66
	10	2.84167	-1.71735E-001	-1.72566E-001	2.35726E-004	..........a	-327.66
	11	3.1	-1.72007E-001	-1.72874E-001	2.34392E-004	..........a	-327.66
	12	3.35833	-1.72278E-001	-1.73156E-001	2.39726E-004	..........a	-327.66
	13	3.61667	-1.72557E-001	-1.73441E-001	2.39059E-004	..........a	-327.66
	14	3.875	-1.72842E-001	-1.73701E-001	2.31659E-004	..........a	-327.66
	15	4.13333	-1.73128E-001	-1.73990E-001	2.26192E-004	..........a	-327.66
	16	4.39167	-1.73410E-001	-1.74273E-001	2.37459E-004	..........a	-327.66
	17	4.65	-1.73690E-001	-1.74549E-001	2.28992E-004	..........a	-327.66
	18	4.90833	-1.73969E-001	-1.74817E-001	2.28792E-004	..........a	-327.66
	19	5.16667	-1.74247E-001	-1.75077E-001	2.32859E-004	..........a	-327.66
	20	5.425	-1.74522E-001	-1.75343E-001	2.22992E-004	..........a	-327.66
	21	5.68333	-1.74791E-001	-1.75595E-001	2.33792E-004	..........a	-327.66
	22	5.94167	-1.75056E-001	-1.75850E-001	2.35459E-004	..........a	-327.66
	23	6.2	-1.75317E-001	-1.76102E-001	2.39992E-004	..........a	-327.66
	24	6.45833	-1.75574E-001	-1.76336E-001	2.35259E-004	..........a	-327.66
	25	6.71667	-1.75827E-001	-1.76584E-001	2.29326E-004	..........a	-327.66
	26	6.975	-1.76076E-001	-1.76830E-001	2.43126E-004	..........a	-327.66
	27	7.23333	-1.76322E-001	-1.77079E-001	2.34459E-004	..........a	-327.66
	28	7.49167	-1.76567E-001	-1.77324E-001	2.33326E-004	..........a	-327.66
	29	7.75	-1.76812E-001	-1.77575E-001	2.43726E-004	..........a	-327.66
	30	8.00833	-1.77059E-001	-1.77800E-001	2.42726E-004	..........a	-327.66
	31	8.26667	-1.77304E-001	-1.78017E-001	2.38659E-004	..........a	-327.66
	32	8.525	-1.77543E-001	-1.78253E-001	2.43392E-004	..........a	-327.66
	33	8.78333	-1.77777E-001	-1.78496E-001	2.38592E-004	..........a	-327.66
	34	9.04167	-1.78009E-001	-1.78736E-001	2.38459E-004	..........a	-327.66
	35	9.3	-1.78241E-001	-1.78960E-001	2.38859E-004	..........a	-327.66
	36	9.5583	-1.78475E-001	-1.79154E-001	2.49459E-004	..........a	-327.66
	37	9.8167	-1.78706E-001	-1.79390E-001	2.35326E-004	..........a	-327.66
	38	10.075	-1.78931E-001	-1.79640E-001	2.30326E-004	..........a	-327.66
EOC	QUANT	-0.1789312	Open Circuit (V)
PSTATMODEL	IQUANT	7	Pstat Model
PSTATSECTION	LABEL	REF600P-43058	Pstat Section
PSTATSERIALNO	LABEL	43058	Pstat Serial Number
CTRLMODE	IQUANT	1	Control Mode
ELECTROMETER	IQUANT	0	RE=0 or CS=1
IESTAB	IQUANT	2	I/E Stability
CASPEED	IQUANT	4	Control Amp Speed
CONVENTION	IQUANT	1	Current Convention
ICHRANGE	IQUANT	2	Ich Range
ICHRANGEMODE	TOGGLE	F	Ich Auto Range
ICHOFFSETENABLE	TOGGLE	F	Ich Offset Enable
ICHOFFSET	QUANT	0	Ich Offset (V)
ICHFILTER	IQUANT	2	Ich Filter
VCHRANGE	IQUANT	2	Vch Range
VCHRANGEMODE	TOGGLE	F	Vch Auto Range
VCHOFFSETENABLE	TOGGLE	F	Vch Offset Enable
VCHOFFSET	QUANT	0	Vch Offset (V)
VCHFILTER	IQUANT	2	Vch Filter
ACHRANGE	IQUANT	2	Ach Range
ACHOFFSETENABLE	TOGGLE	F	Ach Offset Enable
ACHOFFSET	QUANT	0	Ach Offset (V)
ACHFILTER	IQUANT	1	Ach Filter
IERANGELOWERLIMIT	IQUANT	1	I/E Range Lower Limit
IERANGEMODE	TOGGLE	T	I/E AutoRange
IERANGE	IQUANT	4	I/E Range
POSFEEDENABLE	TOGGLE	F	Positive Feedback IR Comp
POSFEEDRESISTANCE	QUANT	0	Positive Feedback Resistance (ohm)
ACHSELECT	IQUANT	4	Ach Select
SENSECABLEID	IQUANT	7	Sense Cable ID
PWRCABLEID	IQUANT	7	Power Cable ID
DCCALDATE	LABEL	3/22/2024	DC Calibration Date
ACCALDATE	LABEL	3/22/2024	AC Calibration Date
THERMOSELECT	IQUANT	1	Thermo Select
FRAMEWORKVERSION	LABEL	7.8.4	Framework Version
INSTRUMENTVERSION	LABEL	4.42	Instrument Version
CURVE1	TABLE
	Pt	T	Vf	Im	Vu	Sig	Ach	IERange	Over	Temp
	#	s	V vs. Ref.	A	V	V	V	#	bits	deg C
	0	0.2	-1.79012E-001	3.79914E-009	0.00000E+000	-1.78950E-001	1.00049E-003	5	..........a	-327.66
	1	0.4	-1.68906E-001	1.29684E-008	0.00000E+000	-1.68950E-001	9.94592E-004	5	..........a	-327.66
	2	0.6	-1.58832E-001	1.92725E-008	0.00000E+000	-1.58950E-001	1.02539E-003	5	..........a	-327.66
	3	0.8	-1.48937E-001	2.45602E-008	0.00000E+000	-1.48950E-001	1.01969E-003	5	..........a	-327.66
	4	1	-1.38861E-001	2.93210E-008	0.00000E+000	-1.38950E-001	9.95092E-004	5	..........a	-327.66
	5	1.2	-1.28927E-001	3.37716E-008	0.00000E+000	-1.28950E-001	1.00179E-003	5	..........a	-327.66
	6	1.4	-1.18879E-001	3.79726E-008	0.00000E+000	-1.18950E-001	1.00429E-003	5	..........a	-327.66
	7	1.6	-1.08929E-001	4.20167E-008	0.00000E+000	-1.08950E-001	1.00619E-003	5	..........a	-327.66
	8	1.8	-9.89319E-002	4.59215E-008	0.00000E+000	-9.89500E-002	9.88892E-004	5	..........a	-327.66
	9	2	-8.88983E-002	4.96996E-008	0.00000E+000	-8.89500E-002	9.96492E-004	5	..........a	-327.66
	10	2.2	-7.88473E-002	5.33750E-008	0.00000E+000	-7.89500E-002	1.01889E-003	5	..........a	-327.66
	11	2.4	-6.89296E-002	5.69598E-008	0.00000E+000	-6.89500E-002	1.00179E-003	5	..........a	-327.66
	12	2.6	-5.89127E-002	6.04851E-008	0.00000E+000	-5.89500E-002	1.01669E-003	5	..........a	-327.66
	13	2.8	-4.89353E-002	6.39754E-008	0.00000E+000	-4.89500E-002	9.98592E-004	5	..........a	-327.66
	14	3	-3.89170E-002	6.73952E-008	0.00000E+000	-3.89500E-002	1.02339E-003	5	..........a	-327.66
	15	3.2	-2.89450E-002	7.07740E-008	0.00000E+000	-2.89500E-002	1.00049E-003	5	..........a	-327.66
	16	3.4	-1.89549E-002	7.40846E-008	0.00000E+000	-1.89500E-002	9.81692E-004	5	..........a	-327.66
	17	3.6	-8.95221E-003	7.73883E-008	0.00000E+000	-8.95000E-003	9.76292E-004	5	..........a	-327.66
	18	3.8	1.16524E-003	8.04687E-008	0.00000E+000	1.05000E-003	1.00179E-003	5	..........a	-327.66
	19	4	1.10654E-002	8.38837E-008	0.00000E+000	1.10500E-002	9.90892E-004	5	..........a	-327.66
	20	4.2	2.10465E-002	8.71185E-008	0.00000E+000	2.10500E-002	1.02039E-003	5	..........a	-327.66
	21	4.4	3.10752E-002	9.03549E-008	0.00000E+000	3.10500E-002	1.00459E-003	5	..........a	-327.66
	22	4.6	4.11627E-002	9.35563E-008	0.00000E+000	4.10500E-002	1.01689E-003	5	..........a	-327.66
	23	4.8	5.10561E-002	9.67339E-008	0.00000E+000	5.10500E-002	9.99892E-004	5	..........a	-327.66
	24	5	6.10481E-002	9.99647E-008	0.00000E+000	6.10500E-002	9.98792E-004	5	..........a	-327.66
	25	5.2	7.10790E-002	1.03159E-007	0.00000E+000	7.10500E-002	9.83592E-004	5	..........a	-327.66
	26	5.4	8.11429E-002	1.06393E-007	0.00000E+000	8.10500E-002	1.01609E-003	5	..........a	-327.66
	27	5.6	9.10420E-002	1.09622E-007	0.00000E+000	9.10500E-002	9.88392E-004	5	..........a	-327.66
	28	5.8	1.01037E-001	1.12911E-007	0.00000E+000	1.01050E-001	1.01379E-003	5	..........a	-327.66
	29	6	1.11070E-001	1.16259E-007	0.00000E+000	1.11050E-001	1.00289E-003	5	..........a	-327.66
	30	6.2	1.21157E-001	1.19571E-007	0.00000E+000	1.21050E-001	1.00389E-003	5	..........a	-327.66
	31	6.4	1.31052E-001	1.22896E-007	0.00000E+000	1.31050E-001	9.89192E-004	5	..........a	-327.66
	32	6.6	1.41086E-001	1.26265E-007	0.00000E+000	1.41050E-001	1.00039E-003	5	..........a	-327.66
	33	6.8	1.51070E-001	1.29670E-007	0.00000E+000	1.51050E-001	9.84492E-004	5	..........a	-327.66
	34	7	1.61123E-001	1.33070E-007	0.00000E+000	1.61050E-001	1.00499E-003	5	..........a	-327.66
	35	7.2	1.71029E-001	1.36549E-007	0.00000E+000	1.71050E-001	9.87292E-004	5	..........a	-327.66
	36	7.4	1.81038E-001	1.40029E-007	0.00000E+000	1.81050E-001	9.93892E-004	5	..........a	-327.66
	37	7.6	1.91034E-001	1.43559E-007	0.00000E+000	1.91050E-001	1.00689E-003	5	..........a	-327.66
	38	7.8	2.01137E-001	1.47164E-007	0.00000E+000	2.01050E-001	9.97292E-004	5	..........a	-327.66
	39	8	2.10997E-001	1.50779E-007	0.00000E+000	2.11050E-001	1.00649E-003	5	..........a	-327.66
	40	8.2	2.21025E-001	1.54496E-007	0.00000E+000	2.21050E-001	9.97592E-004	5	..........a	-327.66
	41	8.4	2.30981E-001	1.58235E-007	0.00000E+000	2.31050E-001	9.94692E-004	5	..........a	-327.66
	42	8.6	2.41057E-001	1.62090E-007	0.00000E+000	2.41050E-001	9.92792E-004	5	..........a	-327.66
	43	8.8	2.50986E-001	1.65995E-007	0.00000E+000	2.51050E-001	9.96592E-004	5	..........a	-327.66
	44	9	2.60959E-001	1.70025E-007	0.00000E+000	2.61050E-001	1.01319E-003	5	..........a	-327.66
	45	9.2	2.70764E-001	1.74105E-007	0.00000E+000	2.71050E-001	9.93392E-004	5	..........a	-327.66
	46	9.4	2.81096E-001	1.78275E-007	0.00000E+000	2.81050E-001	1.00859E-003	5	..........a	-327.66
	47	9.6	2.90987E-001	1.82548E-007	0.00000E+000	2.91050E-001	1.00569E-003	5	..........a	-327.66
	48	9.8	3.00898E-001	1.86895E-007	0.00000E+000	3.01050E-001	1.00289E-003	5	..........a	-327.66
	49	10	3.10990E-001	1.91326E-007	0.00000E+000	3.11050E-001	1.00889E-003	5	..........a	-327.66
	50	10.2	3.21105E-001	1.95879E-007	0.00000E+000	3.21050E-001	1.01099E-003	5	..........a	-327.66
	51	10.4	3.30979E-001	2.00504E-007	0.00000E+000	3.31050E-001	9.93492E-004	5	..........a	-327.66
	52	10.6	3.40983E-001	2.05244E-007	0.00000E+000	3.41050E-001	9.96092E-004	5	..........a	-327.66
	53	10.8	3.50975E-001	2.10062E-007	0.00000E+000	3.51050E-001	9.98392E-004	5	..........a	-327.66
	54	11	3.61070E-001	2.14966E-007	0.00000E+000	3.61050E-001	9.94092E-004	5	..........a	-327.66
	55	11.2	3.70978E-001	2.19929E-007	0.00000E+000	3.71050E-001	9.79792E-004	5	..........a	-327.66
	56	11.4	3.80963E-001	2.25016E-007	0.00000E+000	3.81050E-001	1.00209E-003	5	..........a	-327.66
	57	11.6	3.90975E-001	2.30183E-007	0.00000E+000	3.91050E-001	1.00349E-003	5	..........a	-327.66
	58	11.8	4.01088E-001	2.35430E-007	0.00000E+000	4.01050E-001	9.98192E-004	5	..........a	-327.66
	59	12	4.10943E-001	2.40715E-007	0.00000E+000	4.11050E-001	9.68692E-004	5	..........a	-327.66
	60	12.2	4.20954E-001	2.46078E-007	0.00000E+000	4.21050E-001	9.91292E-004	5	..........a	-327.66
	61	12.4	4.30919E-001	2.51473E-007	0.00000E+000	4.31050E-001	1.00899E-003	5	..........a	-327.66
	62	12.6	4.40999E-001	2.56848E-007	0.00000E+000	4.41050E-001	9.88792E-004	5	..........a	-327.66
	63	12.8	4.50933E-001	2.62263E-007	0.00000E+000	4.51050E-001	9.77092E-004	5	..........a	-327.66
	64	13	4.60855E-001	2.67757E-007	0.00000E+000	4.61050E-001	1.00869E-003	5	..........a	-327.66
	65	13.2	4.70924E-001	2.73284E-007	0.00000E+000	4.71050E-001	9.98592E-004	5	..........a	-327.66
	66	13.4	4.81013E-001	2.78813E-007	0.00000E+000	4.81050E-001	9.88592E-004	5	..........a	-327.66
	67	13.6	4.90885E-001	2.84319E-007	0.00000E+000	4.91050E-001	9.78292E-004	5	..........a	-327.66
	68	13.8	5.00904E-001	2.89878E-007	0.00000E+000	5.01050E-001	9.96992E-004	5	..........a	-327.66
	69	14	5.10840E-001	2.95348E-007	0.00000E+000	5.11050E-001	9.95292E-004	5	..........a	-327.66
	70	14.2	5.20934E-001	3.00813E-007	0.00000E+000	5.21050E-001	1.00329E-003	5	..........a	-327.66
	71	14.4	5.30839E-001	3.06176E-007	0.00000E+000	5.31050E-001	9.89792E-004	5	..........a	-327.66
	72	14.6	5.40845E-001	3.11465E-007	0.00000E+000	5.41050E-001	9.87592E-004	5	..........a	-327.66
	73	14.8	5.50895E-001	3.16706E-007	0.00000E+000	5.51050E-001	9.82392E-004	5	..........a	-327.66
	74	15	5.60951E-001	3.21854E-007	0.00000E+000	5.61050E-001	9.73792E-004	5	..........a	-327.66
	75	15.2	5.70867E-001	3.26921E-007	0.00000E+000	5.71050E-001	9.87892E-004	5	..........a	-327.66
	76	15.4	5.80794E-001	3.31960E-007	0.00000E+000	5.81050E-001	1.01669E-003	5	..........a	-327.66
	77	15.6	5.90809E-001	3.36868E-007	0.00000E+000	5.91050E-001	1.00379E-003	5	..........a	-327.66
	78	15.8	6.00895E-001	3.41674E-007	0.00000E+000	6.01050E-001	9.89992E-004	5	..........a	-327.66
	79	16	6.10821E-001	3.46304E-007	0.00000E+000	6.11050E-001	1.00099E-003	5	..........a	-327.66
	80	16.2	6.20780E-001	3.50698E-007	0.00000E+000	6.21050E-001	1.00749E-003	5	..........a	-327.66
	81	16.4	6.30819E-001	3.54810E-007	0.00000E+000	6.31050E-001	9.94892E-004	5	..........a	-327.66
	82	16.6	6.40835E-001	3.58672E-007	0.00000E+000	6.41050E-001	9.93992E-004	5	..........a	-327.66
	83	16.8	6.50869E-001	3.62215E-007	0.00000E+000	6.51050E-001	1.00159E-003	5	..........a	-327.66
	84	17	6.60797E-001	3.65534E-007	0.00000E+000	6.61050E-001	1.01199E-003	5	..........a	-327.66
	85	17.2	6.70789E-001	3.68555E-007	0.00000E+000	6.71050E-001	1.01689E-003	5	..........a	-327.66
	86	17.4	6.80768E-001	3.71359E-007	0.00000E+000	6.81050E-001	9.77492E-004	5	..........a	-327.66
	87	17.6	6.90790E-001	3.74152E-007	0.00000E+000	6.91050E-001	1.00919E-003	5	..........a	-327.66
	88	17.8	7.00804E-001	3.76662E-007	0.00000E+000	7.01050E-001	1.00349E-003	5	..........a	-327.66
	89	18	7.10788E-001	3.79077E-007	0.00000E+000	7.11050E-001	1.00099E-003	5	..........a	-327.66
	90	18.2	7.20846E-001	3.81418E-007	0.00000E+000	7.21050E-001	9.92192E-004	5	..........a	-327.66
	91	18.4	7.30791E-001	3.83702E-007	0.00000E+000	7.31050E-001	1.00629E-003	5	..........a	-327.66
	92	18.6	7.40771E-001	3.85867E-007	0.00000E+000	7.41050E-001	1.01179E-003	5	..........a	-327.66
	93	18.8	7.50814E-001	3.88040E-007	0.00000E+000	7.51050E-001	9.90992E-004	5	..........a	-327.66
	94	19	7.60878E-001	3.90243E-007	0.00000E+000	7.61050E-001	9.87092E-004	5	..........a	-327.66
	95	19.2	7.70800E-001	3.92409E-007	0.00000E+000	7.71050E-001	1.00729E-003	5	..........a	-327.66
	96	19.4	7.80830E-001	3.94506E-007	0.00000E+000	7.81050E-001	9.95392E-004	5	..........a	-327.66
	97	19.6	7.90782E-001	3.96654E-007	0.00000E+000	7.91050E-001	1.01149E-003	5	..........a	-327.66
	98	19.8	8.00844E-001	3.98744E-007	0.00000E+000	8.01050E-001	9.80592E-004	5	..........a	-327.66
	99	20	7.90804E-001	3.57318E-007	0.00000E+000	7.91050E-001	1.00119E-003	5	..........a	-327.66
	100	20.2	7.80847E-001	3.26765E-007	0.00000E+000	7.81050E-001	9.98792E-004	5	..........a	-327.66
	101	20.4	7.70891E-001	3.02316E-007	0.00000E+000	7.71050E-001	9.96292E-004	5	..........a	-327.66
	102	20.6	7.60967E-001	2.81817E-007	0.00000E+000	7.61050E-001	9.83592E-004	5	..........a	-327.66
	103	20.8	7.50893E-001	2.64313E-007	0.00000E+000	7.51050E-001	1.00209E-003	5	..........a	-327.66
	104	21	7.40826E-001	2.48937E-007	0.00000E+000	7.41050E-001	9.97692E-004	5	..........a	-327.66
	105	21.2	7.30864E-001	2.35306E-007	0.00000E+000	7.31050E-001	1.01189E-003	5	..........a	-327.66
	106	21.4	7.20959E-001	2.23126E-007	0.00000E+000	7.21050E-001	1.00869E-003	5	..........a	-327.66
	107	21.6	7.10875E-001	2.12041E-007	0.00000E+000	7.11050E-001	9.97092E-004	5	..........a	-327.66
	108	21.8	7.00911E-001	2.01914E-007	0.00000E+000	7.01050E-001	1.00069E-003	5	..........a	-327.66
	109	22	6.90835E-001	1.92578E-007	0.00000E+000	6.91050E-001	1.01919E-003	5	..........a	-327.66
	110	22.2	6.80978E-001	1.83880E-007	0.00000E+000	6.81050E-001	1.00119E-003	5	..........a	-327.66
	111	22.4	6.70920E-001	1.75778E-007	0.00000E+000	6.71050E-001	9.78692E-004	5	..........a	-327.66
	112	22.6	6.60891E-001	1.68165E-007	0.00000E+000	6.61050E-001	1.00979E-003	5	..........a	-327.66
	113	22.8	6.50956E-001	1.60989E-007	0.00000E+000	6.51050E-001	9.88092E-004	5	..........a	-327.66
	114	23	6.41025E-001	1.54175E-007	0.00000E+000	6.41050E-001	1.00649E-003	5	..........a	-327.66
	115	23.2	6.30944E-001	1.47702E-007	0.00000E+000	6.31050E-001	9.91992E-004	5	..........a	-327.66
	116	23.4	6.20893E-001	1.41489E-007	0.00000E+000	6.21050E-001	1.02689E-003	5	..........a	-327.66
	117	23.6	6.10966E-001	1.35557E-007	0.00000E+000	6.11050E-001	1.00139E-003	5	..........a	-327.66
	118	23.8	6.01030E-001	1.29839E-007	0.00000E+000	6.01050E-001	9.88492E-004	5	..........a	-327.66
	119	24	5.90995E-001	1.24346E-007	0.00000E+000	5.91050E-001	9.93492E-004	5	..........a	-327.66
	120	24.2	5.80993E-001	1.18965E-007	0.00000E+000	5.81050E-001	9.94092E-004	5	..........a	-327.66
	121	24.4	5.70998E-001	1.13814E-007	0.00000E+000	5.71050E-001	9.98092E-004	5	..........a	-327.66
	122	24.6	5.61114E-001	1.08725E-007	0.00000E+000	5.61050E-001	9.87092E-004	5	..........a	-327.66
	123	24.8	5.51022E-001	1.03838E-007	0.00000E+000	5.51050E-001	1.00419E-003	5	..........a	-327.66
	124	25	5.40964E-001	9.90847E-008	0.00000E+000	5.41050E-001	9.99192E-004	5	..........a	-327.66
	125	25.2	5.30983E-001	9.44799E-008	0.00000E+000	5.31050E-001	1.01119E-003	5	..........a	-327.66
	126	25.4	5.21079E-001	8.99265E-008	0.00000E+000	5.21050E-001	9.85792E-004	5	..........a	-327.66
	127	25.6	5.10975E-001	8.54961E-008	0.00000E+000	5.11050E-001	9.97092E-004	5	..........a	-327.66
	128	25.8	5.01061E-001	8.11463E-008	0.00000E+000	5.01050E-001	9.91892E-004	5	..........a	-327.66
	129	26	4.91005E-001	7.68846E-008	0.00000E+000	4.91050E-001	1.00229E-003	5	..........a	-327.66
	130	26.2	4.81135E-001	7.27368E-008	0.00000E+000	4.81050E-001	9.94492E-004	5	..........a	-327.66
	131	26.4	4.71016E-001	6.86158E-008	0.00000E+000	4.71050E-001	9.83592E-004	5	..........a	-327.66
	132	26.6	4.60969E-001	6.45919E-008	0.00000E+000	4.61050E-001	9.95192E-004	5	..........a	-327.66
	133	26.8	4.51017E-001	6.05734E-008	0.00000E+000	4.51050E-001	1.00149E-003	5	..........a	-327.66
	134	27	4.41115E-001	5.66734E-008	0.00000E+000	4.41050E-001	1.01109E-003	5	..........a	-327.66
	135	27.2	4.31040E-001	5.28155E-008	0.00000E+000	4.31050E-001	9.81892E-004	5	..........a	-327.66
	136	27.4	4.21016E-001	4.89648E-008	0.00000E+000	4.21050E-001	1.00909E-003	5	..........a	-327.66
	137	27.6	4.11027E-001	4.51834E-008	0.00000E+000	4.11050E-001	1.00819E-003	5	..........a	-327.66
	138	27.8	4.01148E-001	4.14016E-008	0.00000E+000	4.01050E-001	1.02159E-003	5	..........a	-327.66
	139	28	3.91066E-001	3.77047E-008	0.00000E+000	3.91050E-001	1.00409E-003	5	..........a	-327.66
	140	28.2	3.81029E-001	3.40565E-008	0.00000E+000	3.81050E-001	1.01539E-003	5	..........a	-327.66
	141	28.4	3.71047E-001	3.04084E-008	0.00000E+000	3.71050E-001	9.99092E-004	5	..........a	-327.66
	142	28.6	3.61148E-001	2.68292E-008	0.00000E+000	3.61050E-001	1.00709E-003	5	..........a	-327.66
	143	28.8	3.51087E-001	2.32532E-008	0.00000E+000	3.51050E-001	1.00069E-003	5	..........a	-327.66
	144	29	3.41063E-001	1.97213E-008	0.00000E+000	3.41050E-001	1.00639E-003	5	..........a	-327.66
	145	29.2	3.31060E-001	1.62154E-008	0.00000E+000	3.31050E-001	1.00849E-003	5	..........a	-327.66
	146	29.4	3.21113E-001	1.27304E-008	0.00000E+000	3.21050E-001	1.00869E-003	5	..........a	-327.66
	147	29.6	3.11080E-001	9.27992E-009	0.00000E+000	3.11050E-001	9.98392E-004	5	..........a	-327.66
	148	29.8	3.01022E-001	5.85142E-009	0.00000E+000	3.01050E-001	1.01199E-003	5	..........a	-327.66
	149	30	2.91052E-001	2.44376E-009	0.00000E+000	2.91050E-001	1.00509E-003	5	..........a	-327.66
	150	30.2	2.81143E-001	-1.01440E-009	0.00000E+000	2.81050E-001	1.00659E-003	5	..........a	-327.66
	151	30.4	2.71026E-001	-4.36417E-009	0.00000E+000	2.71050E-001	9.91192E-004	5	..........a	-327.66
	152	30.6	2.61062E-001	-7.73895E-009	0.00000E+000	2.61050E-001	1.01019E-003	5	..........a	-327.66
	153	30.8	2.51081E-001	-1.11472E-008	0.00000E+000	2.51050E-001	1.01389E-003	5	..........a	-327.66
	154	31	2.41142E-001	-1.44627E-008	0.00000E+000	2.41050E-001	9.93292E-004	5	..........a	-327.66
	155	31.2	2.31074E-001	-1.78078E-008	0.00000E+000	2.31050E-001	1.00379E-003	5	..........a	-327.66
	156	31.4	2.21105E-001	-2.11596E-008	0.00000E+000	2.21050E-001	9.98492E-004	5	..........a	-327.66
	157	31.6	2.11101E-001	-2.44704E-008	0.00000E+000	2.11050E-001	9.84092E-004	5	..........a	-327.66
	158	31.8	2.01171E-001	-2.82933E-008	0.00000E+000	2.01050E-001	9.93792E-004	5	..........a	-327.66
	159	32	1.91137E-001	-3.13898E-008	0.00000E+000	1.91050E-001	9.81792E-004	5	..........a	-327.66
	160	32.2	1.81141E-001	-3.46758E-008	0.00000E+000	1.81050E-001	1.00699E-003	5	..........a	-327.66
	161	32.4	1.71101E-001	-3.79788E-008	0.00000E+000	1.71050E-001	1.00209E-003	5	..........a	-327.66
	162	32.6	1.61193E-001	-4.12866E-008	0.00000E+000	1.61050E-001	1.01609E-003	5	..........a	-327.66
	163	32.8	1.51153E-001	-4.45896E-008	0.00000E+000	1.51050E-001	9.91592E-004	5	..........a	-327.66
	164	33	1.41195E-001	-4.78558E-008	0.00000E+000	1.41050E-001	1.01009E-003	5	..........a	-327.66
	165	33.2	1.31135E-001	-5.10719E-008	0.00000E+000	1.31050E-001	1.01149E-003	5	..........a	-327.66
	166	33.4	1.21160E-001	-5.42683E-008	0.00000E+000	1.21050E-001	1.00639E-003	5	..........a	-327.66
	167	33.6	1.11165E-001	-5.74481E-008	0.00000E+000	1.11050E-001	1.01539E-003	5	..........a	-327.66
	168	33.8	1.01118E-001	-6.06646E-008	0.00000E+000	1.01050E-001	1.02609E-003	5	..........a	-327.66
	169	34	9.11451E-002	-6.39343E-008	0.00000E+000	9.10500E-002	9.95792E-004	5	..........a	-327.66
	170	34.2	8.11885E-002	-6.70908E-008	0.00000E+000	8.10500E-002	1.00769E-003	5	..........a	-327.66
	171	34.4	7.11881E-002	-7.02328E-008	0.00000E+000	7.10500E-002	9.91192E-004	5	..........a	-327.66
	172	34.6	6.11426E-002	-7.33859E-008	0.00000E+000	6.10500E-002	1.00359E-003	5	..........a	-327.66
	173	34.8	5.11179E-002	-7.65247E-008	0.00000E+000	5.10500E-002	1.01849E-003	5	..........a	-327.66
	174	35	4.11786E-002	-7.96102E-008	0.00000E+000	4.10500E-002	1.01459E-003	5	..........a	-327.66
	175	35.2	3.11598E-002	-8.27823E-008	0.00000E+000	3.10500E-002	9.86692E-004	5	..........a	-327.66
	176	35.4	2.11776E-002	-8.58917E-008	0.00000E+000	2.10500E-002	1.02419E-003	5	..........a	-327.66
	177	35.6	1.11733E-002	-8.90713E-008	0.00000E+000	1.10500E-002	1.02199E-003	5	..........a	-327.66
	178	35.8	1.23949E-003	-9.21399E-008	0.00000E+000	1.05000E-003	1.01569E-003	5	..........a	-327.66
	179	36	-8.84201E-003	-9.52324E-008	0.00000E+000	-8.95000E-003	9.98692E-004	5	..........a	-327.66
	180	36.2	-1.88432E-002	-9.83428E-008	0.00000E+000	-1.89500E-002	9.99092E-004	5	..........a	-327.66
	181	36.4	-2.88718E-002	-1.01378E-007	0.00000E+000	-2.89500E-002	1.01999E-003	5	..........a	-327.66
	182	36.6	-3.88207E-002	-1.04448E-007	0.00000E+000	-3.89500E-002	1.01109E-003	5	..........a	-327.66
	183	36.8	-4.88515E-002	-1.07494E-007	0.00000E+000	-4.89500E-002	9.99092E-004	5	..........a	-327.66
	184	37	-5.88603E-002	-1.10489E-007	0.00000E+000	-5.89500E-002	1.00229E-003	5	..........a	-327.66
	185	37.2	-6.88356E-002	-1.13487E-007	0.00000E+000	-6.89500E-002	1.00339E-003	5	..........a	-327.66
	186	37.4	-7.87832E-002	-1.16471E-007	0.00000E+000	-7.89500E-002	1.00479E-003	5	..........a	-327.66
	187	37.6	-8.87746E-002	-1.19378E-007	0.00000E+000	-8.89500E-002	1.00639E-003	5	..........a	-327.66
	188	37.8	-9.88425E-002	-1.22330E-007	0.00000E+000	-9.89500E-002	1.01029E-003	5	..........a	-327.66
	189	38	-1.08865E-001	-1.25220E-007	0.00000E+000	-1.08950E-001	1.01459E-003	5	..........a	-327.66
	190	38.2	-1.18791E-001	-1.28053E-007	0.00000E+000	-1.18950E-001	1.00919E-003	5	..........a	-327.66
	191	38.4	-1.28851E-001	-1.30863E-007	0.00000E+000	-1.28950E-001	1.00019E-003	5	..........a	-327.66
	192	38.6	-1.38804E-001	-1.33669E-007	0.00000E+000	-1.38950E-001	1.00099E-003	5	..........a	-327.66
	193	38.8	-1.48849E-001	-1.36406E-007	0.00000E+000	-1.48950E-001	1.02149E-003	5	..........a	-327.66
	194	39	-1.58801E-001	-1.39164E-007	0.00000E+000	-1.58950E-001	1.00549E-003	5	..........a	-327.66
	195	39.2	-1.68808E-001	-1.41811E-007	0.00000E+000	-1.68950E-001	1.00509E-003	5	..........a	-327.66
	196	39.4	-1.78870E-001	-1.44510E-007	0.00000E+000	-1.78950E-001	1.01629E-003	5	..........a	-327.66
	197	39.6	-1.88814E-001	-1.47193E-007	0.00000E+000	-1.88950E-001	1.00829E-003	5	..........a	-327.66
	198	39.8	-1.98795E-001	-1.49769E-007	0.00000E+000	-1.98950E-001	1.01419E-003	5	..........a	-327.66
	199	40	-2.08765E-001	-1.52349E-007	0.00000E+000	-2.08950E-001	9.87892E-004	5	..........a	-327.66
	200	40.2	-2.18777E-001	-1.54930E-007	0.00000E+000	-2.18950E-001	1.01059E-003	5	..........a	-327.66
	201	40.4	-2.28804E-001	-1.57428E-007	0.00000E+000	-2.28950E-001	9.96392E-004	5	..........a	-327.66
	202	40.6	-2.38815E-001	-1.59926E-007	0.00000E+000	-2.38950E-001	1.00319E-003	5	..........a	-327.66
	203	40.8	-2.48757E-001	-1.62412E-007	0.00000E+000	-2.48950E-001	9.94892E-004	5	..........a	-327.66
	204	41	-2.58796E-001	-1.64882E-007	0.00000E+000	-2.58950E-001	1.00269E-003	5	..........a	-327.66
	205	41.2	-2.68751E-001	-1.67281E-007	0.00000E+000	-2.68950E-001	9.93092E-004	5	..........a	-327.66
	206	41.4	-2.78737E-001	-1.69671E-007	0.00000E+000	-2.78950E-001	1.01159E-003	5	..........a	-327.66
	207	41.6	-2.88722E-001	-1.72366E-007	0.00000E+000	-2.88950E-001	9.91792E-004	5	..........a	-327.66
	208	41.8	-2.98751E-001	-1.74574E-007	0.00000E+000	-2.98950E-001	1.01579E-003	5	..........a	-327.66
	209	42	-3.08817E-001	-1.76851E-007	0.00000E+000	-3.08950E-001	1.02959E-003	5	..........a	-327.66
	210	42.2	-3.18712E-001	-1.79239E-007	0.00000E+000	-3.18950E-001	1.01389E-003	5	..........a	-327.66
	211	42.4	-3.28746E-001	-1.81670E-007	0.00000E+000	-3.28950E-001	1.00639E-003	5	..........a	-327.66
	212	42.6	-3.38798E-001	-1.84028E-007	0.00000E+000	-3.38950E-001	1.00829E-003	5	..........a	-327.66
	213	42.8	-3.48759E-001	-1.86670E-007	0.00000E+000	-3.48950E-001	9.96592E-004	5	..........a	-327.66
	214	43	-3.58743E-001	-1.89163E-007	0.00000E+000	-3.58950E-001	1.01119E-003	5	..........a	-327.66
	215	43.2	-3.68740E-001	-1.91622E-007	0.00000E+000	-3.68950E-001	9.90492E-004	5	..........a	-327.66
	216	43.4	-3.78763E-001	-1.94031E-007	0.00000E+000	-3.78950E-001	1.02059E-003	5	..........a	-327.66
	217	43.6	-3.88801E-001	-1.96620E-007	0.00000E+000	-3.88950E-001	1.00869E-003	5	..........a	-327.66
	218	43.8	-3.98708E-001	-1.99186E-007	0.00000E+000	-3.98950E-001	1.00269E-003	5	..........a	-327.66
	219	44	-4.08745E-001	-2.01745E-007	0.00000E+000	-4.08950E-001	9.91492E-004	5	..........a	-327.66
	220	44.2	-4.18703E-001	-2.04284E-007	0.00000E+000	-4.18950E-001	1.01039E-003	5	..........a	-327.66
	221	44.4	-4.28728E-001	-2.06992E-007	0.00000E+000	-4.28950E-001	1.00059E-003	5	..........a	-327.66
	222	44.6	-4.38697E-001	-2.09662E-007	0.00000E+000	-4.38950E-001	1.02319E-003	5	..........a	-327.66
	223	44.8	-4.48688E-001	-2.12298E-007	0.00000E+000	-4.48950E-001	1.00499E-003	5	..........a	-327.66
	224	45	-4.58727E-001	-2.15238E-007	0.00000E+000	-4.58950E-001	1.00079E-003	5	..........a	-327.66
	225	45.2	-4.68738E-001	-2.17952E-007	0.00000E+000	-4.68950E-001	1.01379E-003	5	..........a	-327.66
	226	45.4	-4.78680E-001	-2.20786E-007	0.00000E+000	-4.78950E-001	1.00199E-003	5	..........a	-327.66
	227	45.6	-4.88637E-001	-2.23675E-007	0.00000E+000	-4.88950E-001	9.93792E-004	5	..........a	-327.66
	228	45.8	-4.98742E-001	-2.26670E-007	0.00000E+000	-4.98950E-001	1.01189E-003	5	..........a	-327.66
	229	46	-5.08729E-001	-2.29517E-007	0.00000E+000	-5.08950E-001	1.01719E-003	5	..........a	-327.66
	230	46.2	-5.18751E-001	-2.32485E-007	0.00000E+000	-5.18950E-001	1.01719E-003	5	..........a	-327.66
	231	46.4	-5.28680E-001	-2.35260E-007	0.00000E+000	-5.28950E-001	1.00059E-003	5	..........a	-327.66
	232	46.6	-5.38755E-001	-2.38326E-007	0.00000E+000	-5.38950E-001	9.94292E-004	5	..........a	-327.66
	233	46.8	-5.48684E-001	-2.41263E-007	0.00000E+000	-5.48950E-001	9.82892E-004	5	..........a	-327.66
	234	47	-5.58737E-001	-2.44230E-007	0.00000E+000	-5.58950E-001	1.02149E-003	5	..........a	-327.66
	235	47.2	-5.68626E-001	-2.47462E-007	0.00000E+000	-5.68950E-001	9.97192E-004	5	..........a	-327.66
	236	47.4	-5.78668E-001	-2.50528E-007	0.00000E+000	-5.78950E-001	9.93592E-004	5	..........a	-327.66
	237	47.6	-5.88765E-001	-2.53598E-007	0.00000E+000	-5.88950E-001	9.98792E-004	5	..........a	-327.66
	238	47.8	-5.98695E-001	-2.56881E-007	0.00000E+000	-5.98950E-001	1.00469E-003	5	..........a	-327.66
CURVE2	TABLE
	Pt	T	Vf	Im	Vu	Sig	Ach	IERange	Over	Temp
	#	s	V vs. Ref.	A	V	V	V	#	bits	deg C
	239	48	-5.89779E-001	-2.29568E-007	0.00000E+000	-5.90000E-001	9.97492E-004	5	..........a	-327.66
	240	48.2	-5.79735E-001	-2.08921E-007	0.00000E+000	-5.80000E-001	9.95692E-004	5	..........a	-327.66
	241	48.4	-5.69777E-001	-1.92362E-007	0.00000E+000	-5.70000E-001	1.01229E-003	5	..........a	-327.66
	242	48.6	-5.59787E-001	-1.78474E-007	0.00000E+000	-5.60000E-001	1.01199E-003	5	..........a	-327.66
	243	48.8	-5.49812E-001	-1.66314E-007	0.00000E+000	-5.50000E-001	9.98792E-004	5	..........a	-327.66
	244	49	-5.39720E-001	-1.55290E-007	0.00000E+000	-5.40000E-001	1.00339E-003	5	..........a	-327.66
	245	49.2	-5.29822E-001	-1.45258E-007	0.00000E+000	-5.30000E-001	9.98892E-004	5	..........a	-327.66
	246	49.4	-5.19842E-001	-1.35989E-007	0.00000E+000	-5.20000E-001	1.00769E-003	5	..........a	-327.66
	247	49.6	-5.09818E-001	-1.27510E-007	0.00000E+000	-5.10000E-001	1.00559E-003	5	..........a	-327.66
	248	49.8	-4.99792E-001	-1.19355E-007	0.00000E+000	-5.00000E-001	9.95792E-004	5	..........a	-327.66
	249	50	-4.89818E-001	-1.11636E-007	0.00000E+000	-4.90000E-001	9.94592E-004	5	..........a	-327.66
	250	50.2	-4.79830E-001	-1.04317E-007	0.00000E+000	-4.80000E-001	1.00599E-003	5	..........a	-327.66
	251	50.4	-4.69828E-001	-9.73847E-008	0.00000E+000	-4.70000E-001	9.89392E-004	5	..........a	-327.66
	252	50.6	-4.59769E-001	-9.06797E-008	0.00000E+000	-4.60000E-001	9.82292E-004	5	..........a	-327.66
	253	50.8	-4.49834E-001	-8.42176E-008	0.00000E+000	-4.50000E-001	9.91192E-004	5	..........a	-327.66
	254	51	-4.39863E-001	-7.78791E-008	0.00000E+000	-4.40000E-001	9.99192E-004	5	..........a	-327.66
	255	51.2	-4.29844E-001	-7.18666E-008	0.00000E+000	-4.30000E-001	1.00069E-003	5	..........a	-327.66
	256	51.4	-4.19785E-001	-6.59977E-008	0.00000E+000	-4.20000E-001	9.91492E-004	5	..........a	-327.66
	257	51.6	-4.09854E-001	-6.02635E-008	0.00000E+000	-4.10000E-001	1.01209E-003	5	..........a	-327.66
	258	51.8	-3.99847E-001	-5.47926E-008	0.00000E+000	-4.00000E-001	1.01139E-003	5	..........a	-327.66
	259	52	-3.89908E-001	-4.93105E-008	0.00000E+000	-3.90000E-001	9.94792E-004	5	..........a	-327.66
	260	52.2	-3.79826E-001	-4.41176E-008	0.00000E+000	-3.80000E-001	1.00999E-003	5	..........a	-327.66
	261	52.4	-3.69880E-001	-3.89880E-008	0.00000E+000	-3.70000E-001	1.01589E-003	5	..........a	-327.66
	262	52.6	-3.59903E-001	-3.39937E-008	0.00000E+000	-3.60000E-001	1.01349E-003	5	..........a	-327.66
	263	52.8	-3.49866E-001	-2.90874E-008	0.00000E+000	-3.50000E-001	1.00219E-003	5	..........a	-327.66
	264	53	-3.39817E-001	-2.44258E-008	0.00000E+000	-3.40000E-001	9.85692E-004	5	..........a	-327.66
	265	53.2	-3.29885E-001	-1.97324E-008	0.00000E+000	-3.30000E-001	1.01029E-003	5	..........a	-327.66
	266	53.4	-3.19856E-001	-1.51546E-008	0.00000E+000	-3.20000E-001	9.90192E-004	5	..........a	-327.66
	267	53.6	-3.09897E-001	-1.07086E-008	0.00000E+000	-3.10000E-001	9.92592E-004	5	..........a	-327.66
	268	53.8	-2.99856E-001	-6.36318E-009	0.00000E+000	-3.00000E-001	9.86792E-004	5	..........a	-327.66
	269	54	-2.89941E-001	-2.08807E-009	0.00000E+000	-2.90000E-001	9.99492E-004	5	..........a	-327.66
	270	54.2	-2.79970E-001	2.16786E-009	0.00000E+000	-2.80000E-001	1.01689E-003	5	..........a	-327.66
	271	54.4	-2.69884E-001	6.27480E-009	0.00000E+000	-2.70000E-001	1.00229E-003	5	..........a	-327.66
	272	54.6	-2.59828E-001	1.03224E-008	0.00000E+000	-2.60000E-001	9.95992E-004	5	..........a	-327.66
	273	54.8	-2.49908E-001	1.43148E-008	0.00000E+000	-2.50000E-001	1.00399E-003	5	..........a	-327.66
	274	55	-2.39977E-001	1.82404E-008	0.00000E+000	-2.40000E-001	9.89092E-004	5	..........a	-327.66
	275	55.2	-2.29956E-001	2.21151E-008	0.00000E+000	-2.30000E-001	1.01589E-003	5	..........a	-327.66
	276	55.4	-2.19889E-001	2.59263E-008	0.00000E+000	-2.20000E-001	9.96292E-004	5	..........a	-327.66
	277	55.6	-2.09947E-001	2.96775E-008	0.00000E+000	-2.10000E-001	9.93692E-004	5	..........a	-327.66
	278	55.8	-1.99999E-001	3.33895E-008	0.00000E+000	-2.00000E-001	9.91692E-004	5	..........a	-327.66
	279	56	-1.90083E-001	3.70199E-008	0.00000E+000	-1.90000E-001	9.90292E-004	5	..........a	-327.66
	280	56.2	-1.79951E-001	4.06359E-008	0.00000E+000	-1.80000E-001	1.00129E-003	5	..........a	-327.66
	281	56.4	-1.69937E-001	4.42226E-008	0.00000E+000	-1.70000E-001	1.02329E-003	5	..........a	-327.66
	282	56.6	-1.60012E-001	4.77444E-008	0.00000E+000	-1.60000E-001	1.00489E-003	5	..........a	-327.66
	283	56.8	-1.49986E-001	5.12319E-008	0.00000E+000	-1.50000E-001	1.00669E-003	5	..........a	-327.66
	284	57	-1.39905E-001	5.46801E-008	0.00000E+000	-1.40000E-001	9.97592E-004	5	..........a	-327.66
	285	57.2	-1.29979E-001	5.80973E-008	0.00000E+000	-1.30000E-001	1.01839E-003	5	..........a	-327.66
	286	57.4	-1.19972E-001	6.14656E-008	0.00000E+000	-1.20000E-001	1.00309E-003	5	..........a	-327.66
	287	57.6	-1.10029E-001	6.48060E-008	0.00000E+000	-1.10000E-001	1.01319E-003	5	..........a	-327.66
	288	57.8	-9.99256E-002	6.81637E-008	0.00000E+000	-1.00000E-001	1.00979E-003	5	..........a	-327.66
	289	58	-8.99293E-002	7.14799E-008	0.00000E+000	-9.00000E-002	1.01109E-003	5	..........a	-327.66
	290	58.2	-8.00167E-002	7.47544E-008	0.00000E+000	-8.00000E-002	1.01629E-003	5	..........a	-327.66
	291	58.4	-6.99312E-002	7.80097E-008	0.00000E+000	-7.00000E-002	9.98492E-004	5	..........a	-327.66
	292	58.6	-5.99091E-002	8.11906E-008	0.00000E+000	-6.00000E-002	9.88792E-004	5	..........a	-327.66
	293	58.8	-4.99630E-002	8.44204E-008	0.00000E+000	-5.00000E-002	1.00729E-003	5	..........a	-327.66
	294	59	-3.99749E-002	8.75954E-008	0.00000E+000	-4.00000E-002	1.01159E-003	5	..........a	-327.66
	295	59.2	-3.00039E-002	9.07878E-008	0.00000E+000	-3.00000E-002	1.02259E-003	5	..........a	-327.66
	296	59.4	-1.99764E-002	9.39477E-008	0.00000E+000	-2.00000E-002	9.98592E-004	5	..........a	-327.66
	297	59.6	-9.92341E-003	9.70881E-008	0.00000E+000	-1.00000E-002	1.00889E-003	5	..........a	-327.66
	298	59.8	-4.21584E-005	1.00241E-007	0.00000E+000	7.45058E-009	1.00699E-003	5	..........a	-327.66
	299	60	1.00576E-002	1.03381E-007	0.00000E+000	1.00000E-002	1.00579E-003	5	..........a	-327.66
	300	60.2	2.00891E-002	1.06506E-007	0.00000E+000	2.00000E-002	1.01029E-003	5	..........a	-327.66
	301	60.4	2.99902E-002	1.09593E-007	0.00000E+000	3.00000E-002	1.01329E-003	5	..........a	-327.66
	302	60.6	4.00261E-002	1.12703E-007	0.00000E+000	4.00000E-002	9.92592E-004	5	..........a	-327.66
	303	60.8	4.99572E-002	1.15807E-007	0.00000E+000	5.00000E-002	1.01149E-003	5	..........a	-327.66
	304	61	6.00383E-002	1.18914E-007	0.00000E+000	6.00000E-002	9.97092E-004	5	..........a	-327.66
	305	61.2	6.99741E-002	1.22025E-007	0.00000E+000	7.00000E-002	1.00049E-003	5	..........a	-327.66
	306	61.4	7.99481E-002	1.25162E-007	0.00000E+000	8.00000E-002	1.00359E-003	5	..........a	-327.66
	307	61.6	9.00447E-002	1.28255E-007	0.00000E+000	9.00000E-002	9.99092E-004	5	..........a	-327.66
	308	61.8	1.00013E-001	1.31316E-007	0.00000E+000	1.00000E-001	9.97492E-004	5	..........a	-327.66
	309	62	1.10043E-001	1.34406E-007	0.00000E+000	1.10000E-001	1.00439E-003	5	..........a	-327.66
	310	62.2	1.19954E-001	1.37455E-007	0.00000E+000	1.20000E-001	9.94192E-004	5	..........a	-327.66
	311	62.4	1.29963E-001	1.40530E-007	0.00000E+000	1.30000E-001	1.00519E-003	5	..........a	-327.66
	312	62.6	1.40029E-001	1.43521E-007	0.00000E+000	1.40000E-001	1.00809E-003	5	..........a	-327.66
	313	62.8	1.49969E-001	1.46624E-007	0.00000E+000	1.50000E-001	1.00359E-003	5	..........a	-327.66
	314	63	1.59990E-001	1.49714E-007	0.00000E+000	1.60000E-001	1.01759E-003	5	..........a	-327.66
	315	63.2	1.69994E-001	1.52812E-007	0.00000E+000	1.70000E-001	1.00249E-003	5	..........a	-327.66
	316	63.4	1.79978E-001	1.55911E-007	0.00000E+000	1.80000E-001	9.97492E-004	5	..........a	-327.66
	317	63.6	1.90039E-001	1.59016E-007	0.00000E+000	1.90000E-001	1.00349E-003	5	..........a	-327.66
	318	63.8	1.99938E-001	1.62138E-007	0.00000E+000	2.00000E-001	1.00159E-003	5	..........a	-327.66
	319	64	2.09920E-001	1.65318E-007	0.00000E+000	2.10000E-001	1.00879E-003	5	..........a	-327.66
	320	64.2	2.19870E-001	1.68465E-007	0.00000E+000	2.20000E-001	9.90492E-004	5	..........a	-327.66
	321	64.4	2.29941E-001	1.71629E-007	0.00000E+000	2.30000E-001	1.02249E-003	5	..........a	-327.66
	322	64.6	2.39949E-001	1.74831E-007	0.00000E+000	2.40000E-001	1.01119E-003	5	..........a	-327.66
	323	64.8	2.49909E-001	1.78053E-007	0.00000E+000	2.50000E-001	1.00999E-003	5	..........a	-327.66
	324	65	2.59949E-001	1.81372E-007	0.00000E+000	2.60000E-001	1.00569E-003	5	..........a	-327.66
	325	65.2	2.70012E-001	1.84607E-007	0.00000E+000	2.70000E-001	1.01239E-003	5	..........a	-327.66
	326	65.4	2.79902E-001	1.87937E-007	0.00000E+000	2.80000E-001	1.01459E-003	5	..........a	-327.66
	327	65.6	2.89916E-001	1.91285E-007	0.00000E+000	2.90000E-001	1.00799E-003	5	..........a	-327.66
	328	65.8	2.99944E-001	1.94651E-007	0.00000E+000	3.00000E-001	1.00709E-003	5	..........a	-327.66
	329	66	3.09963E-001	1.98059E-007	0.00000E+000	3.10000E-001	1.02849E-003	5	..........a	-327.66
	330	66.2	3.19937E-001	2.01470E-007	0.00000E+000	3.20000E-001	1.00419E-003	5	..........a	-327.66
	331	66.4	3.29924E-001	2.04901E-007	0.00000E+000	3.30000E-001	1.01159E-003	5	..........a	-327.66
	332	66.6	3.39943E-001	2.08352E-007	0.00000E+000	3.40000E-001	1.01699E-003	5	..........a	-327.66
	333	66.8	3.49958E-001	2.11835E-007	0.00000E+000	3.50000E-001	1.00059E-003	5	..........a	-327.66
	334	67	3.59904E-001	2.15309E-007	0.00000E+000	3.60000E-001	1.01539E-003	5	..........a	-327.66
	335	67.2	3.69930E-001	2.18868E-007	0.00000E+000	3.70000E-001	1.00279E-003	5	..........a	-327.66
	336	67.4	3.79919E-001	2.22336E-007	0.00000E+000	3.80000E-001	9.97392E-004	5	..........a	-327.66
	337	67.6	3.89980E-001	2.25946E-007	0.00000E+000	3.90000E-001	9.95992E-004	5	..........a	-327.66
	338	67.8	3.99892E-001	2.29532E-007	0.00000E+000	4.00000E-001	9.97292E-004	5	..........a	-327.66
	339	68	4.09886E-001	2.33149E-007	0.00000E+000	4.10000E-001	1.02179E-003	5	..........a	-327.66
	340	68.2	4.19890E-001	2.36779E-007	0.00000E+000	4.20000E-001	1.00069E-003	5	..........a	-327.66
	341	68.4	4.29966E-001	2.40422E-007	0.00000E+000	4.30000E-001	1.00389E-003	5	..........a	-327.66
	342	68.6	4.39870E-001	2.44079E-007	0.00000E+000	4.40000E-001	1.00939E-003	5	..........a	-327.66
	343	68.8	4.49799E-001	2.47834E-007	0.00000E+000	4.50000E-001	1.01199E-003	5	..........a	-327.66
	344	69	4.59877E-001	2.51552E-007	0.00000E+000	4.60000E-001	9.93992E-004	5	..........a	-327.66
	345	69.2	4.69932E-001	2.55332E-007	0.00000E+000	4.70000E-001	9.96892E-004	5	..........a	-327.66
	346	69.4	4.79842E-001	2.59116E-007	0.00000E+000	4.80000E-001	1.00449E-003	5	..........a	-327.66
	347	69.6	4.89843E-001	2.62933E-007	0.00000E+000	4.90000E-001	1.00409E-003	5	..........a	-327.66
	348	69.8	4.99878E-001	2.66756E-007	0.00000E+000	5.00000E-001	1.00519E-003	5	..........a	-327.66
	349	70	5.09941E-001	2.70629E-007	0.00000E+000	5.10000E-001	1.00829E-003	5	..........a	-327.66
	350	70.2	5.19865E-001	2.74493E-007	0.00000E+000	5.20000E-001	9.93192E-004	5	..........a	-327.66
	351	70.4	5.29861E-001	2.78375E-007	0.00000E+000	5.30000E-001	9.91592E-004	5	..........a	-327.66
	352	70.6	5.39852E-001	2.82275E-007	0.00000E+000	5.40000E-001	9.78192E-004	5	..........a	-327.66
	353	70.8	5.49904E-001	2.86177E-007	0.00000E+000	5.50000E-001	1.00589E-003	5	..........a	-327.66
	354	71	5.59858E-001	2.90147E-007	0.00000E+000	5.60000E-001	1.00399E-003	5	..........a	-327.66
[...]
	922	184.6	6.39781E-001	3.04971E-007	0.00000E+000	6.40000E-001	9.93092E-004	5	..........a	-327.66
	923	184.8	6.49822E-001	3.08372E-007	0.00000E+000	6.50000E-001	9.97192E-004	5	..........a	-327.66
	924	185	6.59805E-001	3.11777E-007	0.00000E+000	6.60000E-001	9.99992E-004	5	..........a	-327.66
	925	185.2	6.69875E-001	3.15122E-007	0.00000E+000	6.70000E-001	9.90692E-004	5	..........a	-327.66
	926	185.4	6.79817E-001	3.18367E-007	0.00000E+000	6.80000E-001	1.00159E-003	5	..........a	-327.66
	927	185.6	6.89806E-001	3.21551E-007	0.00000E+000	6.90000E-001	9.86392E-004	5	..........a	-327.66
	928	185.8	6.99793E-001	3.24640E-007	0.00000E+000	7.00000E-001	1.00069E-003	5	..........a	-327.66
	929	186	7.09900E-001	3.27662E-007	0.00000E+000	7.10000E-001	9.87092E-004	5	..........a	-327.66
	930	186.2	7.19772E-001	3.30658E-007	0.00000E+000	7.20000E-001	9.97792E-004	5	..........a	-327.66
	931	186.4	7.29797E-001	3.33607E-007	0.00000E+000	7.30000E-001	9.91692E-004	5	..........a	-327.66
	932	186.6	7.39782E-001	3.36568E-007	0.00000E+000	7.40000E-001	1.00139E-003	5	..........a	-327.66
	933	186.8	7.49867E-001	3.39459E-007	0.00000E+000	7.50000E-001	9.95592E-004	5	..........a	-327.66
	934	187	7.59783E-001	3.42394E-007	0.00000E+000	7.60000E-001	9.89092E-004	5	..........a	-327.66
	935	187.2	7.69769E-001	3.45288E-007	0.00000E+000	7.70000E-001	9.93192E-004	5	..........a	-327.66
	936	187.4	7.79785E-001	3.48168E-007	0.00000E+000	7.80000E-001	9.80692E-004	5	..........a	-327.66
	937	187.6	7.89884E-001	3.51101E-007	0.00000E+000	7.90000E-001	9.98892E-004	5	..........a	-327.66
	938	187.8	7.99781E-001	3.53938E-007	0.00000E+000	8.00000E-001	9.90692E-004	5	..........a	-327.66
	939	188	7.89895E-001	3.22303E-007	0.00000E+000	7.90000E-001	9.90492E-004	5	..........a	-327.66
	940	188.2	7.79803E-001	2.98774E-007	0.00000E+000	7.80000E-001	9.93092E-004	5	..........a	-327.66
	941	188.4	7.69766E-001	2.79397E-007	0.00000E+000	7.70000E-001	9.88492E-004	5	..........a	-327.66
	942	188.6	7.59839E-001	2.62877E-007	0.00000E+000	7.60000E-001	9.98992E-004	5	..........a	-327.66
	943	188.8	7.49902E-001	2.48341E-007	0.00000E+000	7.50000E-001	9.88392E-004	5	..........a	-327.66
	944	189	7.39843E-001	2.35400E-007	0.00000E+000	7.40000E-001	9.74292E-004	5	..........a	-327.66
	945	189.2	7.29846E-001	2.23759E-007	0.00000E+000	7.30000E-001	9.97992E-004	5	..........a	-327.66
	946	189.4	7.19831E-001	2.13150E-007	0.00000E+000	7.20000E-001	9.81592E-004	5	..........a	-327.66
	947	189.6	7.09953E-001	2.03345E-007	0.00000E+000	7.10000E-001	9.97092E-004	5	..........a	-327.66
	948	189.8	6.99837E-001	1.94282E-007	0.00000E+000	7.00000E-001	1.00479E-003	5	..........a	-327.66
	949	190	6.89856E-001	1.85812E-007	0.00000E+000	6.90000E-001	9.96892E-004	5	..........a	-327.66
	950	190.2	6.79888E-001	1.77878E-007	0.00000E+000	6.80000E-001	9.79692E-004	5	..........a	-327.66
	951	190.4	6.69943E-001	1.70327E-007	0.00000E+000	6.70000E-001	9.97392E-004	5	..........a	-327.66
	952	190.6	6.59878E-001	1.63134E-007	0.00000E+000	6.60000E-001	9.96692E-004	5	..........a	-327.66
	953	190.8	6.49879E-001	1.56359E-007	0.00000E+000	6.50000E-001	1.00309E-003	5	..........a	-327.66
	954	191	6.39868E-001	1.49870E-007	0.00000E+000	6.40000E-001	9.84392E-004	5	..........a	-327.66
	955	191.2	6.29990E-001	1.43643E-007	0.00000E+000	6.30000E-001	9.83992E-004	5	..........a	-327.66
	956	191.4	6.19884E-001	1.37621E-007	0.00000E+000	6.20000E-001	9.84192E-004	5	..........a	-327.66
	957	191.6	6.09929E-001	1.31848E-007	0.00000E+000	6.10000E-001	9.92992E-004	5	..........a	-327.66
	958	191.8	5.99908E-001	1.26318E-007	0.00000E+000	6.00000E-001	1.00949E-003	5	..........a	-327.66
	959	192	5.89977E-001	1.20884E-007	0.00000E+000	5.90000E-001	9.87592E-004	5	..........a	-327.66
	960	192.2	5.79941E-001	1.15691E-007	0.00000E+000	5.80000E-001	9.63392E-004	5	..........a	-327.66
	961	192.4	5.69905E-001	1.10669E-007	0.00000E+000	5.70000E-001	9.74092E-004	5	..........a	-327.66
	962	192.6	5.59902E-001	1.05761E-007	0.00000E+000	5.60000E-001	9.92692E-004	5	..........a	-327.66
	963	192.8	5.49990E-001	1.00960E-007	0.00000E+000	5.50000E-001	9.84992E-004	5	..........a	-327.66
	964	193	5.39954E-001	9.63127E-008	0.00000E+000	5.40000E-001	9.81092E-004	5	..........a	-327.66
	965	193.2	5.29923E-001	9.17466E-008	0.00000E+000	5.30000E-001	9.89392E-004	5	..........a	-327.66
	966	193.4	5.19945E-001	8.72862E-008	0.00000E+000	5.20000E-001	9.97792E-004	5	..........a	-327.66
	967	193.6	5.09968E-001	8.29228E-008	0.00000E+000	5.10000E-001	1.00639E-003	5	..........a	-327.66
	968	193.8	5.00000E-001	7.86371E-008	0.00000E+000	5.00000E-001	9.84992E-004	5	..........a	-327.66
	969	194	4.89932E-001	7.44532E-008	0.00000E+000	4.90000E-001	9.87392E-004	5	..........a	-327.66
	970	194.2	4.79916E-001	7.03051E-008	0.00000E+000	4.80000E-001	9.98692E-004	5	..........a	-327.66
	971	194.4	4.70013E-001	6.62475E-008	0.00000E+000	4.70000E-001	9.93992E-004	5	..........a	-327.66
	972	194.6	4.59957E-001	6.22652E-008	0.00000E+000	4.60000E-001	9.74792E-004	5	..........a	-327.66
	973	194.8	4.49841E-001	5.83033E-008	0.00000E+000	4.50000E-001	9.93292E-004	5	..........a	-327.66
	974	195	4.39925E-001	5.44280E-008	0.00000E+000	4.40000E-001	9.83792E-004	5	..........a	-327.66
	975	195.2	4.29981E-001	5.05890E-008	0.00000E+000	4.30000E-001	1.00379E-003	5	..........a	-327.66
	976	195.4	4.19992E-001	4.67609E-008	0.00000E+000	4.20000E-001	9.72892E-004	5	..........a	-327.66
	977	195.6	4.09931E-001	4.29989E-008	0.00000E+000	4.10000E-001	9.99292E-004	5	..........a	-327.66
	978	195.8	3.99963E-001	3.92624E-008	0.00000E+000	4.00000E-001	9.78192E-004	5	..........a	-327.66
	979	196	3.90045E-001	3.56059E-008	0.00000E+000	3.90000E-001	9.82092E-004	5	..........a	-327.66
	980	196.2	3.80061E-001	3.19697E-008	0.00000E+000	3.80000E-001	9.75592E-004	5	..........a	-327.66
	981	196.4	3.70025E-001	2.83282E-008	0.00000E+000	3.70000E-001	9.91692E-004	5	..........a	-327.66
	982	196.6	3.59969E-001	2.47159E-008	0.00000E+000	3.60000E-001	9.84492E-004	5	..........a	-327.66
	983	196.8	3.50009E-001	2.11824E-008	0.00000E+000	3.50000E-001	1.00369E-003	5	..........a	-327.66
	984	197	3.40061E-001	1.76546E-008	0.00000E+000	3.40000E-001	9.83592E-004	5	..........a	-327.66
	985	197.2	3.29987E-001	1.41619E-008	0.00000E+000	3.30000E-001	1.00449E-003	5	..........a	-327.66
	986	197.4	3.20024E-001	1.06942E-008	0.00000E+000	3.20000E-001	9.95092E-004	5	..........a	-327.66
	987	197.6	3.09992E-001	7.24948E-009	0.00000E+000	3.10000E-001	9.95192E-004	5	..........a	-327.66
	988	197.8	3.00074E-001	3.83710E-009	0.00000E+000	3.00000E-001	9.99992E-004	5	..........a	-327.66
	989	198	2.90016E-001	4.23842E-010	0.00000E+000	2.90000E-001	9.91792E-004	5	..........a	-327.66
	990	198.2	2.79996E-001	-2.96776E-009	0.00000E+000	2.80000E-001	9.70292E-004	5	..........a	-327.66
	991	198.4	2.70097E-001	-6.35997E-009	0.00000E+000	2.70000E-001	9.86392E-004	5	..........a	-327.66
	992	198.6	2.60071E-001	-9.69101E-009	0.00000E+000	2.60000E-001	9.72792E-004	5	..........a	-327.66
	993	198.8	2.50019E-001	-1.30504E-008	0.00000E+000	2.50000E-001	9.84392E-004	5	..........a	-327.66
	994	199	2.40064E-001	-1.63322E-008	0.00000E+000	2.40000E-001	9.85692E-004	5	..........a	-327.66
	995	199.2	2.30029E-001	-1.96779E-008	0.00000E+000	2.30000E-001	1.01529E-003	5	..........a	-327.66
	996	199.4	2.20092E-001	-2.30099E-008	0.00000E+000	2.20000E-001	9.76392E-004	5	..........a	-327.66
	997	199.6	2.10044E-001	-2.63129E-008	0.00000E+000	2.10000E-001	9.99192E-004	5	..........a	-327.66
	998	199.8	2.00077E-001	-2.96045E-008	0.00000E+000	2.00000E-001	9.92892E-004	5	..........a	-327.66
	999	200	1.90117E-001	-3.28770E-008	0.00000E+000	1.90000E-001	9.99292E-004	5	..........a	-327.66
	1000	200.2	1.80132E-001	-3.61160E-008	0.00000E+000	1.80000E-001	9.65892E-004	5	..........a	-327.66
	1001	200.4	1.70098E-001	-3.93618E-008	0.00000E+000	1.70000E-001	9.79192E-004	5	..........a	-327.66
	1002	200.6	1.60062E-001	-4.26349E-008	0.00000E+000	1.60000E-001	9.93392E-004	5	..........a	-327.66
	1003	200.8	1.50107E-001	-4.58593E-008	0.00000E+000	1.50000E-001	9.98692E-004	5	..........a	-327.66
	1004	201	1.40139E-001	-4.91112E-008	0.00000E+000	1.40000E-001	9.78492E-004	5	..........a	-327.66
	1005	201.2	1.30087E-001	-5.22649E-008	0.00000E+000	1.30000E-001	9.85892E-004	5	..........a	-327.66
	1006	201.4	1.20093E-001	-5.54520E-008	0.00000E+000	1.20000E-001	1.00159E-003	5	..........a	-327.66
	1007	201.6	1.10117E-001	-5.86142E-008	0.00000E+000	1.10000E-001	9.78392E-004	5	..........a	-327.66
	1008	201.8	1.00153E-001	-6.18026E-008	0.00000E+000	1.00000E-001	9.70992E-004	5	..........a	-327.66
	1009	202	9.01195E-002	-6.49846E-008	0.00000E+000	9.00000E-002	9.89292E-004	5	..........a	-327.66
	1010	202.2	8.00541E-002	-6.81436E-008	0.00000E+000	8.00000E-002	9.96292E-004	5	..........a	-327.66
	1011	202.4	7.00799E-002	-7.12815E-008	0.00000E+000	7.00000E-002	9.85092E-004	5	..........a	-327.66
	1012	202.6	6.01538E-002	-7.44095E-008	0.00000E+000	6.00000E-002	9.81192E-004	5	..........a	-327.66
	1013	202.8	5.00933E-002	-7.75405E-008	0.00000E+000	5.00000E-002	1.00029E-003	5	..........a	-327.66
	1014	203	4.00422E-002	-8.06743E-008	0.00000E+000	4.00000E-002	1.00079E-003	5	..........a	-327.66
	1015	203.2	3.00967E-002	-8.38681E-008	0.00000E+000	3.00000E-002	9.92792E-004	5	..........a	-327.66
	1016	203.4	2.02205E-002	-8.70073E-008	0.00000E+000	2.00000E-002	9.85792E-004	5	..........a	-327.66
	1017	203.6	1.01437E-002	-9.01103E-008	0.00000E+000	1.00000E-002	9.84392E-004	5	..........a	-327.66
	1018	203.8	8.90916E-005	-9.31751E-008	0.00000E+000	7.45058E-009	9.90992E-004	5	..........a	-327.66
	1019	204	-9.85016E-003	-9.62403E-008	0.00000E+000	-1.00000E-002	9.91492E-004	5	..........a	-327.66
	1020	204.2	-1.98499E-002	-9.92970E-008	0.00000E+000	-2.00000E-002	9.82492E-004	5	..........a	-327.66
	1021	204.4	-2.98793E-002	-1.02351E-007	0.00000E+000	-3.00000E-002	9.77192E-004	5	..........a	-327.66
	1022	204.6	-3.98557E-002	-1.05349E-007	0.00000E+000	-4.00000E-002	9.77692E-004	5	..........a	-327.66
	1023	204.8	-4.98717E-002	-1.08363E-007	0.00000E+000	-5.00000E-002	9.87692E-004	5	..........a	-327.66
	1024	205	-5.97915E-002	-1.11315E-007	0.00000E+000	-6.00000E-002	9.83292E-004	5	..........a	-327.66
	1025	205.2	-6.98661E-002	-1.14217E-007	0.00000E+000	-7.00000E-002	9.70292E-004	5	..........a	-327.66
	1026	205.4	-7.98560E-002	-1.17151E-007	0.00000E+000	-8.00000E-002	9.83392E-004	5	..........a	-327.66
	1027	205.6	-8.98455E-002	-1.20061E-007	0.00000E+000	-9.00000E-002	9.82592E-004	5	..........a	-327.66
	1028	205.8	-9.98172E-002	-1.22945E-007	0.00000E+000	-1.00000E-001	9.74792E-004	5	..........a	-327.66
	1029	206	-1.09895E-001	-1.25805E-007	0.00000E+000	-1.10000E-001	9.86292E-004	5	..........a	-327.66
	1030	206.2	-1.19858E-001	-1.28632E-007	0.00000E+000	-1.20000E-001	9.78592E-004	5	..........a	-327.66
	1031	206.4	-1.29890E-001	-1.31353E-007	0.00000E+000	-1.30000E-001	9.91992E-004	5	..........a	-327.66
	1032	206.6	-1.39836E-001	-1.34107E-007	0.00000E+000	-1.40000E-001	9.75492E-004	5	..........a	-327.66
	1033	206.8	-1.49874E-001	-1.36755E-007	0.00000E+000	-1.50000E-001	1.00389E-003	5	..........a	-327.66
	1034	207	-1.59901E-001	-1.39491E-007	0.00000E+000	-1.60000E-001	9.93292E-004	5	..........a	-327.66
	1035	207.2	-1.69836E-001	-1.42306E-007	0.00000E+000	-1.70000E-001	9.89592E-004	5	..........a	-327.66
	1036	207.4	-1.79797E-001	-1.44962E-007	0.00000E+000	-1.80000E-001	9.80392E-004	5	..........a	-327.66
	1037	207.6	-1.89955E-001	-1.47637E-007	0.00000E+000	-1.90000E-001	9.95492E-004	5	..........a	-327.66
	1038	207.8	-1.99885E-001	-1.50308E-007	0.00000E+000	-2.00000E-001	9.91692E-004	5	..........a	-327.66
	1039	208	-2.09836E-001	-1.52782E-007	0.00000E+000	-2.10000E-001	9.91592E-004	5	..........a	-327.66
	1040	208.2	-2.19801E-001	-1.55317E-007	0.00000E+000	-2.20000E-001	9.77292E-004	5	..........a	-327.66
	1041	208.4	-2.29849E-001	-1.57683E-007	0.00000E+000	-2.30000E-001	1.00629E-003	5	..........a	-327.66
	1042	208.6	-2.39843E-001	-1.60135E-007	0.00000E+000	-2.40000E-001	9.85892E-004	5	..........a	-327.66
	1043	208.8	-2.49830E-001	-1.62605E-007	0.00000E+000	-2.50000E-001	9.86292E-004	5	..........a	-327.66
	1044	209	-2.59725E-001	-1.65029E-007	0.00000E+000	-2.60000E-001	9.77592E-004	5	..........a	-327.66
	1045	209.2	-2.69818E-001	-1.67395E-007	0.00000E+000	-2.70000E-001	9.82592E-004	5	..........a	-327.66
	1046	209.4	-2.79806E-001	-1.69839E-007	0.00000E+000	-2.80000E-001	9.85692E-004	5	..........a	-327.66
	1047	209.6	-2.89824E-001	-1.72182E-007	0.00000E+000	-2.90000E-001	9.87092E-004	5	..........a	-327.66
	1048	209.8	-2.99782E-001	-1.74461E-007	0.00000E+000	-3.00000E-001	9.79592E-004	5	..........a	-327.66
	1049	210	-3.09828E-001	-1.76812E-007	0.00000E+000	-3.10000E-001	9.83492E-004	5	..........a	-327.66
	1050	210.2	-3.19774E-001	-1.79360E-007	0.00000E+000	-3.20000E-001	9.86592E-004	5	..........a	-327.66
	1051	210.4	-3.29832E-001	-1.81724E-007	0.00000E+000	-3.30000E-001	9.99092E-004	5	..........a	-327.66
	1052	210.6	-3.39711E-001	-1.84163E-007	0.00000E+000	-3.40000E-001	1.00669E-003	5	..........a	-327.66
	1053	210.8	-3.49815E-001	-1.86500E-007	0.00000E+000	-3.50000E-001	9.76392E-004	5	..........a	-327.66
	1054	211	-3.59791E-001	-1.88825E-007	0.00000E+000	-3.60000E-001	9.87692E-004	5	..........a	-327.66
	1055	211.2	-3.69797E-001	-1.91238E-007	0.00000E+000	-3.70000E-001	9.99392E-004	5	..........a	-327.66
	1056	211.4	-3.79738E-001	-1.93680E-007	0.00000E+000	-3.80000E-001	9.78592E-004	5	..........a	-327.66
	1057	211.6	-3.89811E-001	-1.96278E-007	0.00000E+000	-3.90000E-001	9.92392E-004	5	..........a	-327.66
	1058	211.8	-3.99788E-001	-1.98756E-007	0.00000E+000	-4.00000E-001	9.94592E-004	5	..........a	-327.66
	1059	212	-4.09801E-001	-2.01433E-007	0.00000E+000	-4.10000E-001	9.99192E-004	5	..........a	-327.66
	1060	212.2	-4.19696E-001	-2.04040E-007	0.00000E+000	-4.20000E-001	9.74692E-004	5	..........a	-327.66
	1061	212.4	-4.29793E-001	-2.06659E-007	0.00000E+000	-4.30000E-001	9.94692E-004	5	..........a	-327.66
	1062	212.6	-4.39741E-001	-2.09138E-007	0.00000E+000	-4.40000E-001	1.00149E-003	5	..........a	-327.66
	1063	212.8	-4.49792E-001	-2.11790E-007	0.00000E+000	-4.50000E-001	9.88192E-004	5	..........a	-327.66
	1064	213	-4.59711E-001	-2.14502E-007	0.00000E+000	-4.60000E-001	9.68892E-004	5	..........a	-327.66
	1065	213.2	-4.69775E-001	-2.17321E-007	0.00000E+000	-4.70000E-001	9.87992E-004	5	..........a	-327.66
	1066	213.4	-4.79754E-001	-2.19926E-007	0.00000E+000	-4.80000E-001	9.79292E-004	5	..........a	-327.66
	1067	213.6	-4.89777E-001	-2.22625E-007	0.00000E+000	-4.90000E-001	9.95692E-004	5	..........a	-327.66
	1068	213.8	-4.99747E-001	-2.25168E-007	0.00000E+000	-5.00000E-001	9.70792E-004	5	..........a	-327.66
	1069	214	-5.09768E-001	-2.27943E-007	0.00000E+000	-5.10000E-001	9.76592E-004	5	..........a	-327.66
	1070	214.2	-5.19756E-001	-2.30849E-007	0.00000E+000	-5.20000E-001	9.87492E-004	5	..........a	-327.66
	1071	214.4	-5.29781E-001	-2.33539E-007	0.00000E+000	-5.30000E-001	9.92592E-004	5	..........a	-327.66
	1072	214.6	-5.39690E-001	-2.36528E-007	0.00000E+000	-5.40000E-001	9.80292E-004	5	..........a	-327.66
	1073	214.8	-5.49778E-001	-2.39215E-007	0.00000E+000	-5.50000E-001	9.85992E-004	5	..........a	-327.66
	1074	215	-5.59802E-001	-2.42164E-007	0.00000E+000	-5.60000E-001	9.92492E-004	5	..........a	-327.66
	1075	215.2	-5.69767E-001	-2.44709E-007	0.00000E+000	-5.70000E-001	9.92692E-004	5	..........a	-327.66
	1076	215.4	-5.79719E-001	-2.47455E-007	0.00000E+000	-5.80000E-001	9.68392E-004	5	..........a	-327.66
	1077	215.6	-5.89768E-001	-2.50063E-007	0.00000E+000	-5.90000E-001	9.91292E-004	5	..........a	-327.66
	1078	215.8	-5.99716E-001	-2.52737E-007	0.00000E+000	-6.00000E-001	9.83792E-004	5	..........a	-327.66
CURVE5	TABLE
	Pt	T	Vf	Im	Vu	Sig	Ach	IERange	Over	Temp
	#	s	V vs. Ref.	A	V	V	V	#	bits	deg C
	1079	216	-5.89796E-001	-2.25087E-007	0.00000E+000	-5.90000E-001	9.90492E-004	5	..........a	-327.66
	1080	216.2	-5.79732E-001	-2.06042E-007	0.00000E+000	-5.80000E-001	9.82592E-004	5	..........a	-327.66
	1081	216.4	-5.69797E-001	-1.90582E-007	0.00000E+000	-5.70000E-001	9.91892E-004	5	..........a	-327.66
	1082	216.6	-5.59791E-001	-1.77199E-007	0.00000E+000	-5.60000E-001	9.98292E-004	5	..........a	-327.66
	1083	216.8	-5.49831E-001	-1.65514E-007	0.00000E+000	-5.50000E-001	9.94292E-004	5	..........a	-327.66
	1084	217	-5.39721E-001	-1.55020E-007	0.00000E+000	-5.40000E-001	9.82392E-004	5	..........a	-327.66
	1085	217.2	-5.29814E-001	-1.45004E-007	0.00000E+000	-5.30000E-001	9.93492E-004	5	..........a	-327.66
	1086	217.4	-5.19831E-001	-1.36001E-007	0.00000E+000	-5.20000E-001	9.86292E-004	5	..........a	-327.66
	1087	217.6	-5.09813E-001	-1.27488E-007	0.00000E+000	-5.10000E-001	9.91892E-004	5	..........a	-327.66
	1088	217.8	-4.99792E-001	-1.19391E-007	0.00000E+000	-5.00000E-001	9.80792E-004	5	..........a	-327.66
	1089	218	-4.89813E-001	-1.11750E-007	0.00000E+000	-4.90000E-001	1.00519E-003	5	..........a	-327.66
	1090	218.2	-4.79830E-001	-1.04471E-007	0.00000E+000	-4.80000E-001	9.86792E-004	5	..........a	-327.66
	1091	218.4	-4.69826E-001	-9.72978E-008	0.00000E+000	-4.70000E-001	9.82692E-004	5	..........a	-327.66
	1092	218.6	-4.59773E-001	-9.05583E-008	0.00000E+000	-4.60000E-001	9.87092E-004	5	..........a	-327.66
	1093	218.8	-4.49831E-001	-8.40265E-008	0.00000E+000	-4.50000E-001	9.86692E-004	5	..........a	-327.66
	1094	219	-4.39837E-001	-7.76798E-008	0.00000E+000	-4.40000E-001	9.85592E-004	5	..........a	-327.66
	1095	219.2	-4.29839E-001	-7.16068E-008	0.00000E+000	-4.30000E-001	9.76892E-004	5	..........a	-327.66
	1096	219.4	-4.19786E-001	-6.56540E-008	0.00000E+000	-4.20000E-001	9.78792E-004	5	..........a	-327.66
	1097	219.6	-4.09845E-001	-5.99276E-008	0.00000E+000	-4.10000E-001	9.80292E-004	5	..........a	-327.66
	1098	219.8	-3.99847E-001	-5.42805E-008	0.00000E+000	-4.00000E-001	9.83192E-004	5	..........a	-327.66
	1099	220	-3.89904E-001	-4.89662E-008	0.00000E+000	-3.90000E-001	1.00439E-003	5	..........a	-327.66
	1100	220.2	-3.79812E-001	-4.36488E-008	0.00000E+000	-3.80000E-001	9.68092E-004	5	..........a	-327.66
	1101	220.4	-3.69874E-001	-3.85190E-008	0.00000E+000	-3.70000E-001	9.88492E-004	5	..........a	-327.66
	1102	220.6	-3.59915E-001	-3.34685E-008	0.00000E+000	-3.60000E-001	9.99792E-004	5	..........a	-327.66
	1103	220.8	-3.49874E-001	-2.85788E-008	0.00000E+000	-3.50000E-001	9.73592E-004	5	..........a	-327.66
	1104	221	-3.39823E-001	-2.37958E-008	0.00000E+000	-3.40000E-001	9.89392E-004	5	..........a	-327.66
	1105	221.2	-3.29882E-001	-1.91330E-008	0.00000E+000	-3.30000E-001	1.00579E-003	5	..........a	-327.66
	1106	221.4	-3.19858E-001	-1.45698E-008	0.00000E+000	-3.20000E-001	9.82192E-004	5	..........a	-327.66
	1107	221.6	-3.09894E-001	-1.01058E-008	0.00000E+000	-3.10000E-001	9.92392E-004	5	..........a	-327.66
	1108	221.8	-2.99866E-001	-5.78800E-009	0.00000E+000	-3.00000E-001	9.85392E-004	5	..........a	-327.66
	1109	222	-2.89944E-001	-1.47475E-009	0.00000E+000	-2.90000E-001	9.81892E-004	5	..........a	-327.66
	1110	222.2	-2.79961E-001	2.74744E-009	0.00000E+000	-2.80000E-001	9.97592E-004	5	..........a	-327.66
	1111	222.4	-2.69883E-001	6.79253E-009	0.00000E+000	-2.70000E-001	9.85092E-004	5	..........a	-327.66
	1112	222.6	-2.59831E-001	1.08610E-008	0.00000E+000	-2.60000E-001	9.67292E-004	5	..........a	-327.66
	1113	222.8	-2.49893E-001	1.48575E-008	0.00000E+000	-2.50000E-001	9.92192E-004	5	..........a	-327.66
	1114	223	-2.39945E-001	1.87553E-008	0.00000E+000	-2.40000E-001	9.88992E-004	5	..........a	-327.66
	1115	223.2	-2.29965E-001	2.25509E-008	0.00000E+000	-2.30000E-001	1.00059E-003	5	..........a	-327.66
	1116	223.4	-2.19879E-001	2.63289E-008	0.00000E+000	-2.20000E-001	9.77992E-004	5	..........a	-327.66
	1117	223.6	-2.09925E-001	3.00625E-008	0.00000E+000	-2.10000E-001	1.01219E-003	5	..........a	-327.66
	1118	223.8	-1.99994E-001	3.36876E-008	0.00000E+000	-2.00000E-001	9.94192E-004	5	..........a	-327.66
	1119	224	-1.90061E-001	3.72797E-008	0.00000E+000	-1.90000E-001	9.87492E-004	5	..........a	-327.66
	1120	224.2	-1.79946E-001	4.06826E-008	0.00000E+000	-1.80000E-001	9.88892E-004	5	..........a	-327.66