File: example_project/raw_outputs/20240321_ZM_GM0016_HL03_E10_CV50.DTA
EXPLAIN
TAG	CV
TITLE	LABEL	Cyclic Voltammetry	Test &Identifier
DATE	LABEL	3/21/2024	Date
TIME	LABEL	18:41:03	Time
NOTES	NOTES	1	&Notes...

PSTAT	PSTAT	REF600P-43058	Potentiostat
VINIT	POTEN	0.00000E+000	T	Initial &E (V)
VLIMIT1	POTEN	-6.00000E-001	F	Scan Limit &1 (V)
VLIMIT2	POTEN	8.00000E-001	F	Scan Limit &2 (V)
VFINAL	POTEN	0.00000E+000	T	Final &E (V)
SCANRATE	QUANT	4.99999E+001	&Scan Rate (mV/s)
STEPSIZE	QUANT	1.00000E+001	St&ep Size (mV)
CYCLES	IQUANT	4	C&ycles (#)
IMODE	SELECTOR	1	I/E Range &Mode
IRANGE	QUANT	1.00000E-005	&Max Current (mA)
AREA	QUANT	1.00000E+000	Electrode &Area (cm^2)
ELECTRODETYPE	SELECTOR	0	Electrode Type
STRIPPING	TOGGLE	F	Used for Stripping
POLARITY	TOGGLE	F	Signal Polarity
CONDIT	TWOPARAM	F	1.50000E+001	0.00000E+000	Conditionin&g	Time(s)	E(V)
DELAY	TWOPARAM	T	1.00000E+001	0.00000E+000	Init. De&lay	Time(s)	Stab.(mV/s)
EQDELAY	QUANT	1.00000E+001	Equil. &Time (s)
IRCOMP	SELECTOR	0	IRCom&p
PFCOR	QUANT	5.00000E+001	PF Corr. (ohm)
SAMPLINGMODE	SELECTOR	1	Sampling &Mode
OCVCURVE	TABLE	39
	Pt	T	Vf	Vm	Ach	Over	Temp
	#	s	V vs. Ref.	V	V	bits	deg C
	0	0.258333	3.36802E-001	3.36802E-001	2.51956E-004	..........a	-327.66
	1	0.516667	3.36806E-001	3.36987E-001	2.66422E-004	..........a	-327.66
	2	0.775	3.36831E-001	3.37357E-001	2.50556E-004	..........a	-327.66
	3	1.03333	3.36916E-001	3.37760E-001	2.56022E-004	..........a	-327.66
	4	1.29167	3.37098E-001	3.38205E-001	2.54689E-004	..........a	-327.66
	5	1.55	3.37382E-001	3.38561E-001	2.44422E-004	..........a	-327.66
	6	1.80833	3.37739E-001	3.38927E-001	2.43156E-004	..........a	-327.66
	7	2.06667	3.38129E-001	3.39368E-001	2.65489E-004	..........a	-327.66
	8	2.325	3.38527E-001	3.39802E-001	2.45222E-004	..........a	-327.66
	9	2.58333	3.38928E-001	3.40155E-001	2.58089E-004	..........a	-327.66
	10	2.84167	3.39333E-001	3.40532E-001	2.64689E-004	..........a	-327.66
	11	3.1	3.39734E-001	3.40950E-001	2.61289E-004	..........a	-327.66
	12	3.35833	3.40130E-001	3.41413E-001	2.55089E-004	..........a	-327.66
	13	3.61667	3.40528E-001	3.41772E-001	2.64956E-004	..........a	-327.66
	14	3.875	3.40934E-001	3.42139E-001	2.53556E-004	..........a	-327.66
	15	4.13333	3.41338E-001	3.42548E-001	2.60956E-004	..........a	-327.66
	16	4.39167	3.41736E-001	3.42978E-001	2.51822E-004	..........a	-327.66
	17	4.65	3.42130E-001	3.43342E-001	2.64356E-004	..........a	-327.66
	18	4.90833	3.42526E-001	3.43725E-001	2.57289E-004	..........a	-327.66
	19	5.16667	3.42921E-001	3.44126E-001	2.64356E-004	..........a	-327.66
	20	5.425	3.43314E-001	3.44511E-001	2.48756E-004	..........a	-327.66
	21	5.68333	3.43704E-001	3.44922E-001	2.63822E-004	..........a	-327.66
	22	5.94167	3.44094E-001	3.45255E-001	2.59422E-004	..........a	-327.66
	23	6.2	3.44482E-001	3.45642E-001	2.51222E-004	..........a	-327.66
	24	6.45833	3.44867E-001	3.46160E-001	2.56956E-004	..........a	-327.66
	25	6.71667	3.45254E-001	3.46402E-001	2.73022E-004	..........a	-327.66
	26	6.975	3.45645E-001	3.46673E-001	2.52756E-004	..........a	-327.66
	27	7.23333	3.46018E-001	3.47028E-001	2.64222E-004	..........a	-327.66
	28	7.49167	3.46359E-001	3.47160E-001	2.27089E-004	..........a	-327.66
	29	7.75	3.46671E-001	3.47902E-001	2.57889E-004	..........a	-327.66
	30	8.00833	3.46989E-001	3.48223E-001	2.57222E-004	..........a	-327.66
	31	8.26667	3.47350E-001	3.48594E-001	2.57622E-004	..........a	-327.66
	32	8.525	3.47752E-001	3.48981E-001	2.80689E-004	..........a	-327.66
	33	8.78333	3.48166E-001	3.49532E-001	2.67422E-004	..........a	-327.66
	34	9.04167	3.48578E-001	3.49664E-001	2.66956E-004	..........a	-327.66
	35	9.3	3.48978E-001	3.49975E-001	2.36689E-004	..........a	-327.66
	36	9.5583	3.49347E-001	3.50417E-001	2.57956E-004	..........a	-327.66
	37	9.8167	3.49686E-001	3.50752E-001	2.51756E-004	..........a	-327.66
	38	10.075	3.50023E-001	3.51230E-001	2.62956E-004	..........a	-327.66
EOC	QUANT	0.3500232	Open Circuit (V)
PSTATMODEL	IQUANT	7	Pstat Model
PSTATSECTION	LABEL	REF600P-43058	Pstat Section
PSTATSERIALNO	LABEL	43058	Pstat Serial Number
CTRLMODE	IQUANT	1	Control Mode
ELECTROMETER	IQUANT	0	RE=0 or CS=1
IESTAB	IQUANT	2	I/E Stability
CASPEED	IQUANT	4	Control Amp Speed
CONVENTION	IQUANT	1	Current Convention
ICHRANGE	IQUANT	2	Ich Range
ICHRANGEMODE	TOGGLE	F	Ich Auto Range
ICHOFFSETENABLE	TOGGLE	F	Ich Offset Enable
ICHOFFSET	QUANT	0	Ich Offset (V)
ICHFILTER	IQUANT	2	Ich Filter
VCHRANGE	IQUANT	2	Vch Range
VCHRANGEMODE	TOGGLE	F	Vch Auto Range
VCHOFFSETENABLE	TOGGLE	F	Vch Offset Enable
VCHOFFSET	QUANT	0	Vch Offset (V)
VCHFILTER	IQUANT	2	Vch Filter
ACHRANGE	IQUANT	2	Ach Range
ACHOFFSETENABLE	TOGGLE	F	Ach Offset Enable
ACHOFFSET	QUANT	0	Ach Offset (V)
ACHFILTER	IQUANT	1	Ach Filter
IERANGELOWERLIMIT	IQUANT	1	I/E Range Lower Limit
IERANGEMODE	TOGGLE	F	I/E AutoRange
IERANGE	IQUANT	4	I/E Range
POSFEEDENABLE	TOGGLE	F	Positive Feedback IR Comp
POSFEEDRESISTANCE	QUANT	0	Positive Feedback Resistance (ohm)
ACHSELECT	IQUANT	4	Ach Select
SENSECABLEID	IQUANT	7	Sense Cable ID
PWRCABLEID	IQUANT	7	Power Cable ID
DCCALDATE	LABEL	12/18/2023	DC Calibration Date
ACCALDATE	LABEL	12/18/2023	AC Calibration Date
THERMOSELECT	IQUANT	1	Thermo Select
FRAMEWORKVERSION	LABEL	7.8.4	Framework Version
INSTRUMENTVERSION	LABEL	4.42	Instrument Version
CURVE1	TABLE
	Pt	T	Vf	Im	Vu	Sig	Ach	IERange	Over	Temp
	#	s	V vs. Ref.	A	V	V	V	#	bits	deg C
	0	0.2	3.49923E-001	1.40103E-011	0.00000E+000	3.50000E-001	1.00892E-003	4	..........a	-327.66
	1	0.4	3.40049E-001	-1.88969E-011	0.00000E+000	3.40000E-001	1.02712E-003	4	..........a	-327.66
	2	0.6	3.30037E-001	-3.13924E-011	0.00000E+000	3.30000E-001	1.03612E-003	4	..........a	-327.66
	3	0.8	3.20018E-001	-3.74096E-011	0.00000E+000	3.20000E-001	1.04152E-003	4	..........a	-327.66
	4	1	3.10029E-001	-4.00337E-011	0.00000E+000	3.10000E-001	1.05132E-003	4	..........a	-327.66
	5	1.2	3.00049E-001	-4.37179E-011	0.00000E+000	3.00000E-001	1.01222E-003	4	..........a	-327.66
	6	1.4	2.89991E-001	-4.84511E-011	0.00000E+000	2.90000E-001	1.00592E-003	4	..........a	-327.66
	7	1.6	2.80008E-001	-5.01421E-011	0.00000E+000	2.80000E-001	1.01022E-003	4	..........a	-327.66
	8	1.8	2.70061E-001	-5.21542E-011	0.00000E+000	2.70000E-001	1.02212E-003	4	..........a	-327.66
	9	2	2.60038E-001	-5.47993E-011	0.00000E+000	2.60000E-001	1.05582E-003	4	..........a	-327.66
	10	2.2	2.50104E-001	-5.61174E-011	0.00000E+000	2.50000E-001	1.02062E-003	4	..........a	-327.66
	11	2.4	2.40009E-001	-5.89915E-011	0.00000E+000	2.40000E-001	1.00632E-003	4	..........a	-327.66
	12	2.6	2.29953E-001	-6.03715E-011	0.00000E+000	2.30000E-001	1.02462E-003	4	..........a	-327.66
	13	2.8	2.20004E-001	-6.32986E-011	0.00000E+000	2.20000E-001	1.04612E-003	4	..........a	-327.66
	14	3	2.09983E-001	-6.36346E-011	0.00000E+000	2.10000E-001	1.02842E-003	4	..........a	-327.66
	15	3.2	1.99996E-001	-6.63417E-011	0.00000E+000	2.00000E-001	1.03792E-003	4	..........a	-327.66
	16	3.4	1.90043E-001	-6.75878E-011	0.00000E+000	1.90000E-001	1.03152E-003	4	..........a	-327.66
	17	3.6	1.80067E-001	-6.85828E-011	0.00000E+000	1.80000E-001	1.04382E-003	4	..........a	-327.66
	18	3.8	1.70114E-001	-6.96649E-011	0.00000E+000	1.70000E-001	1.00332E-003	4	..........a	-327.66
	19	4	1.60014E-001	-7.02179E-011	0.00000E+000	1.60000E-001	1.03052E-003	4	..........a	-327.66
	20	4.2	1.50044E-001	-7.07129E-011	0.00000E+000	1.50000E-001	1.04522E-003	4	..........a	-327.66
	21	4.4	1.40101E-001	-7.16210E-011	0.00000E+000	1.40000E-001	1.03242E-003	4	..........a	-327.66
	22	4.6	1.30095E-001	-7.24350E-011	0.00000E+000	1.30000E-001	1.02732E-003	4	..........a	-327.66
	23	4.8	1.20027E-001	-7.27010E-011	0.00000E+000	1.20000E-001	1.01142E-003	4	..........a	-327.66
	24	5	1.10075E-001	-7.34640E-011	0.00000E+000	1.10000E-001	1.04372E-003	4	..........a	-327.66
	25	5.2	1.00069E-001	-7.39400E-011	0.00000E+000	1.00000E-001	1.01572E-003	4	..........a	-327.66
	26	5.4	9.00223E-002	-7.43711E-011	0.00000E+000	9.00000E-002	1.00232E-003	4	..........a	-327.66
	27	5.6	8.00174E-002	-7.50081E-011	0.00000E+000	8.00000E-002	1.04682E-003	4	..........a	-327.66
	28	5.8	6.99769E-002	-7.65111E-011	0.00000E+000	7.00000E-002	1.00952E-003	4	..........a	-327.66
	29	6	6.01031E-002	-7.68332E-011	0.00000E+000	6.00000E-002	1.04142E-003	4	..........a	-327.66
	30	6.2	5.00495E-002	-7.80192E-011	0.00000E+000	5.00000E-002	9.94322E-004	4	..........a	-327.66
	31	6.4	4.01296E-002	-7.82282E-011	0.00000E+000	4.00000E-002	1.01362E-003	4	..........a	-327.66
	32	6.6	3.00096E-002	-7.90182E-011	0.00000E+000	3.00000E-002	1.03312E-003	4	..........a	-327.66
	33	6.8	2.00603E-002	-8.01983E-011	0.00000E+000	2.00000E-002	1.03032E-003	4	..........a	-327.66
	34	7	1.00702E-002	-8.11463E-011	0.00000E+000	1.00000E-002	1.00962E-003	4	..........a	-327.66
	35	7.2	3.30908E-005	-8.23664E-011	0.00000E+000	7.45058E-009	1.04792E-003	4	..........a	-327.66
	36	7.4	-1.00193E-002	-8.33664E-011	0.00000E+000	-1.00000E-002	1.01512E-003	4	..........a	-327.66
	37	7.6	-1.99392E-002	-8.46174E-011	0.00000E+000	-2.00000E-002	1.04682E-003	4	..........a	-327.66
	38	7.8	-2.99121E-002	-8.60895E-011	0.00000E+000	-3.00000E-002	1.01622E-003	4	..........a	-327.66
	39	8	-3.99279E-002	-8.81036E-011	0.00000E+000	-4.00000E-002	1.00432E-003	4	..........a	-327.66
	40	8.2	-4.99922E-002	-9.04827E-011	0.00000E+000	-5.00000E-002	1.00852E-003	4	..........a	-327.66
	41	8.4	-5.99683E-002	-9.23887E-011	0.00000E+000	-6.00000E-002	1.05012E-003	4	..........a	-327.66
	42	8.6	-6.99561E-002	-9.55499E-011	0.00000E+000	-7.00000E-002	1.02642E-003	4	..........a	-327.66
	43	8.8	-7.99704E-002	-9.82230E-011	0.00000E+000	-8.00000E-002	1.01242E-003	4	..........a	-327.66
	44	9	-8.99627E-002	-1.00943E-010	0.00000E+000	-9.00000E-002	1.02552E-003	4	..........a	-327.66
	45	9.2	-9.99110E-002	-1.04318E-010	0.00000E+000	-1.00000E-001	1.02152E-003	4	..........a	-327.66
	46	9.4	-1.10003E-001	-1.07563E-010	0.00000E+000	-1.10000E-001	1.02432E-003	4	..........a	-327.66
	47	9.6	-1.19966E-001	-1.11662E-010	0.00000E+000	-1.20000E-001	1.05202E-003	4	..........a	-327.66
	48	9.8	-1.30010E-001	-1.15807E-010	0.00000E+000	-1.30000E-001	1.02542E-003	4	..........a	-327.66
	49	10	-1.39931E-001	-1.19640E-010	0.00000E+000	-1.40000E-001	1.02132E-003	4	..........a	-327.66
	50	10.2	-1.49960E-001	-1.23894E-010	0.00000E+000	-1.50000E-001	9.87622E-004	4	..........a	-327.66
	51	10.4	-1.60013E-001	-1.28806E-010	0.00000E+000	-1.60000E-001	1.03242E-003	4	..........a	-327.66
	52	10.6	-1.69968E-001	-1.33926E-010	0.00000E+000	-1.70000E-001	1.02692E-003	4	..........a	-327.66
	53	10.8	-1.79992E-001	-1.38680E-010	0.00000E+000	-1.80000E-001	1.05072E-003	4	..........a	-327.66
	54	11	-1.89987E-001	-1.44501E-010	0.00000E+000	-1.90000E-001	1.04122E-003	4	..........a	-327.66
	55	11.2	-1.99979E-001	-1.50689E-010	0.00000E+000	-2.00000E-001	1.03482E-003	4	..........a	-327.66
	56	11.4	-2.09950E-001	-1.56961E-010	0.00000E+000	-2.10000E-001	1.02752E-003	4	..........a	-327.66
	57	11.6	-2.19892E-001	-1.63899E-010	0.00000E+000	-2.20000E-001	1.02562E-003	4	..........a	-327.66
	58	11.8	-2.29959E-001	-1.69920E-010	0.00000E+000	-2.30000E-001	1.01792E-003	4	..........a	-327.66
	59	12	-2.39941E-001	-1.77245E-010	0.00000E+000	-2.40000E-001	1.02592E-003	4	..........a	-327.66
	60	12.2	-2.49961E-001	-1.85397E-010	0.00000E+000	-2.50000E-001	1.03952E-003	4	..........a	-327.66
	61	12.4	-2.59965E-001	-1.93764E-010	0.00000E+000	-2.60000E-001	1.03052E-003	4	..........a	-327.66
	62	12.6	-2.69908E-001	-2.02240E-010	0.00000E+000	-2.70000E-001	1.02392E-003	4	..........a	-327.66
	63	12.8	-2.79979E-001	-2.12016E-010	0.00000E+000	-2.80000E-001	1.04812E-003	4	..........a	-327.66
	64	13	-2.89982E-001	-2.20902E-010	0.00000E+000	-2.90000E-001	1.02622E-003	4	..........a	-327.66
	65	13.2	-2.99896E-001	-2.30588E-010	0.00000E+000	-3.00000E-001	1.02712E-003	4	..........a	-327.66
	66	13.4	-3.09896E-001	-2.40779E-010	0.00000E+000	-3.10000E-001	1.02232E-003	4	..........a	-327.66
	67	13.6	-3.19906E-001	-2.52167E-010	0.00000E+000	-3.20000E-001	1.03822E-003	4	..........a	-327.66
	68	13.8	-3.29892E-001	-2.62521E-010	0.00000E+000	-3.30000E-001	1.02582E-003	4	..........a	-327.66
	69	14	-3.39920E-001	-2.76836E-010	0.00000E+000	-3.40000E-001	1.02772E-003	4	..........a	-327.66
	70	14.2	-3.49906E-001	-2.91410E-010	0.00000E+000	-3.50000E-001	1.00282E-003	4	..........a	-327.66
	71	14.4	-3.59878E-001	-2.99327E-010	0.00000E+000	-3.60000E-001	9.98322E-004	4	..........a	-327.66
	72	14.6	-3.69863E-001	-3.13850E-010	0.00000E+000	-3.70000E-001	1.02032E-003	4	..........a	-327.66
	73	14.8	-3.79863E-001	-3.25326E-010	0.00000E+000	-3.80000E-001	1.01002E-003	4	..........a	-327.66
	74	15	-3.89874E-001	-3.38932E-010	0.00000E+000	-3.90000E-001	1.02392E-003	4	..........a	-327.66
	75	15.2	-3.99859E-001	-3.49802E-010	0.00000E+000	-4.00000E-001	1.02622E-003	4	..........a	-327.66
	76	15.4	-4.09919E-001	-3.58397E-010	0.00000E+000	-4.10000E-001	9.85422E-004	4	..........a	-327.66
	77	15.6	-4.19820E-001	-3.79611E-010	0.00000E+000	-4.20000E-001	1.03772E-003	4	..........a	-327.66
	78	15.8	-4.29844E-001	-3.96724E-010	0.00000E+000	-4.30000E-001	1.00522E-003	4	..........a	-327.66
	79	16	-4.39887E-001	-4.14030E-010	0.00000E+000	-4.40000E-001	1.01022E-003	4	..........a	-327.66
	80	16.2	-4.49850E-001	-4.28871E-010	0.00000E+000	-4.50000E-001	1.01792E-003	4	..........a	-327.66
	81	16.4	-4.59846E-001	-4.47333E-010	0.00000E+000	-4.60000E-001	1.02402E-003	4	..........a	-327.66
	82	16.6	-4.69834E-001	-4.64897E-010	0.00000E+000	-4.70000E-001	1.02782E-003	4	..........a	-327.66
	83	16.8	-4.79832E-001	-4.83604E-010	0.00000E+000	-4.80000E-001	1.00462E-003	4	..........a	-327.66
	84	17	-4.89872E-001	-5.03356E-010	0.00000E+000	-4.90000E-001	1.02452E-003	4	..........a	-327.66
	85	17.2	-4.99865E-001	-5.22688E-010	0.00000E+000	-5.00000E-001	9.89522E-004	4	..........a	-327.66
	86	17.4	-5.09829E-001	-5.46644E-010	0.00000E+000	-5.10000E-001	1.01902E-003	4	..........a	-327.66
	87	17.6	-5.19871E-001	-5.69414E-010	0.00000E+000	-5.20000E-001	1.00162E-003	4	..........a	-327.66
	88	17.8	-5.29842E-001	-5.92338E-010	0.00000E+000	-5.30000E-001	1.02442E-003	4	..........a	-327.66
	89	18	-5.39876E-001	-6.18844E-010	0.00000E+000	-5.40000E-001	1.02962E-003	4	..........a	-327.66
	90	18.2	-5.49892E-001	-6.47818E-010	0.00000E+000	-5.50000E-001	1.02772E-003	4	..........a	-327.66
	91	18.4	-5.59878E-001	-6.78346E-010	0.00000E+000	-5.60000E-001	1.00602E-003	4	..........a	-327.66
	92	18.6	-5.69938E-001	-7.11060E-010	0.00000E+000	-5.70000E-001	1.02402E-003	4	..........a	-327.66
	93	18.8	-5.79863E-001	-7.47957E-010	0.00000E+000	-5.80000E-001	1.00642E-003	4	..........a	-327.66
	94	19	-5.89830E-001	-7.89361E-010	0.00000E+000	-5.90000E-001	1.03282E-003	4	..........a	-327.66
	95	19.2	-5.99879E-001	-8.31571E-010	0.00000E+000	-6.00000E-001	1.01992E-003	4	..........a	-327.66
	96	19.4	-5.89869E-001	-5.88273E-010	0.00000E+000	-5.90000E-001	1.03312E-003	4	..........a	-327.66
	97	19.6	-5.79837E-001	-4.41644E-010	0.00000E+000	-5.80000E-001	1.01372E-003	4	..........a	-327.66
	98	19.8	-5.69850E-001	-3.43911E-010	0.00000E+000	-5.70000E-001	1.00972E-003	4	..........a	-327.66
	99	20	-5.59915E-001	-2.74473E-010	0.00000E+000	-5.60000E-001	1.00502E-003	4	..........a	-327.66
	100	20.2	-5.49759E-001	-2.18386E-010	0.00000E+000	-5.50000E-001	1.03202E-003	4	..........a	-327.66
	101	20.4	-5.39917E-001	-1.73958E-010	0.00000E+000	-5.40000E-001	1.02352E-003	4	..........a	-327.66
	102	20.6	-5.29908E-001	-1.37022E-010	0.00000E+000	-5.30000E-001	1.04592E-003	4	..........a	-327.66
	103	20.8	-5.19892E-001	-1.05474E-010	0.00000E+000	-5.20000E-001	1.02422E-003	4	..........a	-327.66
	104	21	-5.09837E-001	-7.86762E-011	0.00000E+000	-5.10000E-001	9.96022E-004	4	..........a	-327.66
	105	21.2	-4.99849E-001	-5.49093E-011	0.00000E+000	-5.00000E-001	1.00222E-003	4	..........a	-327.66
	106	21.4	-4.89910E-001	-3.48815E-011	0.00000E+000	-4.90000E-001	1.01842E-003	4	..........a	-327.66
	107	21.6	-4.79931E-001	-1.64898E-011	0.00000E+000	-4.80000E-001	1.01222E-003	4	..........a	-327.66
	108	21.8	-4.69779E-001	-4.82026E-014	0.00000E+000	-4.70000E-001	1.01942E-003	4	..........a	-327.66
	109	22	-4.59860E-001	1.60434E-011	0.00000E+000	-4.60000E-001	1.02232E-003	4	..........a	-327.66
	110	22.2	-4.49854E-001	3.08510E-011	0.00000E+000	-4.50000E-001	1.01082E-003	4	..........a	-327.66
	111	22.4	-4.39864E-001	4.15344E-011	0.00000E+000	-4.40000E-001	1.02632E-003	4	..........a	-327.66
	112	22.6	-4.29851E-001	5.16388E-011	0.00000E+000	-4.30000E-001	1.00832E-003	4	..........a	-327.66
	113	22.8	-4.19868E-001	6.13872E-011	0.00000E+000	-4.20000E-001	1.00512E-003	4	..........a	-327.66
	114	23	-4.09923E-001	7.11175E-011	0.00000E+000	-4.10000E-001	9.93622E-004	4	..........a	-327.66
	115	23.2	-3.99878E-001	7.88278E-011	0.00000E+000	-4.00000E-001	1.02222E-003	4	..........a	-327.66
	116	23.4	-3.89894E-001	8.64181E-011	0.00000E+000	-3.90000E-001	1.00552E-003	4	..........a	-327.66
	117	23.6	-3.79896E-001	9.20463E-011	0.00000E+000	-3.80000E-001	1.01812E-003	4	..........a	-327.66
	118	23.8	-3.69947E-001	9.80566E-011	0.00000E+000	-3.70000E-001	1.01372E-003	4	..........a	-327.66
	119	24	-3.59956E-001	1.03363E-010	0.00000E+000	-3.60000E-001	1.04912E-003	4	..........a	-327.66
	120	24.2	-3.49893E-001	1.08185E-010	0.00000E+000	-3.50000E-001	9.98222E-004	4	..........a	-327.66
	121	24.4	-3.39975E-001	1.15085E-010	0.00000E+000	-3.40000E-001	1.03772E-003	4	..........a	-327.66
	122	24.6	-3.29963E-001	1.16601E-010	0.00000E+000	-3.30000E-001	1.03562E-003	4	..........a	-327.66
	123	24.8	-3.19908E-001	1.20314E-010	0.00000E+000	-3.20000E-001	1.04032E-003	4	..........a	-327.66
	124	25	-3.09860E-001	1.22407E-010	0.00000E+000	-3.10000E-001	1.02852E-003	4	..........a	-327.66
	125	25.2	-2.99887E-001	1.25494E-010	0.00000E+000	-3.00000E-001	1.02312E-003	4	..........a	-327.66
	126	25.4	-2.90021E-001	1.28475E-010	0.00000E+000	-2.90000E-001	1.03862E-003	4	..........a	-327.66
	127	25.6	-2.79926E-001	1.28805E-010	0.00000E+000	-2.80000E-001	1.03492E-003	4	..........a	-327.66
	128	25.8	-2.69873E-001	1.31033E-010	0.00000E+000	-2.70000E-001	9.98922E-004	4	..........a	-327.66
	129	26	-2.59911E-001	1.31584E-010	0.00000E+000	-2.60000E-001	1.03002E-003	4	..........a	-327.66
	130	26.2	-2.49912E-001	1.32738E-010	0.00000E+000	-2.50000E-001	1.02772E-003	4	..........a	-327.66
	131	26.4	-2.39861E-001	1.31931E-010	0.00000E+000	-2.40000E-001	1.02362E-003	4	..........a	-327.66
	132	26.6	-2.29928E-001	1.32655E-010	0.00000E+000	-2.30000E-001	1.03212E-003	4	..........a	-327.66
	133	26.8	-2.19890E-001	1.32093E-010	0.00000E+000	-2.20000E-001	1.02662E-003	4	..........a	-327.66
	134	27	-2.09954E-001	1.32680E-010	0.00000E+000	-2.10000E-001	1.01732E-003	4	..........a	-327.66
	135	27.2	-1.99929E-001	1.32432E-010	0.00000E+000	-2.00000E-001	1.01862E-003	4	..........a	-327.66
	136	27.4	-1.90060E-001	1.31372E-010	0.00000E+000	-1.90000E-001	1.00872E-003	4	..........a	-327.66
	137	27.6	-1.79934E-001	1.31983E-010	0.00000E+000	-1.80000E-001	9.98022E-004	4	..........a	-327.66
	138	27.8	-1.69953E-001	1.30594E-010	0.00000E+000	-1.70000E-001	1.03572E-003	4	..........a	-327.66
	139	28	-1.59937E-001	1.30164E-010	0.00000E+000	-1.60000E-001	1.01392E-003	4	..........a	-327.66
	140	28.2	-1.49970E-001	1.28387E-010	0.00000E+000	-1.50000E-001	1.02052E-003	4	..........a	-327.66
	141	28.4	-1.39955E-001	1.27429E-010	0.00000E+000	-1.40000E-001	1.00962E-003	4	..........a	-327.66
	142	28.6	-1.30054E-001	1.29059E-010	0.00000E+000	-1.30000E-001	1.03632E-003	4	..........a	-327.66
	143	28.8	-1.19987E-001	1.27064E-010	0.00000E+000	-1.20000E-001	1.02892E-003	4	..........a	-327.66
	144	29	-1.10021E-001	1.28070E-010	0.00000E+000	-1.10000E-001	1.00072E-003	4	..........a	-327.66
	145	29.2	-9.99269E-002	1.26294E-010	0.00000E+000	-1.00000E-001	1.01552E-003	4	..........a	-327.66
	146	29.4	-8.99587E-002	1.27108E-010	0.00000E+000	-9.00000E-002	1.01702E-003	4	..........a	-327.66
	147	29.6	-7.99918E-002	1.24468E-010	0.00000E+000	-8.00000E-002	1.03502E-003	4	..........a	-327.66
	148	29.8	-6.99205E-002	1.24013E-010	0.00000E+000	-7.00000E-002	1.01782E-003	4	..........a	-327.66
	149	30	-5.99371E-002	1.24421E-010	0.00000E+000	-6.00000E-002	1.01882E-003	4	..........a	-327.66
	150	30.2	-4.99942E-002	1.23897E-010	0.00000E+000	-5.00000E-002	1.02562E-003	4	..........a	-327.66
	151	30.4	-3.99736E-002	1.24047E-010	0.00000E+000	-4.00000E-002	1.00712E-003	4	..........a	-327.66
	152	30.6	-2.99191E-002	1.22641E-010	0.00000E+000	-3.00000E-002	9.99822E-004	4	..........a	-327.66
	153	30.8	-1.98985E-002	1.26653E-010	0.00000E+000	-2.00000E-002	1.01182E-003	4	..........a	-327.66
	154	31	-9.98826E-003	1.23167E-010	0.00000E+000	-1.00000E-002	9.95322E-004	4	..........a	-327.66
	155	31.2	5.94408E-005	1.26317E-010	0.00000E+000	7.45058E-009	1.03532E-003	4	..........a	-327.66
	156	31.4	1.01084E-002	1.23555E-010	0.00000E+000	1.00000E-002	1.02302E-003	4	..........a	-327.66
	157	31.6	2.00345E-002	1.23671E-010	0.00000E+000	2.00000E-002	1.03112E-003	4	..........a	-327.66
	158	31.8	3.00260E-002	1.27504E-010	0.00000E+000	3.00000E-002	1.00212E-003	4	..........a	-327.66
	159	32	3.97862E-002	1.23779E-010	0.00000E+000	4.00000E-002	1.03482E-003	4	..........a	-327.66
	160	32.2	5.00774E-002	1.28066E-010	0.00000E+000	5.00000E-002	1.00332E-003	4	..........a	-327.66
	161	32.4	6.00912E-002	1.26113E-010	0.00000E+000	6.00000E-002	1.01372E-003	4	..........a	-327.66
	162	32.6	6.99268E-002	1.28290E-010	0.00000E+000	7.00000E-002	1.02642E-003	4	..........a	-327.66
	163	32.8	8.00330E-002	1.27895E-010	0.00000E+000	8.00000E-002	1.02952E-003	4	..........a	-327.66
	164	33	9.02244E-002	1.29203E-010	0.00000E+000	9.00000E-002	9.97222E-004	4	..........a	-327.66
	165	33.2	1.00028E-001	1.31033E-010	0.00000E+000	1.00000E-001	1.02922E-003	4	..........a	-327.66
	166	33.4	1.10048E-001	1.31949E-010	0.00000E+000	1.10000E-001	1.01912E-003	4	..........a	-327.66
	167	33.6	1.20074E-001	1.33627E-010	0.00000E+000	1.20000E-001	1.02452E-003	4	..........a	-327.66
	168	33.8	1.30124E-001	1.35928E-010	0.00000E+000	1.30000E-001	1.00112E-003	4	..........a	-327.66
	169	34	1.40107E-001	1.37638E-010	0.00000E+000	1.40000E-001	1.01782E-003	4	..........a	-327.66
	170	34.2	1.50019E-001	1.40054E-010	0.00000E+000	1.50000E-001	1.02482E-003	4	..........a	-327.66
	171	34.4	1.60059E-001	1.41746E-010	0.00000E+000	1.60000E-001	1.01812E-003	4	..........a	-327.66
	172	34.6	1.70049E-001	1.44629E-010	0.00000E+000	1.70000E-001	9.93522E-004	4	..........a	-327.66
	173	34.8	1.80094E-001	1.50562E-010	0.00000E+000	1.80000E-001	1.02332E-003	4	..........a	-327.66
	174	35	1.90046E-001	1.53895E-010	0.00000E+000	1.90000E-001	1.00552E-003	4	..........a	-327.66
	175	35.2	2.00058E-001	1.56666E-010	0.00000E+000	2.00000E-001	1.03532E-003	4	..........a	-327.66
	176	35.4	2.10043E-001	1.54995E-010	0.00000E+000	2.10000E-001	1.01342E-003	4	..........a	-327.66
	177	35.6	2.19861E-001	1.59645E-010	0.00000E+000	2.20000E-001	1.02072E-003	4	..........a	-327.66
	178	35.8	2.29950E-001	1.63182E-010	0.00000E+000	2.30000E-001	1.00682E-003	4	..........a	-327.66
	179	36	2.40060E-001	1.66390E-010	0.00000E+000	2.40000E-001	1.01272E-003	4	..........a	-327.66
	180	36.2	2.50081E-001	1.69847E-010	0.00000E+000	2.50000E-001	1.04442E-003	4	..........a	-327.66
	181	36.4	2.60021E-001	1.73545E-010	0.00000E+000	2.60000E-001	1.02512E-003	4	..........a	-327.66
	182	36.6	2.69975E-001	1.77597E-010	0.00000E+000	2.70000E-001	1.00812E-003	4	..........a	-327.66
	183	36.8	2.79979E-001	1.84196E-010	0.00000E+000	2.80000E-001	1.04732E-003	4	..........a	-327.66
	184	37	2.90039E-001	1.86645E-010	0.00000E+000	2.90000E-001	9.94022E-004	4	..........a	-327.66
	185	37.2	3.00045E-001	1.93000E-010	0.00000E+000	3.00000E-001	1.02822E-003	4	..........a	-327.66
	186	37.4	3.09990E-001	1.96057E-010	0.00000E+000	3.10000E-001	1.00212E-003	4	..........a	-327.66
	187	37.6	3.20036E-001	2.00696E-010	0.00000E+000	3.20000E-001	1.00532E-003	4	..........a	-327.66
	188	37.8	3.30069E-001	2.05237E-010	0.00000E+000	3.30000E-001	1.02822E-003	4	..........a	-327.66
	189	38	3.40074E-001	2.11802E-010	0.00000E+000	3.40000E-001	1.04082E-003	4	..........a	-327.66
	190	38.2	3.50028E-001	2.17209E-010	0.00000E+000	3.50000E-001	1.01842E-003	4	..........a	-327.66
	191	38.4	3.59999E-001	2.22878E-010	0.00000E+000	3.60000E-001	1.02442E-003	4	..........a	-327.66
	192	38.6	3.70024E-001	2.31060E-010	0.00000E+000	3.70000E-001	1.00982E-003	4	..........a	-327.66
	193	38.8	3.79984E-001	2.38863E-010	0.00000E+000	3.80000E-001	9.93122E-004	4	..........a	-327.66
	194	39	3.89961E-001	2.47025E-010	0.00000E+000	3.90000E-001	1.04002E-003	4	..........a	-327.66
	195	39.2	3.99929E-001	2.55084E-010	0.00000E+000	4.00000E-001	1.04622E-003	4	..........a	-327.66
	196	39.4	4.09957E-001	2.63940E-010	0.00000E+000	4.10000E-001	1.03792E-003	4	..........a	-327.66
	197	39.6	4.20016E-001	2.73609E-010	0.00000E+000	4.20000E-001	1.00752E-003	4	..........a	-327.66
	198	39.8	4.29946E-001	2.83033E-010	0.00000E+000	4.30000E-001	1.02862E-003	4	..........a	-327.66
	199	40	4.39935E-001	2.93720E-010	0.00000E+000	4.40000E-001	1.02372E-003	4	..........a	-327.66
	200	40.2	4.49974E-001	3.04564E-010	0.00000E+000	4.50000E-001	9.94522E-004	4	..........a	-327.66
	201	40.4	4.59985E-001	3.15633E-010	0.00000E+000	4.60000E-001	1.04772E-003	4	..........a	-327.66
	202	40.6	4.69958E-001	3.26818E-010	0.00000E+000	4.70000E-001	1.01492E-003	4	..........a	-327.66
	203	40.8	4.79960E-001	3.38515E-010	0.00000E+000	4.80000E-001	1.00282E-003	4	..........a	-327.66
	204	41	4.89968E-001	3.50644E-010	0.00000E+000	4.90000E-001	1.03052E-003	4	..........a	-327.66
	205	41.2	5.00027E-001	3.63087E-010	0.00000E+000	5.00000E-001	1.00922E-003	4	..........a	-327.66
	206	41.4	5.09918E-001	3.75238E-010	0.00000E+000	5.10000E-001	1.01712E-003	4	..........a	-327.66
	207	41.6	5.19942E-001	3.87414E-010	0.00000E+000	5.20000E-001	1.03882E-003	4	..........a	-327.66
	208	41.8	5.29968E-001	3.99760E-010	0.00000E+000	5.30000E-001	9.93722E-004	4	..........a	-327.66
	209	42	5.40032E-001	4.11788E-010	0.00000E+000	5.40000E-001	1.02382E-003	4	..........a	-327.66
	210	42.2	5.49972E-001	4.24973E-010	0.00000E+000	5.50000E-001	1.00292E-003	4	..........a	-327.66
	211	42.4	5.59964E-001	4.37587E-010	0.00000E+000	5.60000E-001	1.02672E-003	4	..........a	-327.66
	212	42.6	5.69983E-001	4.50018E-010	0.00000E+000	5.70000E-001	1.01592E-003	4	..........a	-327.66
	213	42.8	5.80029E-001	4.63447E-010	0.00000E+000	5.80000E-001	1.03072E-003	4	..........a	-327.66
	214	43	5.89963E-001	4.75266E-010	0.00000E+000	5.90000E-001	1.00472E-003	4	..........a	-327.66
	215	43.2	5.99935E-001	4.88303E-010	0.00000E+000	6.00000E-001	1.00262E-003	4	..........a	-327.66
	216	43.4	6.09958E-001	5.01245E-010	0.00000E+000	6.10000E-001	1.01832E-003	4	..........a	-327.66
	217	43.6	6.20006E-001	5.14386E-010	0.00000E+000	6.20000E-001	1.01872E-003	4	..........a	-327.66
	218	43.8	6.29918E-001	5.26663E-010	0.00000E+000	6.30000E-001	1.02672E-003	4	..........a	-327.66
	219	44	6.39889E-001	5.40608E-010	0.00000E+000	6.40000E-001	1.00682E-003	4	..........a	-327.66
	220	44.2	6.49922E-001	5.52354E-010	0.00000E+000	6.50000E-001	9.98322E-004	4	..........a	-327.66
	221	44.4	6.60022E-001	5.66416E-010	0.00000E+000	6.60000E-001	1.01572E-003	4	..........a	-327.66
	222	44.6	6.69920E-001	5.78523E-010	0.00000E+000	6.70000E-001	1.02372E-003	4	..........a	-327.66
	223	44.8	6.79800E-001	5.92037E-010	0.00000E+000	6.80000E-001	1.00782E-003	4	..........a	-327.66
	224	45	6.89931E-001	6.04097E-010	0.00000E+000	6.90000E-001	9.99722E-004	4	..........a	-327.66
	225	45.2	6.99999E-001	6.18491E-010	0.00000E+000	7.00000E-001	1.04462E-003	4	..........a	-327.66
	226	45.4	7.09852E-001	6.33668E-010	0.00000E+000	7.10000E-001	1.00792E-003	4	..........a	-327.66
	227	45.6	7.19950E-001	6.48354E-010	0.00000E+000	7.20000E-001	1.02122E-003	4	..........a	-327.66
	228	45.8	7.29946E-001	6.68650E-010	0.00000E+000	7.30000E-001	1.01332E-003	4	..........a	-327.66
	229	46	7.40021E-001	6.82899E-010	0.00000E+000	7.40000E-001	1.02742E-003	4	..........a	-327.66
	230	46.2	7.49943E-001	7.02071E-010	0.00000E+000	7.50000E-001	1.01302E-003	4	..........a	-327.66
	231	46.4	7.59968E-001	7.21228E-010	0.00000E+000	7.60000E-001	1.02482E-003	4	..........a	-327.66
	232	46.6	7.69956E-001	7.41651E-010	0.00000E+000	7.70000E-001	1.01202E-003	4	..........a	-327.66
	233	46.8	7.79989E-001	7.66363E-010	0.00000E+000	7.80000E-001	1.00932E-003	4	..........a	-327.66
	234	47	7.89896E-001	7.90777E-010	0.00000E+000	7.90000E-001	1.03342E-003	4	..........a	-327.66
	235	47.2	7.99873E-001	8.17152E-010	0.00000E+000	8.00000E-001	1.00762E-003	4	..........a	-327.66
CURVE2	TABLE
	Pt	T	Vf	Im	Vu	Sig	Ach	IERange	Over	Temp
	#	s	V vs. Ref.	A	V	V	V	#	bits	deg C
	236	47.4	7.89901E-001	5.95094E-010	0.00000E+000	7.90000E-001	9.88922E-004	4	..........a	-327.66
	237	47.6	7.79975E-001	4.44875E-010	0.00000E+000	7.80000E-001	1.03292E-003	4	..........a	-327.66
	238	47.8	7.69866E-001	3.38717E-010	0.00000E+000	7.70000E-001	1.00632E-003	4	..........a	-327.66
	239	48	7.59882E-001	2.57807E-010	0.00000E+000	7.60000E-001	1.03292E-003	4	..........a	-327.66
	240	48.2	7.49928E-001	1.95569E-010	0.00000E+000	7.50000E-001	1.01542E-003	4	..........a	-327.66
	241	48.4	7.39980E-001	1.46032E-010	0.00000E+000	7.40000E-001	1.03312E-003	4	..........a	-327.66
	242	48.6	7.30096E-001	1.05939E-010	0.00000E+000	7.30000E-001	1.00192E-003	4	..........a	-327.66
	243	48.8	7.19940E-001	7.40366E-011	0.00000E+000	7.20000E-001	1.02852E-003	4	..........a	-327.66
	244	49	7.09878E-001	4.78456E-011	0.00000E+000	7.10000E-001	1.04452E-003	4	..........a	-327.66
	245	49.2	6.99988E-001	2.94389E-011	0.00000E+000	7.00000E-001	1.02932E-003	4	..........a	-327.66
	246	49.4	6.89938E-001	8.21512E-012	0.00000E+000	6.90000E-001	1.01172E-003	4	..........a	-327.66
	247	49.6	6.79816E-001	-7.30548E-012	0.00000E+000	6.80000E-001	1.03212E-003	4	..........a	-327.66
	248	49.8	6.69931E-001	-2.07280E-011	0.00000E+000	6.70000E-001	1.01252E-003	4	..........a	-327.66
	249	50	6.60008E-001	-3.30615E-011	0.00000E+000	6.60000E-001	1.01482E-003	4	..........a	-327.66
	250	50.2	6.49940E-001	-4.15188E-011	0.00000E+000	6.50000E-001	1.03232E-003	4	..........a	-327.66
	251	50.4	6.39944E-001	-5.12282E-011	0.00000E+000	6.40000E-001	1.00782E-003	4	..........a	-327.66
	252	50.6	6.29937E-001	-5.89345E-011	0.00000E+000	6.30000E-001	1.02462E-003	4	..........a	-327.66
	253	50.8	6.20010E-001	-6.59077E-011	0.00000E+000	6.20000E-001	1.00592E-003	4	..........a	-327.66
	254	51	6.09970E-001	-7.28390E-011	0.00000E+000	6.10000E-001	1.00862E-003	4	..........a	-327.66
	255	51.2	5.99983E-001	-7.92822E-011	0.00000E+000	6.00000E-001	1.04992E-003	4	..........a	-327.66
	256	51.4	5.89958E-001	-8.51445E-011	0.00000E+000	5.90000E-001	1.03732E-003	4	..........a	-327.66
	257	51.6	5.79990E-001	-9.07377E-011	0.00000E+000	5.80000E-001	1.03582E-003	4	..........a	-327.66
	258	51.8	5.69960E-001	-9.57809E-011	0.00000E+000	5.70000E-001	1.01832E-003	4	..........a	-327.66
	259	52	5.59961E-001	-9.92850E-011	0.00000E+000	5.60000E-001	1.01002E-003	4	..........a	-327.66
	260	52.2	5.49979E-001	-1.02779E-010	0.00000E+000	5.50000E-001	1.02782E-003	4	..........a	-327.66
	261	52.4	5.40032E-001	-1.06501E-010	0.00000E+000	5.40000E-001	1.01172E-003	4	..........a	-327.66
	262	52.6	5.29941E-001	-1.10734E-010	0.00000E+000	5.30000E-001	1.01572E-003	4	..........a	-327.66
	263	52.8	5.19977E-001	-1.14223E-010	0.00000E+000	5.20000E-001	1.03512E-003	4	..........a	-327.66
	264	53	5.09959E-001	-1.17093E-010	0.00000E+000	5.10000E-001	9.97422E-004	4	..........a	-327.66
	265	53.2	5.00031E-001	-1.18830E-010	0.00000E+000	5.00000E-001	1.02972E-003	4	..........a	-327.66
	266	53.4	4.89992E-001	-1.21270E-010	0.00000E+000	4.90000E-001	1.02962E-003	4	..........a	-327.66
	267	53.6	4.79959E-001	-1.23718E-010	0.00000E+000	4.80000E-001	1.03462E-003	4	..........a	-327.66
	268	53.8	4.69962E-001	-1.25853E-010	0.00000E+000	4.70000E-001	1.03362E-003	4	..........a	-327.66
	269	54	4.60021E-001	-1.26696E-010	0.00000E+000	4.60000E-001	1.03102E-003	4	..........a	-327.66
	270	54.2	4.50029E-001	-1.29267E-010	0.00000E+000	4.50000E-001	1.02002E-003	4	..........a	-327.66
	271	54.4	4.39965E-001	-1.29358E-010	0.00000E+000	4.40000E-001	1.03222E-003	4	..........a	-327.66
	272	54.6	4.29976E-001	-1.31897E-010	0.00000E+000	4.30000E-001	1.00702E-003	4	..........a	-327.66
	273	54.8	4.20025E-001	-1.32756E-010	0.00000E+000	4.20000E-001	1.02772E-003	4	..........a	-327.66
	274	55	4.09963E-001	-1.33608E-010	0.00000E+000	4.10000E-001	1.03332E-003	4	..........a	-327.66
	275	55.2	3.99937E-001	-1.35408E-010	0.00000E+000	4.00000E-001	1.02342E-003	4	..........a	-327.66
	276	55.4	3.89975E-001	-1.35556E-010	0.00000E+000	3.90000E-001	1.00122E-003	4	..........a	-327.66
	277	55.6	3.80010E-001	-1.36834E-010	0.00000E+000	3.80000E-001	1.02022E-003	4	..........a	-327.66
	278	55.8	3.70016E-001	-1.36704E-010	0.00000E+000	3.70000E-001	1.02942E-003	4	..........a	-327.66
	279	56	3.59865E-001	-1.38610E-010	0.00000E+000	3.60000E-001	1.02052E-003	4	..........a	-327.66
	280	56.2	3.49972E-001	-1.38948E-010	0.00000E+000	3.50000E-001	1.02272E-003	4	..........a	-327.66
	281	56.4	3.40050E-001	-1.40238E-010	0.00000E+000	3.40000E-001	1.02242E-003	4	..........a	-327.66
	282	56.6	3.30001E-001	-1.40845E-010	0.00000E+000	3.30000E-001	1.02152E-003	4	..........a	-327.66
	283	56.8	3.19903E-001	-1.41628E-010	0.00000E+000	3.20000E-001	1.03462E-003	4	..........a	-327.66
	284	57	3.09975E-001	-1.42232E-010	0.00000E+000	3.10000E-001	1.00382E-003	4	..........a	-327.66
	285	57.2	2.99994E-001	-1.43129E-010	0.00000E+000	3.00000E-001	1.02242E-003	4	..........a	-327.66
	286	57.4	2.90002E-001	-1.43195E-010	0.00000E+000	2.90000E-001	1.00772E-003	4	..........a	-327.66
	287	57.6	2.79958E-001	-1.43893E-010	0.00000E+000	2.80000E-001	1.05222E-003	4	..........a	-327.66
	288	57.8	2.69964E-001	-1.43985E-010	0.00000E+000	2.70000E-001	1.01122E-003	4	..........a	-327.66
	289	58	2.60003E-001	-1.44937E-010	0.00000E+000	2.60000E-001	1.01892E-003	4	..........a	-327.66
	290	58.2	2.50020E-001	-1.43973E-010	0.00000E+000	2.50000E-001	9.99722E-004	4	..........a	-327.66
	291	58.4	2.39966E-001	-1.45184E-010	0.00000E+000	2.40000E-001	1.01452E-003	4	..........a	-327.66
	292	58.6	2.29967E-001	-1.44889E-010	0.00000E+000	2.30000E-001	1.04482E-003	4	..........a	-327.66
	293	58.8	2.19989E-001	-1.45216E-010	0.00000E+000	2.20000E-001	1.02392E-003	4	..........a	-327.66
	294	59	2.10003E-001	-1.45281E-010	0.00000E+000	2.10000E-001	1.01182E-003	4	..........a	-327.66
	295	59.2	1.99987E-001	-1.44312E-010	0.00000E+000	2.00000E-001	1.01592E-003	4	..........a	-327.66
	296	59.4	1.90022E-001	-1.44322E-010	0.00000E+000	1.90000E-001	1.00142E-003	4	..........a	-327.66
	297	59.6	1.80035E-001	-1.43430E-010	0.00000E+000	1.80000E-001	1.02172E-003	4	..........a	-327.66
	298	59.8	1.70060E-001	-1.42335E-010	0.00000E+000	1.70000E-001	1.00882E-003	4	..........a	-327.66
	299	60	1.59959E-001	-1.42334E-010	0.00000E+000	1.60000E-001	1.02332E-003	4	..........a	-327.66
	300	60.2	1.50003E-001	-1.41192E-010	0.00000E+000	1.50000E-001	1.03182E-003	4	..........a	-327.66
	301	60.4	1.40085E-001	-1.40967E-010	0.00000E+000	1.40000E-001	1.01892E-003	4	..........a	-327.66
	302	60.6	1.30066E-001	-1.39559E-010	0.00000E+000	1.30000E-001	1.02202E-003	4	..........a	-327.66
	303	60.8	1.19984E-001	-1.39831E-010	0.00000E+000	1.20000E-001	1.03082E-003	4	..........a	-327.66
	304	61	1.10040E-001	-1.38902E-010	0.00000E+000	1.10000E-001	1.02802E-003	4	..........a	-327.66
	305	61.2	9.99944E-002	-1.39155E-010	0.00000E+000	1.00000E-001	1.03012E-003	4	..........a	-327.66
	306	61.4	9.00167E-002	-1.39138E-010	0.00000E+000	9.00000E-002	1.02352E-003	4	..........a	-327.66
	307	61.6	7.99309E-002	-1.38977E-010	0.00000E+000	8.00000E-002	1.00472E-003	4	..........a	-327.66
	308	61.8	6.99704E-002	-1.38100E-010	0.00000E+000	7.00000E-002	1.02482E-003	4	..........a	-327.66
	309	62	6.00664E-002	-1.38886E-010	0.00000E+000	6.00000E-002	1.01472E-003	4	..........a	-327.66
	310	62.2	5.00221E-002	-1.38807E-010	0.00000E+000	5.00000E-002	1.01532E-003	4	..........a	-327.66
	311	62.4	3.99270E-002	-1.40787E-010	0.00000E+000	4.00000E-002	1.01032E-003	4	..........a	-327.66
	312	62.6	2.99970E-002	-1.42100E-010	0.00000E+000	3.00000E-002	1.04772E-003	4	..........a	-327.66
	313	62.8	1.99940E-002	-1.43867E-010	0.00000E+000	2.00000E-002	1.02412E-003	4	..........a	-327.66
	314	63	1.00645E-002	-1.45482E-010	0.00000E+000	1.00000E-002	1.02302E-003	4	..........a	-327.66
	315	63.2	8.14085E-006	-1.47316E-010	0.00000E+000	7.45058E-009	1.01312E-003	4	..........a	-327.66
	316	63.4	-9.96541E-003	-1.49024E-010	0.00000E+000	-1.00000E-002	1.01362E-003	4	..........a	-327.66
	317	63.6	-1.99367E-002	-1.51644E-010	0.00000E+000	-2.00000E-002	1.02082E-003	4	..........a	-327.66
	318	63.8	-2.99437E-002	-1.54639E-010	0.00000E+000	-3.00000E-002	1.02152E-003	4	..........a	-327.66
	319	64	-3.99514E-002	-1.58335E-010	0.00000E+000	-4.00000E-002	1.02172E-003	4	..........a	-327.66
	320	64.2	-5.00129E-002	-1.62008E-010	0.00000E+000	-5.00000E-002	9.87822E-004	4	..........a	-327.66
	321	64.4	-5.99310E-002	-1.65460E-010	0.00000E+000	-6.00000E-002	1.02772E-003	4	..........a	-327.66
	322	64.6	-6.99349E-002	-1.69189E-010	0.00000E+000	-7.00000E-002	1.00732E-003	4	..........a	-327.66
	323	64.8	-7.99645E-002	-1.73325E-010	0.00000E+000	-8.00000E-002	1.02432E-003	4	..........a	-327.66
	324	65	-8.99647E-002	-1.78116E-010	0.00000E+000	-9.00000E-002	1.01992E-003	4	..........a	-327.66
	325	65.2	-9.99706E-002	-1.83757E-010	0.00000E+000	-1.00000E-001	1.04572E-003	4	..........a	-327.66
	326	65.4	-1.09910E-001	-1.87973E-010	0.00000E+000	-1.10000E-001	1.00992E-003	4	..........a	-327.66
	327	65.6	-1.20004E-001	-1.93927E-010	0.00000E+000	-1.20000E-001	1.01542E-003	4	..........a	-327.66
	328	65.8	-1.30017E-001	-1.99216E-010	0.00000E+000	-1.30000E-001	1.04342E-003	4	..........a	-327.66
	329	66	-1.39973E-001	-2.05208E-010	0.00000E+000	-1.40000E-001	1.00422E-003	4	..........a	-327.66
	330	66.2	-1.49970E-001	-2.11755E-010	0.00000E+000	-1.50000E-001	1.00732E-003	4	..........a	-327.66
	331	66.4	-1.60000E-001	-2.18818E-010	0.00000E+000	-1.60000E-001	9.91722E-004	4	..........a	-327.66
	332	66.6	-1.69967E-001	-2.26160E-010	0.00000E+000	-1.70000E-001	1.01472E-003	4	..........a	-327.66
	333	66.8	-1.79933E-001	-2.33476E-010	0.00000E+000	-1.80000E-001	1.02792E-003	4	..........a	-327.66
	334	67	-1.89969E-001	-2.41025E-010	0.00000E+000	-1.90000E-001	9.92622E-004	4	..........a	-327.66
	335	67.2	-1.99964E-001	-2.49163E-010	0.00000E+000	-2.00000E-001	1.03732E-003	4	..........a	-327.66
	336	67.4	-2.09939E-001	-2.58869E-010	0.00000E+000	-2.10000E-001	1.00002E-003	4	..........a	-327.66
	337	67.6	-2.19904E-001	-2.65454E-010	0.00000E+000	-2.20000E-001	1.02522E-003	4	..........a	-327.66
	338	67.8	-2.29925E-001	-2.77608E-010	0.00000E+000	-2.30000E-001	1.00292E-003	4	..........a	-327.66
	339	68	-2.39903E-001	-2.88705E-010	0.00000E+000	-2.40000E-001	1.00842E-003	4	..........a	-327.66
	340	68.2	-2.49878E-001	-2.94310E-010	0.00000E+000	-2.50000E-001	1.03172E-003	4	..........a	-327.66
	341	68.4	-2.59846E-001	-3.02259E-010	0.00000E+000	-2.60000E-001	1.01312E-003	4	..........a	-327.66
	342	68.6	-2.69887E-001	-3.15200E-010	0.00000E+000	-2.70000E-001	1.01532E-003	4	..........a	-327.66
	343	68.8	-2.79858E-001	-3.22101E-010	0.00000E+000	-2.80000E-001	1.01772E-003	4	..........a	-327.66
	344	69	-2.89896E-001	-3.32453E-010	0.00000E+000	-2.90000E-001	1.00782E-003	4	..........a	-327.66
	345	69.2	-2.99866E-001	-3.41734E-010	0.00000E+000	-3.00000E-001	1.01452E-003	4	..........a	-327.66
	346	69.4	-3.09900E-001	-3.50464E-010	0.00000E+000	-3.10000E-001	1.00492E-003	4	..........a	-327.66
	347	69.6	-3.19814E-001	-3.56474E-010	0.00000E+000	-3.20000E-001	1.00952E-003	4	..........a	-327.66
	348	69.8	-3.29882E-001	-3.73112E-010	0.00000E+000	-3.30000E-001	1.01722E-003	4	..........a	-327.66
	349	70	-3.39876E-001	-3.83809E-010	0.00000E+000	-3.40000E-001	1.01792E-003	4	..........a	-327.66
	350	70.2	-3.49876E-001	-3.94931E-010	0.00000E+000	-3.50000E-001	1.03142E-003	4	..........a	-327.66
	351	70.4	-3.59920E-001	-4.07803E-010	0.00000E+000	-3.60000E-001	1.03762E-003	4	..........a	-327.66
	352	70.6	-3.69831E-001	-4.15259E-010	0.00000E+000	-3.70000E-001	9.99322E-004	4	..........a	-327.66
	353	70.8	-3.79859E-001	-4.28890E-010	0.00000E+000	-3.80000E-001	1.01132E-003	4	..........a	-327.66
[...]
	921	184.4	-4.59851E-001	-5.89677E-010	0.00000E+000	-4.60000E-001	1.00582E-003	4	..........a	-327.66
	922	184.6	-4.69818E-001	-6.08996E-010	0.00000E+000	-4.70000E-001	1.00342E-003	4	..........a	-327.66
	923	184.8	-4.79850E-001	-6.28546E-010	0.00000E+000	-4.80000E-001	1.01822E-003	4	..........a	-327.66
	924	185	-4.89905E-001	-6.50564E-010	0.00000E+000	-4.90000E-001	1.02122E-003	4	..........a	-327.66
	925	185.2	-4.99862E-001	-6.73413E-010	0.00000E+000	-5.00000E-001	1.00782E-003	4	..........a	-327.66
	926	185.4	-5.09847E-001	-6.98094E-010	0.00000E+000	-5.10000E-001	9.97522E-004	4	..........a	-327.66
	927	185.6	-5.19935E-001	-7.25365E-010	0.00000E+000	-5.20000E-001	1.01042E-003	4	..........a	-327.66
	928	185.8	-5.29914E-001	-7.54301E-010	0.00000E+000	-5.30000E-001	1.01542E-003	4	..........a	-327.66
	929	186	-5.39902E-001	-7.87806E-010	0.00000E+000	-5.40000E-001	1.01752E-003	4	..........a	-327.66
	930	186.2	-5.49841E-001	-8.22817E-010	0.00000E+000	-5.50000E-001	9.99222E-004	4	..........a	-327.66
	931	186.4	-5.59864E-001	-8.60002E-010	0.00000E+000	-5.60000E-001	1.02152E-003	4	..........a	-327.66
	932	186.6	-5.69879E-001	-9.01181E-010	0.00000E+000	-5.70000E-001	1.01762E-003	4	..........a	-327.66
	933	186.8	-5.79834E-001	-9.48053E-010	0.00000E+000	-5.80000E-001	9.88622E-004	4	..........a	-327.66
	934	187	-5.89849E-001	-9.98339E-010	0.00000E+000	-5.90000E-001	1.00232E-003	4	..........a	-327.66
	935	187.2	-5.99885E-001	-1.05854E-009	0.00000E+000	-6.00000E-001	1.01812E-003	4	..........a	-327.66
	936	187.4	-5.89856E-001	-7.54167E-010	0.00000E+000	-5.90000E-001	9.99622E-004	4	..........a	-327.66
	937	187.6	-5.79857E-001	-6.00320E-010	0.00000E+000	-5.80000E-001	1.01362E-003	4	..........a	-327.66
	938	187.8	-5.69897E-001	-5.03660E-010	0.00000E+000	-5.70000E-001	1.00672E-003	4	..........a	-327.66
	939	188	-5.59858E-001	-4.29782E-010	0.00000E+000	-5.60000E-001	1.02912E-003	4	..........a	-327.66
	940	188.2	-5.49870E-001	-3.69133E-010	0.00000E+000	-5.50000E-001	1.02082E-003	4	..........a	-327.66
	941	188.4	-5.39868E-001	-3.22431E-010	0.00000E+000	-5.40000E-001	9.94022E-004	4	..........a	-327.66
	942	188.6	-5.29874E-001	-2.80071E-010	0.00000E+000	-5.30000E-001	1.01832E-003	4	..........a	-327.66
	943	188.8	-5.19888E-001	-2.40236E-010	0.00000E+000	-5.20000E-001	1.01392E-003	4	..........a	-327.66
	944	189	-5.09860E-001	-2.06375E-010	0.00000E+000	-5.10000E-001	1.02332E-003	4	..........a	-327.66
	945	189.2	-4.99858E-001	-1.76179E-010	0.00000E+000	-5.00000E-001	1.03652E-003	4	..........a	-327.66
	946	189.4	-4.89930E-001	-1.48911E-010	0.00000E+000	-4.90000E-001	1.00062E-003	4	..........a	-327.66
	947	189.6	-4.79885E-001	-1.24211E-010	0.00000E+000	-4.80000E-001	1.01832E-003	4	..........a	-327.66
	948	189.8	-4.69812E-001	-1.01367E-010	0.00000E+000	-4.70000E-001	1.02202E-003	4	..........a	-327.66
	949	190	-4.59867E-001	-7.95563E-011	0.00000E+000	-4.60000E-001	1.01482E-003	4	..........a	-327.66
	950	190.2	-4.49889E-001	-6.11625E-011	0.00000E+000	-4.50000E-001	1.00982E-003	4	..........a	-327.66
	951	190.4	-4.39903E-001	-4.24748E-011	0.00000E+000	-4.40000E-001	1.01162E-003	4	..........a	-327.66
	952	190.6	-4.29884E-001	-2.60282E-011	0.00000E+000	-4.30000E-001	9.95322E-004	4	..........a	-327.66
	953	190.8	-4.19859E-001	-9.15255E-012	0.00000E+000	-4.20000E-001	1.01282E-003	4	..........a	-327.66
	954	191	-4.09945E-001	4.76498E-012	0.00000E+000	-4.10000E-001	1.00462E-003	4	..........a	-327.66
	955	191.2	-3.99897E-001	1.92485E-011	0.00000E+000	-4.00000E-001	1.02662E-003	4	..........a	-327.66
	956	191.4	-3.89880E-001	3.01350E-011	0.00000E+000	-3.90000E-001	9.98022E-004	4	..........a	-327.66
	957	191.6	-3.79923E-001	4.15694E-011	0.00000E+000	-3.80000E-001	1.01822E-003	4	..........a	-327.66
	958	191.8	-3.69946E-001	5.26438E-011	0.00000E+000	-3.70000E-001	1.02812E-003	4	..........a	-327.66
	959	192	-3.59934E-001	6.21962E-011	0.00000E+000	-3.60000E-001	1.03252E-003	4	..........a	-327.66
	960	192.2	-3.49912E-001	7.20316E-011	0.00000E+000	-3.50000E-001	9.97522E-004	4	..........a	-327.66
	961	192.4	-3.39916E-001	8.11149E-011	0.00000E+000	-3.40000E-001	1.00972E-003	4	..........a	-327.66
	962	192.6	-3.29933E-001	8.84532E-011	0.00000E+000	-3.30000E-001	1.01802E-003	4	..........a	-327.66
	963	192.8	-3.19939E-001	9.55845E-011	0.00000E+000	-3.20000E-001	1.01512E-003	4	..........a	-327.66
	964	193	-3.09876E-001	1.02528E-010	0.00000E+000	-3.10000E-001	1.00632E-003	4	..........a	-327.66
	965	193.2	-2.99892E-001	1.09901E-010	0.00000E+000	-3.00000E-001	1.02662E-003	4	..........a	-327.66
	966	193.4	-2.90017E-001	1.17083E-010	0.00000E+000	-2.90000E-001	9.96722E-004	4	..........a	-327.66
	967	193.6	-2.79997E-001	1.22207E-010	0.00000E+000	-2.80000E-001	9.86522E-004	4	..........a	-327.66
	968	193.8	-2.69901E-001	1.27791E-010	0.00000E+000	-2.70000E-001	9.92922E-004	4	..........a	-327.66
	969	194	-2.59912E-001	1.32254E-010	0.00000E+000	-2.60000E-001	1.01382E-003	4	..........a	-327.66
	970	194.2	-2.49926E-001	1.35964E-010	0.00000E+000	-2.50000E-001	1.02452E-003	4	..........a	-327.66
	971	194.4	-2.39867E-001	1.39704E-010	0.00000E+000	-2.40000E-001	1.00162E-003	4	..........a	-327.66
	972	194.6	-2.29958E-001	1.44190E-010	0.00000E+000	-2.30000E-001	9.93722E-004	4	..........a	-327.66
	973	194.8	-2.19901E-001	1.47102E-010	0.00000E+000	-2.20000E-001	1.00782E-003	4	..........a	-327.66
	974	195	-2.10041E-001	1.50805E-010	0.00000E+000	-2.10000E-001	9.97822E-004	4	..........a	-327.66
	975	195.2	-1.99942E-001	1.48619E-010	0.00000E+000	-2.00000E-001	1.01092E-003	4	..........a	-327.66
	976	195.4	-1.90110E-001	1.51434E-010	0.00000E+000	-1.90000E-001	9.91522E-004	4	..........a	-327.66
	977	195.6	-1.79953E-001	1.53249E-010	0.00000E+000	-1.80000E-001	1.01662E-003	4	..........a	-327.66
	978	195.8	-1.69968E-001	1.55315E-010	0.00000E+000	-1.70000E-001	1.02882E-003	4	..........a	-327.66
	979	196	-1.59946E-001	1.52164E-010	0.00000E+000	-1.60000E-001	1.02132E-003	4	..........a	-327.66
	980	196.2	-1.49930E-001	1.51870E-010	0.00000E+000	-1.50000E-001	1.01232E-003	4	..........a	-327.66
	981	196.4	-1.39842E-001	1.58191E-010	0.00000E+000	-1.40000E-001	1.01292E-003	4	..........a	-327.66
	982	196.6	-1.30074E-001	1.55296E-010	0.00000E+000	-1.30000E-001	9.90522E-004	4	..........a	-327.66
	983	196.8	-1.19933E-001	1.57043E-010	0.00000E+000	-1.20000E-001	1.00642E-003	4	..........a	-327.66
	984	197	-1.09944E-001	1.52025E-010	0.00000E+000	-1.10000E-001	1.02212E-003	4	..........a	-327.66
	985	197.2	-9.99061E-002	1.51976E-010	0.00000E+000	-1.00000E-001	9.99622E-004	4	..........a	-327.66
	986	197.4	-8.99602E-002	1.56381E-010	0.00000E+000	-9.00000E-002	1.00672E-003	4	..........a	-327.66
	987	197.6	-7.99560E-002	1.53947E-010	0.00000E+000	-8.00000E-002	1.02422E-003	4	..........a	-327.66
	988	197.8	-6.99242E-002	1.50194E-010	0.00000E+000	-7.00000E-002	1.01982E-003	4	..........a	-327.66
	989	198	-5.99296E-002	1.50215E-010	0.00000E+000	-6.00000E-002	1.03022E-003	4	..........a	-327.66
	990	198.2	-4.99642E-002	1.49985E-010	0.00000E+000	-5.00000E-002	1.01532E-003	4	..........a	-327.66
	991	198.4	-3.99371E-002	1.54860E-010	0.00000E+000	-4.00000E-002	1.03632E-003	4	..........a	-327.66
	992	198.6	-3.00020E-002	1.52657E-010	0.00000E+000	-3.00000E-002	1.00162E-003	4	..........a	-327.66
	993	198.8	-1.98992E-002	1.49447E-010	0.00000E+000	-2.00000E-002	9.91222E-004	4	..........a	-327.66
	994	199	-9.96031E-003	1.48945E-010	0.00000E+000	-1.00000E-002	1.02032E-003	4	..........a	-327.66
	995	199.2	3.39908E-005	1.51565E-010	0.00000E+000	7.45058E-009	1.00592E-003	4	..........a	-327.66
	996	199.4	1.00810E-002	1.53430E-010	0.00000E+000	1.00000E-002	1.00742E-003	4	..........a	-327.66
	997	199.6	2.00466E-002	1.51656E-010	0.00000E+000	2.00000E-002	1.00732E-003	4	..........a	-327.66
	998	199.8	3.00326E-002	1.49111E-010	0.00000E+000	3.00000E-002	1.00682E-003	4	..........a	-327.66
	999	200	3.97892E-002	1.55395E-010	0.00000E+000	4.00000E-002	1.03452E-003	4	..........a	-327.66
	1000	200.2	5.00438E-002	1.50240E-010	0.00000E+000	5.00000E-002	1.00662E-003	4	..........a	-327.66
	1001	200.4	6.00889E-002	1.51505E-010	0.00000E+000	6.00000E-002	1.00232E-003	4	..........a	-327.66
	1002	200.6	7.00191E-002	1.50858E-010	0.00000E+000	7.00000E-002	1.02042E-003	4	..........a	-327.66
	1003	200.8	8.00834E-002	1.51045E-010	0.00000E+000	8.00000E-002	9.93722E-004	4	..........a	-327.66
	1004	201	9.01031E-002	1.58449E-010	0.00000E+000	9.00000E-002	9.99322E-004	4	..........a	-327.66
	1005	201.2	1.00044E-001	1.55407E-010	0.00000E+000	1.00000E-001	1.01442E-003	4	..........a	-327.66
	1006	201.4	1.10059E-001	1.57771E-010	0.00000E+000	1.10000E-001	1.00582E-003	4	..........a	-327.66
	1007	201.6	1.20064E-001	1.54596E-010	0.00000E+000	1.20000E-001	1.00232E-003	4	..........a	-327.66
	1008	201.8	1.30092E-001	1.55709E-010	0.00000E+000	1.30000E-001	1.01032E-003	4	..........a	-327.66
	1009	202	1.40119E-001	1.62101E-010	0.00000E+000	1.40000E-001	1.04432E-003	4	..........a	-327.66
	1010	202.2	1.50015E-001	1.63560E-010	0.00000E+000	1.50000E-001	1.00922E-003	4	..........a	-327.66
	1011	202.4	1.60028E-001	1.63552E-010	0.00000E+000	1.60000E-001	1.00692E-003	4	..........a	-327.66
	1012	202.6	1.70171E-001	1.67015E-010	0.00000E+000	1.70000E-001	1.01292E-003	4	..........a	-327.66
	1013	202.8	1.80096E-001	1.71286E-010	0.00000E+000	1.80000E-001	1.00392E-003	4	..........a	-327.66
	1014	203	1.90080E-001	1.74412E-010	0.00000E+000	1.90000E-001	1.01122E-003	4	..........a	-327.66
	1015	203.2	2.00044E-001	1.77965E-010	0.00000E+000	2.00000E-001	1.02532E-003	4	..........a	-327.66
	1016	203.4	2.09972E-001	1.85532E-010	0.00000E+000	2.10000E-001	1.02332E-003	4	..........a	-327.66
	1017	203.6	2.19821E-001	1.85539E-010	0.00000E+000	2.20000E-001	1.00982E-003	4	..........a	-327.66
	1018	203.8	2.29928E-001	1.92049E-010	0.00000E+000	2.30000E-001	1.00702E-003	4	..........a	-327.66
	1019	204	2.40003E-001	1.91965E-010	0.00000E+000	2.40000E-001	1.00272E-003	4	..........a	-327.66
	1020	204.2	2.50053E-001	1.95717E-010	0.00000E+000	2.50000E-001	1.02542E-003	4	..........a	-327.66
	1021	204.4	2.60040E-001	1.99328E-010	0.00000E+000	2.60000E-001	1.00852E-003	4	..........a	-327.66
	1022	204.6	2.69989E-001	2.01673E-010	0.00000E+000	2.70000E-001	9.96722E-004	4	..........a	-327.66
	1023	204.8	2.80009E-001	2.05686E-010	0.00000E+000	2.80000E-001	1.02812E-003	4	..........a	-327.66
	1024	205	2.90039E-001	2.08773E-010	0.00000E+000	2.90000E-001	1.01372E-003	4	..........a	-327.66
	1025	205.2	3.00044E-001	2.11662E-010	0.00000E+000	3.00000E-001	9.97022E-004	4	..........a	-327.66
	1026	205.4	3.10003E-001	2.13432E-010	0.00000E+000	3.10000E-001	1.01842E-003	4	..........a	-327.66
	1027	205.6	3.20024E-001	2.15111E-010	0.00000E+000	3.20000E-001	1.01702E-003	4	..........a	-327.66
	1028	205.8	3.30056E-001	2.16883E-010	0.00000E+000	3.30000E-001	9.99622E-004	4	..........a	-327.66
	1029	206	3.40063E-001	2.19062E-010	0.00000E+000	3.40000E-001	1.02192E-003	4	..........a	-327.66
	1030	206.2	3.50020E-001	2.20200E-010	0.00000E+000	3.50000E-001	1.01852E-003	4	..........a	-327.66
	1031	206.4	3.60006E-001	2.21753E-010	0.00000E+000	3.60000E-001	1.03162E-003	4	..........a	-327.66
	1032	206.6	3.70030E-001	2.23400E-010	0.00000E+000	3.70000E-001	1.01342E-003	4	..........a	-327.66
	1033	206.8	3.80006E-001	2.24278E-010	0.00000E+000	3.80000E-001	1.02042E-003	4	..........a	-327.66
	1034	207	3.89986E-001	2.26308E-010	0.00000E+000	3.90000E-001	1.02392E-003	4	..........a	-327.66
	1035	207.2	3.99993E-001	2.27311E-010	0.00000E+000	4.00000E-001	1.03192E-003	4	..........a	-327.66
	1036	207.4	4.09995E-001	2.27890E-010	0.00000E+000	4.10000E-001	1.02032E-003	4	..........a	-327.66
	1037	207.6	4.20023E-001	2.29715E-010	0.00000E+000	4.20000E-001	1.01742E-003	4	..........a	-327.66
	1038	207.8	4.29945E-001	2.30996E-010	0.00000E+000	4.30000E-001	1.03572E-003	4	..........a	-327.66
	1039	208	4.39912E-001	2.32419E-010	0.00000E+000	4.40000E-001	1.03922E-003	4	..........a	-327.66
	1040	208.2	4.49768E-001	2.34516E-010	0.00000E+000	4.50000E-001	1.00402E-003	4	..........a	-327.66
	1041	208.4	4.59963E-001	2.35885E-010	0.00000E+000	4.60000E-001	1.03472E-003	4	..........a	-327.66
	1042	208.6	4.69961E-001	2.37945E-010	0.00000E+000	4.70000E-001	1.01392E-003	4	..........a	-327.66
	1043	208.8	4.79892E-001	2.39444E-010	0.00000E+000	4.80000E-001	9.91222E-004	4	..........a	-327.66
	1044	209	4.89985E-001	2.41845E-010	0.00000E+000	4.90000E-001	1.02622E-003	4	..........a	-327.66
	1045	209.2	5.00008E-001	2.44217E-010	0.00000E+000	5.00000E-001	1.02322E-003	4	..........a	-327.66
	1046	209.4	5.09922E-001	2.46589E-010	0.00000E+000	5.10000E-001	1.00912E-003	4	..........a	-327.66
	1047	209.6	5.19881E-001	2.49777E-010	0.00000E+000	5.20000E-001	9.99722E-004	4	..........a	-327.66
	1048	209.8	5.29981E-001	2.53263E-010	0.00000E+000	5.30000E-001	1.02722E-003	4	..........a	-327.66
	1049	210	5.39956E-001	2.55710E-010	0.00000E+000	5.40000E-001	1.02172E-003	4	..........a	-327.66
	1050	210.2	5.49956E-001	2.60208E-010	0.00000E+000	5.50000E-001	1.02132E-003	4	..........a	-327.66
	1051	210.4	5.59926E-001	2.64322E-010	0.00000E+000	5.60000E-001	1.01652E-003	4	..........a	-327.66
	1052	210.6	5.69946E-001	2.68905E-010	0.00000E+000	5.70000E-001	1.01622E-003	4	..........a	-327.66
	1053	210.8	5.79962E-001	2.74477E-010	0.00000E+000	5.80000E-001	1.03172E-003	4	..........a	-327.66
	1054	211	5.89924E-001	2.79152E-010	0.00000E+000	5.90000E-001	9.87222E-004	4	..........a	-327.66
	1055	211.2	5.99964E-001	2.85976E-010	0.00000E+000	6.00000E-001	1.02472E-003	4	..........a	-327.66
	1056	211.4	6.09974E-001	2.92872E-010	0.00000E+000	6.10000E-001	1.01362E-003	4	..........a	-327.66
	1057	211.6	6.19995E-001	3.00829E-010	0.00000E+000	6.20000E-001	1.00612E-003	4	..........a	-327.66
	1058	211.8	6.29894E-001	3.08821E-010	0.00000E+000	6.30000E-001	9.99422E-004	4	..........a	-327.66
	1059	212	6.39880E-001	3.18392E-010	0.00000E+000	6.40000E-001	1.00912E-003	4	..........a	-327.66
	1060	212.2	6.49928E-001	3.28174E-010	0.00000E+000	6.50000E-001	1.01512E-003	4	..........a	-327.66
	1061	212.4	6.60022E-001	3.39826E-010	0.00000E+000	6.60000E-001	1.02452E-003	4	..........a	-327.66
	1062	212.6	6.69913E-001	3.51350E-010	0.00000E+000	6.70000E-001	9.95822E-004	4	..........a	-327.66
	1063	212.8	6.79959E-001	3.65235E-010	0.00000E+000	6.80000E-001	1.00212E-003	4	..........a	-327.66
	1064	213	6.89908E-001	3.79856E-010	0.00000E+000	6.90000E-001	1.01872E-003	4	..........a	-327.66
	1065	213.2	6.99990E-001	3.95516E-010	0.00000E+000	7.00000E-001	1.02392E-003	4	..........a	-327.66
	1066	213.4	7.09911E-001	4.12567E-010	0.00000E+000	7.10000E-001	9.98922E-004	4	..........a	-327.66
	1067	213.6	7.19904E-001	4.31051E-010	0.00000E+000	7.20000E-001	1.03662E-003	4	..........a	-327.66
	1068	213.8	7.30008E-001	4.51009E-010	0.00000E+000	7.30000E-001	9.93422E-004	4	..........a	-327.66
	1069	214	7.40014E-001	4.72570E-010	0.00000E+000	7.40000E-001	1.01102E-003	4	..........a	-327.66
	1070	214.2	7.49937E-001	4.97048E-010	0.00000E+000	7.50000E-001	1.02252E-003	4	..........a	-327.66
	1071	214.4	7.59957E-001	5.21444E-010	0.00000E+000	7.60000E-001	1.03372E-003	4	..........a	-327.66
	1072	214.6	7.69928E-001	5.49153E-010	0.00000E+000	7.70000E-001	9.79722E-004	4	..........a	-327.66
	1073	214.8	7.79980E-001	5.79381E-010	0.00000E+000	7.80000E-001	1.01232E-003	4	..........a	-327.66
	1074	215	7.89950E-001	6.11089E-010	0.00000E+000	7.90000E-001	1.03682E-003	4	..........a	-327.66
	1075	215.2	7.99946E-001	6.47509E-010	0.00000E+000	8.00000E-001	1.00842E-003	4	..........a	-327.66
CURVE5	TABLE
	Pt	T	Vf	Im	Vu	Sig	Ach	IERange	Over	Temp
	#	s	V vs. Ref.	A	V	V	V	#	bits	deg C
	1076	215.4	7.89880E-001	4.30427E-010	0.00000E+000	7.90000E-001	1.02862E-003	4	..........a	-327.66
	1077	215.6	7.79983E-001	3.02883E-010	0.00000E+000	7.80000E-001	1.00802E-003	4	..........a	-327.66
	1078	215.8	7.69978E-001	2.17809E-010	0.00000E+000	7.70000E-001	1.02162E-003	4	..........a	-327.66
	1079	216	7.59944E-001	1.57024E-010	0.00000E+000	7.60000E-001	1.01162E-003	4	..........a	-327.66
	1080	216.2	7.49935E-001	1.14647E-010	0.00000E+000	7.50000E-001	1.00042E-003	4	..........a	-327.66
	1081	216.4	7.40008E-001	8.03219E-011	0.00000E+000	7.40000E-001	1.00992E-003	4	..........a	-327.66
	1082	216.6	7.29916E-001	5.46529E-011	0.00000E+000	7.30000E-001	1.00852E-003	4	..........a	-327.66
	1083	216.8	7.19904E-001	3.30461E-011	0.00000E+000	7.20000E-001	1.03442E-003	4	..........a	-327.66
	1084	217	7.09888E-001	1.68354E-011	0.00000E+000	7.10000E-001	1.02412E-003	4	..........a	-327.66
	1085	217.2	6.99981E-001	2.84591E-012	0.00000E+000	7.00000E-001	1.02022E-003	4	..........a	-327.66
	1086	217.4	6.89907E-001	-8.22152E-012	0.00000E+000	6.90000E-001	1.01602E-003	4	..........a	-327.66
	1087	217.6	6.79803E-001	-1.95130E-011	0.00000E+000	6.80000E-001	9.96022E-004	4	..........a	-327.66
	1088	217.8	6.69930E-001	-2.93213E-011	0.00000E+000	6.70000E-001	1.02152E-003	4	..........a	-327.66
	1089	218	6.60013E-001	-3.68626E-011	0.00000E+000	6.60000E-001	1.00832E-003	4	..........a	-327.66
	1090	218.2	6.49928E-001	-4.24218E-011	0.00000E+000	6.50000E-001	1.01982E-003	4	..........a	-327.66
	1091	218.4	6.39940E-001	-4.97811E-011	0.00000E+000	6.40000E-001	1.01032E-003	4	..........a	-327.66
	1092	218.6	6.29942E-001	-5.48633E-011	0.00000E+000	6.30000E-001	9.97922E-004	4	..........a	-327.66
	1093	218.8	6.20017E-001	-5.91725E-011	0.00000E+000	6.20000E-001	1.03042E-003	4	..........a	-327.66
	1094	219	6.09966E-001	-6.59637E-011	0.00000E+000	6.10000E-001	1.02052E-003	4	..........a	-327.66
	1095	219.2	5.99949E-001	-6.95599E-011	0.00000E+000	6.00000E-001	1.01422E-003	4	..........a	-327.66
	1096	219.4	5.89952E-001	-7.32970E-011	0.00000E+000	5.90000E-001	1.01742E-003	4	..........a	-327.66
	1097	219.6	5.80030E-001	-7.67252E-011	0.00000E+000	5.80000E-001	1.03042E-003	4	..........a	-327.66
	1098	219.8	5.69959E-001	-8.10703E-011	0.00000E+000	5.70000E-001	9.98222E-004	4	..........a	-327.66
	1099	220	5.59968E-001	-8.35464E-011	0.00000E+000	5.60000E-001	1.01062E-003	4	..........a	-327.66
	1100	220.2	5.49983E-001	-8.66915E-011	0.00000E+000	5.50000E-001	1.01062E-003	4	..........a	-327.66
	1101	220.4	5.40010E-001	-9.01987E-011	0.00000E+000	5.40000E-001	1.02622E-003	4	..........a	-327.66
	1102	220.6	5.30024E-001	-9.24748E-011	0.00000E+000	5.30000E-001	1.01312E-003	4	..........a	-327.66
	1103	220.8	5.19959E-001	-9.45658E-011	0.00000E+000	5.20000E-001	1.01612E-003	4	..........a	-327.66
	1104	221	5.09933E-001	-9.78400E-011	0.00000E+000	5.10000E-001	1.02402E-003	4	..........a	-327.66
	1105	221.2	5.00069E-001	-9.91200E-011	0.00000E+000	5.00000E-001	1.00392E-003	4	..........a	-327.66
	1106	221.4	4.89988E-001	-1.02614E-010	0.00000E+000	4.90000E-001	1.00032E-003	4	..........a	-327.66
	1107	221.6	4.79977E-001	-1.05012E-010	0.00000E+000	4.80000E-001	1.01572E-003	4	..........a	-327.66
	1108	221.8	4.69964E-001	-1.07138E-010	0.00000E+000	4.70000E-001	1.01512E-003	4	..........a	-327.66
	1109	222	4.60022E-001	-1.08914E-010	0.00000E+000	4.60000E-001	1.03042E-003	4	..........a	-327.66
	1110	222.2	4.49960E-001	-1.12327E-010	0.00000E+000	4.50000E-001	9.88522E-004	4	..........a	-327.66
	1111	222.4	4.39986E-001	-1.14420E-010	0.00000E+000	4.40000E-001	1.01352E-003	4	..........a	-327.66
	1112	222.6	4.29960E-001	-1.16132E-010	0.00000E+000	4.30000E-001	1.00682E-003	4	..........a	-327.66
	1113	222.8	4.20028E-001	-1.18333E-010	0.00000E+000	4.20000E-001	1.01482E-003	4	..........a	-327.66
	1114	223	4.09968E-001	-1.20273E-010	0.00000E+000	4.10000E-001	1.01252E-003	4	..........a	-327.66
	1115	223.2	4.00030E-001	-1.22398E-010	0.00000E+000	4.00000E-001	1.03082E-003	4	..........a	-327.66
	1116	223.4	3.89980E-001	-1.23913E-010	0.00000E+000	3.90000E-001	1.02982E-003	4	..........a	-327.66
	1117	223.6	3.80008E-001	-1.26909E-010	0.00000E+000	3.80000E-001	1.03132E-003	4	..........a	-327.66
	1118	223.8	3.70005E-001	-1.28770E-010	0.00000E+000	3.70000E-001	1.00822E-003	4	..........a	-327.66
	1119	224	3.59921E-001	-1.31240E-010	0.00000E+000	3.60000E-001	1.01632E-003	4	..........a	-327.66
	1120	224.2	3.49963E-001	-1.32532E-010	0.00000E+000	3.50000E-001	1.00602E-003	4	..........a	-327.66