File: example_project/raw_outputs/20240321_X_GM0016_HL03_E06_CV50k.DTA
EXPLAIN
TAG	CV
TITLE	LABEL	Cyclic Voltammetry	Test &Identifier
DATE	LABEL	3/21/2024	Date
TIME	LABEL	17:50:26	Time
NOTES	NOTES	1	&Notes...

PSTAT	PSTAT	REF600P-43058	Potentiostat
VINIT	POTEN	0.00000E+000	T	Initial &E (V)
VLIMIT1	POTEN	-6.00000E-001	F	Scan Limit &1 (V)
VLIMIT2	POTEN	8.00000E-001	F	Scan Limit &2 (V)
VFINAL	POTEN	0.00000E+000	T	Final &E (V)
SCANRATE	QUANT	4.99999E+004	&Scan Rate (mV/s)
STEPSIZE	QUANT	1.00000E+001	St&ep Size (mV)
CYCLES	IQUANT	10	C&ycles (#)
IMODE	SELECTOR	1	I/E Range &Mode
IRANGE	QUANT	1.00000E-005	&Max Current (mA)
AREA	QUANT	1.00000E+000	Electrode &Area (cm^2)
ELECTRODETYPE	SELECTOR	0	Electrode Type
STRIPPING	TOGGLE	F	Used for Stripping
POLARITY	TOGGLE	F	Signal Polarity
CONDIT	TWOPARAM	F	1.50000E+001	0.00000E+000	Conditionin&g	Time(s)	E(V)
DELAY	TWOPARAM	T	1.00000E+001	0.00000E+000	Init. De&lay	Time(s)	Stab.(mV/s)
EQDELAY	QUANT	1.00000E+001	Equil. &Time (s)
IRCOMP	SELECTOR	0	IRCom&p
PFCOR	QUANT	5.00000E+001	PF Corr. (ohm)
SAMPLINGMODE	SELECTOR	1	Sampling &Mode
OCVCURVE	TABLE	39
	Pt	T	Vf	Vm	Ach	Over	Temp
	#	s	V vs. Ref.	V	V	bits	deg C
	0	0.258333	4.84231E-001	4.84232E-001	2.42422E-004	..........a	-327.66
	1	0.516667	4.84237E-001	4.84509E-001	2.39422E-004	..........a	-327.66
	2	0.775	4.84270E-001	4.84812E-001	2.42489E-004	..........a	-327.66
	3	1.03333	4.84366E-001	4.85062E-001	2.35022E-004	..........a	-327.66
	4	1.29167	4.84542E-001	4.85421E-001	2.37489E-004	..........a	-327.66
	5	1.55	4.84783E-001	4.85656E-001	2.45422E-004	..........a	-327.66
	6	1.80833	4.85060E-001	4.85855E-001	2.42556E-004	..........a	-327.66
	7	2.06667	4.85342E-001	4.86119E-001	2.33756E-004	..........a	-327.66
	8	2.325	4.85608E-001	4.86409E-001	2.48222E-004	..........a	-327.66
	9	2.58333	4.85863E-001	4.86649E-001	2.26156E-004	..........a	-327.66
	10	2.84167	4.86119E-001	4.87039E-001	2.38022E-004	..........a	-327.66
	11	3.1	4.86388E-001	4.87260E-001	2.38022E-004	..........a	-327.66
	12	3.35833	4.86670E-001	4.87454E-001	2.35489E-004	..........a	-327.66
	13	3.61667	4.86950E-001	4.87722E-001	2.27222E-004	..........a	-327.66
	14	3.875	4.87214E-001	4.87992E-001	2.48822E-004	..........a	-327.66
	15	4.13333	4.87464E-001	4.88242E-001	2.40156E-004	..........a	-327.66
	16	4.39167	4.87715E-001	4.88592E-001	2.34289E-004	..........a	-327.66
	17	4.65	4.87978E-001	4.88847E-001	2.48422E-004	..........a	-327.66
	18	4.90833	4.88252E-001	4.89035E-001	2.34156E-004	..........a	-327.66
	19	5.16667	4.88527E-001	4.89293E-001	2.35756E-004	..........a	-327.66
	20	5.425	4.88790E-001	4.89577E-001	2.49822E-004	..........a	-327.66
	21	5.68333	4.89042E-001	4.89828E-001	2.36422E-004	..........a	-327.66
	22	5.94167	4.89294E-001	4.90147E-001	2.30489E-004	..........a	-327.66
	23	6.2	4.89556E-001	4.90436E-001	2.42489E-004	..........a	-327.66
	24	6.45833	4.89830E-001	4.90614E-001	2.39022E-004	..........a	-327.66
	25	6.71667	4.90104E-001	4.90864E-001	2.47822E-004	..........a	-327.66
	26	6.975	4.90366E-001	4.91126E-001	2.32889E-004	..........a	-327.66
	27	7.23333	4.90616E-001	4.91407E-001	2.40156E-004	..........a	-327.66
	28	7.49167	4.90863E-001	4.91645E-001	2.30556E-004	..........a	-327.66
	29	7.75	4.91117E-001	4.91981E-001	2.38222E-004	..........a	-327.66
	30	8.00833	4.91380E-001	4.92199E-001	2.38022E-004	..........a	-327.66
	31	8.26667	4.91649E-001	4.92407E-001	2.44356E-004	..........a	-327.66
	32	8.525	4.91914E-001	4.92680E-001	2.34022E-004	..........a	-327.66
	33	8.78333	4.92168E-001	4.92959E-001	2.38156E-004	..........a	-327.66
	34	9.04167	4.92417E-001	4.93186E-001	2.44822E-004	..........a	-327.66
	35	9.3	4.92669E-001	4.93531E-001	2.43356E-004	..........a	-327.66
	36	9.5583	4.92930E-001	4.93742E-001	2.41489E-004	..........a	-327.66
	37	9.8167	4.93197E-001	4.93943E-001	2.37489E-004	..........a	-327.66
	38	10.075	4.93459E-001	4.94226E-001	2.34022E-004	..........a	-327.66
EOC	QUANT	0.4934592	Open Circuit (V)
PSTATMODEL	IQUANT	7	Pstat Model
PSTATSECTION	LABEL	REF600P-43058	Pstat Section
PSTATSERIALNO	LABEL	43058	Pstat Serial Number
CTRLMODE	IQUANT	1	Control Mode
ELECTROMETER	IQUANT	0	RE=0 or CS=1
IESTAB	IQUANT	2	I/E Stability
CASPEED	IQUANT	4	Control Amp Speed
CONVENTION	IQUANT	1	Current Convention
ICHRANGE	IQUANT	2	Ich Range
ICHRANGEMODE	TOGGLE	F	Ich Auto Range
ICHOFFSETENABLE	TOGGLE	F	Ich Offset Enable
ICHOFFSET	QUANT	0	Ich Offset (V)
ICHFILTER	IQUANT	1	Ich Filter
VCHRANGE	IQUANT	2	Vch Range
VCHRANGEMODE	TOGGLE	F	Vch Auto Range
VCHOFFSETENABLE	TOGGLE	F	Vch Offset Enable
VCHOFFSET	QUANT	0	Vch Offset (V)
VCHFILTER	IQUANT	1	Vch Filter
ACHRANGE	IQUANT	2	Ach Range
ACHOFFSETENABLE	TOGGLE	F	Ach Offset Enable
ACHOFFSET	QUANT	0	Ach Offset (V)
ACHFILTER	IQUANT	1	Ach Filter
IERANGELOWERLIMIT	IQUANT	1	I/E Range Lower Limit
IERANGEMODE	TOGGLE	F	I/E AutoRange
IERANGE	IQUANT	4	I/E Range
POSFEEDENABLE	TOGGLE	F	Positive Feedback IR Comp
POSFEEDRESISTANCE	QUANT	0	Positive Feedback Resistance (ohm)
ACHSELECT	IQUANT	4	Ach Select
SENSECABLEID	IQUANT	7	Sense Cable ID
PWRCABLEID	IQUANT	7	Power Cable ID
DCCALDATE	LABEL	12/18/2023	DC Calibration Date
ACCALDATE	LABEL	12/18/2023	AC Calibration Date
THERMOSELECT	IQUANT	1	Thermo Select
FRAMEWORKVERSION	LABEL	7.8.4	Framework Version
INSTRUMENTVERSION	LABEL	4.42	Instrument Version
CURVE1	TABLE
	Pt	T	Vf	Im	Vu	Sig	Ach	IERange	Over	Temp
	#	s	V vs. Ref.	A	V	V	V	#	bits	deg C
	0	0.0002	4.93370E-001	1.87884E-011	0.00000E+000	4.93450E-001	8.00223E-005	4	..........a	-327.66
	1	0.0004	4.83370E-001	-2.32133E-011	0.00000E+000	4.83450E-001	8.00223E-005	4	..........a	-327.66
	2	0.0006	4.73270E-001	-6.72149E-011	0.00000E+000	4.73450E-001	8.00223E-005	4	..........a	-327.66
	3	0.0008	4.63470E-001	-1.15217E-010	0.00000E+000	4.63450E-001	8.00223E-005	4	..........a	-327.66
	4	0.001	4.53470E-001	-1.65219E-010	0.00000E+000	4.53450E-001	8.00223E-005	4	..........a	-327.66
	5	0.0012	4.43320E-001	-2.15221E-010	0.00000E+000	4.43450E-001	8.00223E-005	4	..........a	-327.66
	6	0.0014	4.33370E-001	-2.66223E-010	0.00000E+000	4.33450E-001	8.00223E-005	4	..........a	-327.66
	7	0.0016	4.23470E-001	-3.23225E-010	0.00000E+000	4.23450E-001	8.00223E-005	4	..........a	-327.66
	8	0.0018	4.13270E-001	-3.80227E-010	0.00000E+000	4.13450E-001	8.00223E-005	4	..........a	-327.66
	9	0.002	4.03470E-001	-4.45229E-010	0.00000E+000	4.03450E-001	8.00223E-005	4	..........a	-327.66
	10	0.0022	3.93570E-001	-5.02232E-010	0.00000E+000	3.93450E-001	8.00223E-005	4	..........a	-327.66
	11	0.0024	3.83470E-001	-5.71234E-010	0.00000E+000	3.83450E-001	8.00223E-005	4	..........a	-327.66
	12	0.0026	3.73270E-001	-6.34237E-010	0.00000E+000	3.73450E-001	8.00223E-005	4	..........a	-327.66
	13	0.0028	3.63470E-001	-7.02239E-010	0.00000E+000	3.63450E-001	8.00223E-005	4	..........a	-327.66
	14	0.003	3.53370E-001	-7.76242E-010	0.00000E+000	3.53450E-001	8.00223E-005	4	..........a	-327.66
	15	0.0032	3.43470E-001	-8.54245E-010	0.00000E+000	3.43450E-001	8.00223E-005	4	..........a	-327.66
	16	0.0034	3.33270E-001	-9.32248E-010	0.00000E+000	3.33450E-001	8.00223E-005	4	..........a	-327.66
	17	0.0036	3.23670E-001	-1.01225E-009	0.00000E+000	3.23450E-001	8.00223E-005	4	..........a	-327.66
	18	0.0038	3.13470E-001	-1.09425E-009	0.00000E+000	3.13450E-001	8.00223E-005	4	..........a	-327.66
	19	0.004	3.03570E-001	-1.18926E-009	0.00000E+000	3.03450E-001	8.00223E-005	4	..........a	-327.66
	20	0.0042	2.93470E-001	-1.27926E-009	0.00000E+000	2.93450E-001	8.00223E-005	4	..........a	-327.66
	21	0.0044	2.83470E-001	-1.38027E-009	0.00000E+000	2.83450E-001	8.00223E-005	4	..........a	-327.66
	22	0.0046	2.73270E-001	-1.48327E-009	0.00000E+000	2.73450E-001	8.00223E-005	4	..........a	-327.66
	23	0.0048	2.63470E-001	-1.59427E-009	0.00000E+000	2.63450E-001	8.00223E-005	4	..........a	-327.66
	24	0.005	2.53670E-001	-1.70228E-009	0.00000E+000	2.53450E-001	8.00223E-005	4	..........a	-327.66
	25	0.0052	2.43470E-001	-1.82628E-009	0.00000E+000	2.43450E-001	8.00223E-005	4	..........a	-327.66
	26	0.0054	2.33570E-001	-1.94829E-009	0.00000E+000	2.33450E-001	8.00223E-005	4	..........a	-327.66
	27	0.0056	2.23470E-001	-2.07629E-009	0.00000E+000	2.23450E-001	8.00223E-005	4	..........a	-327.66
	28	0.0058	2.13570E-001	-2.21230E-009	0.00000E+000	2.13450E-001	8.00223E-005	4	..........a	-327.66
	29	0.006	2.03470E-001	-2.35830E-009	0.00000E+000	2.03450E-001	8.00223E-005	4	..........a	-327.66
	30	0.0062	1.93470E-001	-2.50631E-009	0.00000E+000	1.93450E-001	8.00223E-005	4	..........a	-327.66
	31	0.0064	1.83470E-001	-2.66031E-009	0.00000E+000	1.83450E-001	8.00223E-005	4	..........a	-327.66
	32	0.0066	1.73570E-001	-2.82632E-009	0.00000E+000	1.73450E-001	8.00223E-005	4	..........a	-327.66
	33	0.0068	1.63470E-001	-2.99633E-009	0.00000E+000	1.63450E-001	8.00223E-005	4	..........a	-327.66
	34	0.007	1.53370E-001	-3.17133E-009	0.00000E+000	1.53450E-001	8.00223E-005	4	..........a	-327.66
	35	0.0072	1.43470E-001	-3.36234E-009	0.00000E+000	1.43450E-001	8.00223E-005	4	..........a	-327.66
	36	0.0074	1.33670E-001	-3.54835E-009	0.00000E+000	1.33450E-001	8.00223E-005	4	..........a	-327.66
	37	0.0076	1.23670E-001	-3.74636E-009	0.00000E+000	1.23450E-001	8.00223E-005	4	..........a	-327.66
	38	0.0078	1.13570E-001	-3.95336E-009	0.00000E+000	1.13450E-001	8.00223E-005	4	..........a	-327.66
	39	0.008	1.03570E-001	-4.16537E-009	0.00000E+000	1.03450E-001	8.00223E-005	4	..........a	-327.66
	40	0.0082	9.34695E-002	-4.39038E-009	0.00000E+000	9.34500E-002	8.00223E-005	4	..........a	-327.66
	41	0.0084	8.34695E-002	-4.60639E-009	0.00000E+000	8.34500E-002	8.00223E-005	4	..........a	-327.66
	42	0.0086	7.36195E-002	-4.83640E-009	0.00000E+000	7.34500E-002	8.00223E-005	4	..........a	-327.66
	43	0.0088	6.36195E-002	-5.07041E-009	0.00000E+000	6.34500E-002	8.00223E-005	4	..........a	-327.66
	44	0.009	5.34695E-002	-5.30642E-009	0.00000E+000	5.34500E-002	-3.19978E-004	4	..........a	-327.66
	45	0.0092	4.36695E-002	-5.55543E-009	0.00000E+000	4.34500E-002	-3.19978E-004	4	..........a	-327.66
	46	0.0094	3.35695E-002	-5.80344E-009	0.00000E+000	3.34500E-002	8.00223E-005	4	..........a	-327.66
	47	0.0096	2.35695E-002	-6.05344E-009	0.00000E+000	2.34500E-002	8.00223E-005	4	..........a	-327.66
	48	0.0098	1.36695E-002	-6.30445E-009	0.00000E+000	1.34500E-002	8.00223E-005	4	..........a	-327.66
	49	0.01	3.46952E-003	-6.57246E-009	0.00000E+000	3.45001E-003	8.00223E-005	4	..........a	-327.66
	50	0.0102	-6.53048E-003	-6.82547E-009	0.00000E+000	-6.55000E-003	8.00223E-005	4	..........a	-327.66
	51	0.0104	-1.65805E-002	-7.08448E-009	0.00000E+000	-1.65500E-002	8.00223E-005	4	..........a	-327.66
	52	0.0106	-2.65305E-002	-7.34849E-009	0.00000E+000	-2.65500E-002	8.00223E-005	4	..........a	-327.66
	53	0.0108	-3.63305E-002	-7.60750E-009	0.00000E+000	-3.65500E-002	8.00223E-005	4	..........a	-327.66
	54	0.011	-4.64305E-002	-7.87051E-009	0.00000E+000	-4.65500E-002	8.00223E-005	4	..........a	-327.66
	55	0.0112	-5.64305E-002	-8.13753E-009	0.00000E+000	-5.65500E-002	8.00223E-005	4	..........a	-327.66
	56	0.0114	-6.66305E-002	-8.40354E-009	0.00000E+000	-6.65500E-002	8.00223E-005	4	..........a	-327.66
	57	0.0116	-7.63305E-002	-8.66655E-009	0.00000E+000	-7.65500E-002	8.00223E-005	4	..........a	-327.66
	58	0.0118	-8.64305E-002	-8.92756E-009	0.00000E+000	-8.65500E-002	8.00223E-005	4	..........a	-327.66
	59	0.012	-9.63305E-002	-9.18757E-009	0.00000E+000	-9.65500E-002	8.00223E-005	4	..........a	-327.66
	60	0.0122	-1.06430E-001	-9.45458E-009	0.00000E+000	-1.06550E-001	8.00223E-005	4	..........a	-327.66
	61	0.0124	-1.16630E-001	-9.70959E-009	0.00000E+000	-1.16550E-001	8.00223E-005	4	..........a	-327.66
	62	0.0126	-1.26530E-001	-9.97160E-009	0.00000E+000	-1.26550E-001	8.00223E-005	4	..........a	-327.66
	63	0.0128	-1.36430E-001	-1.02336E-008	0.00000E+000	-1.36550E-001	8.00223E-005	4	..........a	-327.66
	64	0.013	-1.46330E-001	-1.04896E-008	0.00000E+000	-1.46550E-001	8.00223E-005	4	..........a	-327.66
	65	0.0132	-1.56430E-001	-1.07466E-008	0.00000E+000	-1.56550E-001	8.00223E-005	4	..........a	-327.66
	66	0.0134	-1.66630E-001	-1.10006E-008	0.00000E+000	-1.66550E-001	8.00223E-005	4	..........a	-327.66
	67	0.0136	-1.76330E-001	-1.12476E-008	0.00000E+000	-1.76550E-001	8.00223E-005	4	..........a	-327.66
	68	0.0138	-1.86330E-001	-1.15027E-008	0.00000E+000	-1.86550E-001	8.00223E-005	4	..........a	-327.66
	69	0.014	-1.96430E-001	-1.17497E-008	0.00000E+000	-1.96550E-001	8.00223E-005	4	..........a	-327.66
	70	0.0142	-2.06630E-001	-1.19937E-008	0.00000E+000	-2.06550E-001	8.00223E-005	4	..........a	-327.66
	71	0.0144	-2.16330E-001	-1.22347E-008	0.00000E+000	-2.16550E-001	8.00223E-005	4	..........a	-327.66
	72	0.0146	-2.26330E-001	-1.24787E-008	0.00000E+000	-2.26550E-001	8.00223E-005	4	..........a	-327.66
	73	0.0148	-2.36330E-001	-1.27187E-008	0.00000E+000	-2.36550E-001	8.00223E-005	4	..........a	-327.66
	74	0.015	-2.46330E-001	-1.29577E-008	0.00000E+000	-2.46550E-001	8.00223E-005	4	..........a	-327.66
	75	0.0152	-2.56230E-001	-1.31847E-008	0.00000E+000	-2.56550E-001	8.00223E-005	4	..........a	-327.66
	76	0.0154	-2.66130E-001	-1.34147E-008	0.00000E+000	-2.66550E-001	8.00223E-005	4	..........a	-327.66
	77	0.0156	-2.76430E-001	-1.36397E-008	0.00000E+000	-2.76550E-001	8.00223E-005	4	..........a	-327.66
	78	0.0158	-2.86430E-001	-1.38607E-008	0.00000E+000	-2.86550E-001	8.00223E-005	4	..........a	-327.66
	79	0.016	-2.96430E-001	-1.40828E-008	0.00000E+000	-2.96550E-001	8.00223E-005	4	..........a	-327.66
	80	0.0162	-3.06230E-001	-1.42998E-008	0.00000E+000	-3.06550E-001	8.00223E-005	4	..........a	-327.66
	81	0.0164	-3.16330E-001	-1.45128E-008	0.00000E+000	-3.16550E-001	8.00223E-005	4	..........a	-327.66
	82	0.0166	-3.26530E-001	-1.47238E-008	0.00000E+000	-3.26550E-001	8.00223E-005	4	..........a	-327.66
	83	0.0168	-3.36530E-001	-1.49378E-008	0.00000E+000	-3.36550E-001	8.00223E-005	4	..........a	-327.66
	84	0.017	-3.46430E-001	-1.51428E-008	0.00000E+000	-3.46550E-001	8.00223E-005	4	..........a	-327.66
	85	0.0172	-3.56530E-001	-1.53448E-008	0.00000E+000	-3.56550E-001	-2.19978E-004	4	..........a	-327.66
	86	0.0174	-3.66430E-001	-1.55458E-008	0.00000E+000	-3.66550E-001	8.00223E-005	4	..........a	-327.66
	87	0.0176	-3.76430E-001	-1.57438E-008	0.00000E+000	-3.76550E-001	8.00223E-005	4	..........a	-327.66
	88	0.0178	-3.86330E-001	-1.59388E-008	0.00000E+000	-3.86550E-001	8.00223E-005	4	..........a	-327.66
	89	0.018	-3.96530E-001	-1.61378E-008	0.00000E+000	-3.96550E-001	8.00223E-005	4	..........a	-327.66
	90	0.0182	-4.06330E-001	-1.63278E-008	0.00000E+000	-4.06550E-001	8.00223E-005	4	..........a	-327.66
	91	0.0184	-4.16530E-001	-1.65178E-008	0.00000E+000	-4.16550E-001	-2.19978E-004	4	..........a	-327.66
	92	0.0186	-4.26430E-001	-1.67089E-008	0.00000E+000	-4.26550E-001	8.00223E-005	4	..........a	-327.66
	93	0.0188	-4.36330E-001	-1.68969E-008	0.00000E+000	-4.36550E-001	8.00223E-005	4	..........a	-327.66
	94	0.019	-4.46330E-001	-1.70849E-008	0.00000E+000	-4.46550E-001	8.00223E-005	4	..........a	-327.66
	95	0.0192	-4.56330E-001	-1.72699E-008	0.00000E+000	-4.56550E-001	8.00223E-005	4	..........a	-327.66
	96	0.0194	-4.66230E-001	-1.74569E-008	0.00000E+000	-4.66550E-001	8.00223E-005	4	..........a	-327.66
	97	0.0196	-4.76430E-001	-1.76459E-008	0.00000E+000	-4.76550E-001	8.00223E-005	4	..........a	-327.66
	98	0.0198	-4.86230E-001	-1.78329E-008	0.00000E+000	-4.86550E-001	8.00223E-005	4	..........a	-327.66
	99	0.02	-4.96330E-001	-1.80159E-008	0.00000E+000	-4.96550E-001	8.00223E-005	4	..........a	-327.66
	100	0.0202	-5.06230E-001	-1.82049E-008	0.00000E+000	-5.06550E-001	8.00223E-005	4	..........a	-327.66
	101	0.0204	-5.16330E-001	-1.83899E-008	0.00000E+000	-5.16550E-001	8.00223E-005	4	..........a	-327.66
	102	0.0206	-5.26430E-001	-1.85869E-008	0.00000E+000	-5.26550E-001	8.00223E-005	4	..........a	-327.66
	103	0.0208	-5.36330E-001	-1.87729E-008	0.00000E+000	-5.36550E-001	8.00223E-005	4	..........a	-327.66
	104	0.021	-5.46230E-001	-1.89729E-008	0.00000E+000	-5.46550E-001	8.00223E-005	4	..........a	-327.66
	105	0.0212	-5.56430E-001	-1.91609E-008	0.00000E+000	-5.56550E-001	8.00223E-005	4	..........a	-327.66
	106	0.0214	-5.66330E-001	-1.93580E-008	0.00000E+000	-5.66550E-001	8.00223E-005	4	..........a	-327.66
	107	0.0216	-5.76230E-001	-1.95500E-008	0.00000E+000	-5.76550E-001	8.00223E-005	4	..........a	-327.66
	108	0.0218	-5.86531E-001	-1.97560E-008	0.00000E+000	-5.86550E-001	8.00223E-005	4	..........a	-327.66
	109	0.022	-5.96330E-001	-1.99630E-008	0.00000E+000	-5.96550E-001	8.00223E-005	4	..........a	-327.66
	110	0.0222	-5.86430E-001	-2.00150E-008	0.00000E+000	-5.86550E-001	8.00223E-005	4	..........a	-327.66
	111	0.0224	-5.76380E-001	-2.00300E-008	0.00000E+000	-5.76550E-001	8.00223E-005	4	..........a	-327.66
	112	0.0226	-5.66330E-001	-2.00330E-008	0.00000E+000	-5.66550E-001	8.00223E-005	4	..........a	-327.66
	113	0.0228	-5.56331E-001	-2.00160E-008	0.00000E+000	-5.56550E-001	8.00223E-005	4	..........a	-327.66
	114	0.023	-5.46130E-001	-1.99850E-008	0.00000E+000	-5.46550E-001	8.00223E-005	4	..........a	-327.66
	115	0.0232	-5.36330E-001	-1.99410E-008	0.00000E+000	-5.36550E-001	8.00223E-005	4	..........a	-327.66
	116	0.0234	-5.26430E-001	-1.99070E-008	0.00000E+000	-5.26550E-001	8.00223E-005	4	..........a	-327.66
	117	0.0236	-5.16330E-001	-1.98460E-008	0.00000E+000	-5.16550E-001	8.00223E-005	4	..........a	-327.66
	118	0.0238	-5.06330E-001	-1.97910E-008	0.00000E+000	-5.06550E-001	8.00223E-005	4	..........a	-327.66
	119	0.024	-4.96330E-001	-1.97200E-008	0.00000E+000	-4.96550E-001	8.00223E-005	4	..........a	-327.66
	120	0.0242	-4.86530E-001	-1.96530E-008	0.00000E+000	-4.86550E-001	8.00223E-005	4	..........a	-327.66
	121	0.0244	-4.76330E-001	-1.95830E-008	0.00000E+000	-4.76550E-001	8.00223E-005	4	..........a	-327.66
	122	0.0246	-4.66130E-001	-1.95090E-008	0.00000E+000	-4.66550E-001	8.00223E-005	4	..........a	-327.66
	123	0.0248	-4.56330E-001	-1.94290E-008	0.00000E+000	-4.56550E-001	8.00223E-005	4	..........a	-327.66
	124	0.025	-4.46130E-001	-1.93440E-008	0.00000E+000	-4.46550E-001	8.00223E-005	4	..........a	-327.66
	125	0.0252	-4.36430E-001	-1.92570E-008	0.00000E+000	-4.36550E-001	8.00223E-005	4	..........a	-327.66
	126	0.0254	-4.26330E-001	-1.91719E-008	0.00000E+000	-4.26550E-001	8.00223E-005	4	..........a	-327.66
	127	0.0256	-4.16530E-001	-1.90869E-008	0.00000E+000	-4.16550E-001	8.00223E-005	4	..........a	-327.66
	128	0.0258	-4.06530E-001	-1.89909E-008	0.00000E+000	-4.06550E-001	8.00223E-005	4	..........a	-327.66
	129	0.026	-3.96430E-001	-1.88989E-008	0.00000E+000	-3.96550E-001	8.00223E-005	4	..........a	-327.66
	130	0.0262	-3.86330E-001	-1.88089E-008	0.00000E+000	-3.86550E-001	8.00223E-005	4	..........a	-327.66
	131	0.0264	-3.76330E-001	-1.87079E-008	0.00000E+000	-3.76550E-001	8.00223E-005	4	..........a	-327.66
	132	0.0266	-3.66330E-001	-1.86119E-008	0.00000E+000	-3.66550E-001	8.00223E-005	4	..........a	-327.66
	133	0.0268	-3.56530E-001	-1.85129E-008	0.00000E+000	-3.56550E-001	8.00223E-005	4	..........a	-327.66
	134	0.027	-3.46330E-001	-1.84079E-008	0.00000E+000	-3.46550E-001	8.00223E-005	4	..........a	-327.66
	135	0.0272	-3.36430E-001	-1.83079E-008	0.00000E+000	-3.36550E-001	8.00223E-005	4	..........a	-327.66
	136	0.0274	-3.26430E-001	-1.82129E-008	0.00000E+000	-3.26550E-001	8.00223E-005	4	..........a	-327.66
	137	0.0276	-3.16430E-001	-1.81029E-008	0.00000E+000	-3.16550E-001	8.00223E-005	4	..........a	-327.66
	138	0.0278	-3.06330E-001	-1.80009E-008	0.00000E+000	-3.06550E-001	8.00223E-005	4	..........a	-327.66
	139	0.028	-2.96430E-001	-1.78889E-008	0.00000E+000	-2.96550E-001	8.00223E-005	4	..........a	-327.66
	140	0.0282	-2.86530E-001	-1.77869E-008	0.00000E+000	-2.86550E-001	8.00223E-005	4	..........a	-327.66
	141	0.0284	-2.76330E-001	-1.76769E-008	0.00000E+000	-2.76550E-001	8.00223E-005	4	..........a	-327.66
	142	0.0286	-2.66230E-001	-1.75699E-008	0.00000E+000	-2.66550E-001	8.00223E-005	4	..........a	-327.66
	143	0.0288	-2.56330E-001	-1.74549E-008	0.00000E+000	-2.56550E-001	-3.19978E-004	4	..........a	-327.66
	144	0.029	-2.46330E-001	-1.73489E-008	0.00000E+000	-2.46550E-001	8.00223E-005	4	..........a	-327.66
	145	0.0292	-2.36330E-001	-1.72409E-008	0.00000E+000	-2.36550E-001	8.00223E-005	4	..........a	-327.66
	146	0.0294	-2.26430E-001	-1.71289E-008	0.00000E+000	-2.26550E-001	8.00223E-005	4	..........a	-327.66
	147	0.0296	-2.16530E-001	-1.70109E-008	0.00000E+000	-2.16550E-001	8.00223E-005	4	..........a	-327.66
	148	0.0298	-2.06430E-001	-1.69009E-008	0.00000E+000	-2.06550E-001	-2.19978E-004	4	..........a	-327.66
	149	0.03	-1.96330E-001	-1.67869E-008	0.00000E+000	-1.96550E-001	8.00223E-005	4	..........a	-327.66
	150	0.0302	-1.86530E-001	-1.66749E-008	0.00000E+000	-1.86550E-001	8.00223E-005	4	..........a	-327.66
	151	0.0304	-1.76430E-001	-1.65488E-008	0.00000E+000	-1.76550E-001	8.00223E-005	4	..........a	-327.66
	152	0.0306	-1.66430E-001	-1.64348E-008	0.00000E+000	-1.66550E-001	8.00223E-005	4	..........a	-327.66
	153	0.0308	-1.56530E-001	-1.63168E-008	0.00000E+000	-1.56550E-001	8.00223E-005	4	..........a	-327.66
	154	0.031	-1.46530E-001	-1.61958E-008	0.00000E+000	-1.46550E-001	8.00223E-005	4	..........a	-327.66
	155	0.0312	-1.36430E-001	-1.60808E-008	0.00000E+000	-1.36550E-001	8.00223E-005	4	..........a	-327.66
	156	0.0314	-1.26530E-001	-1.59578E-008	0.00000E+000	-1.26550E-001	-2.19978E-004	4	..........a	-327.66
	157	0.0316	-1.16430E-001	-1.58398E-008	0.00000E+000	-1.16550E-001	8.00223E-005	4	..........a	-327.66
	158	0.0318	-1.06730E-001	-1.57118E-008	0.00000E+000	-1.06550E-001	8.00223E-005	4	..........a	-327.66
	159	0.032	-9.63305E-002	-1.55948E-008	0.00000E+000	-9.65500E-002	8.00223E-005	4	..........a	-327.66
	160	0.0322	-8.64305E-002	-1.54728E-008	0.00000E+000	-8.65500E-002	8.00223E-005	4	..........a	-327.66
	161	0.0324	-7.64305E-002	-1.53498E-008	0.00000E+000	-7.65500E-002	8.00223E-005	4	..........a	-327.66
	162	0.0326	-6.62305E-002	-1.52248E-008	0.00000E+000	-6.65500E-002	8.00223E-005	4	..........a	-327.66
	163	0.0328	-5.65305E-002	-1.50998E-008	0.00000E+000	-5.65500E-002	8.00223E-005	4	..........a	-327.66
	164	0.033	-4.64305E-002	-1.49738E-008	0.00000E+000	-4.65500E-002	8.00223E-005	4	..........a	-327.66
	165	0.0332	-3.63305E-002	-1.48478E-008	0.00000E+000	-3.65500E-002	8.00223E-005	4	..........a	-327.66
	166	0.0334	-2.63305E-002	-1.47188E-008	0.00000E+000	-2.65500E-002	8.00223E-005	4	..........a	-327.66
	167	0.0336	-1.65305E-002	-1.45888E-008	0.00000E+000	-1.65500E-002	8.00223E-005	4	..........a	-327.66
	168	0.0338	-6.53048E-003	-1.44588E-008	0.00000E+000	-6.55000E-003	8.00223E-005	4	..........a	-327.66
	169	0.034	3.56952E-003	-1.43268E-008	0.00000E+000	3.45001E-003	8.00223E-005	4	..........a	-327.66
	170	0.0342	1.37695E-002	-1.41878E-008	0.00000E+000	1.34500E-002	8.00223E-005	4	..........a	-327.66
	171	0.0344	2.34195E-002	-1.40588E-008	0.00000E+000	2.34500E-002	8.00223E-005	4	..........a	-327.66
	172	0.0346	3.34695E-002	-1.39247E-008	0.00000E+000	3.34500E-002	8.00223E-005	4	..........a	-327.66
	173	0.0348	4.35695E-002	-1.37877E-008	0.00000E+000	4.34500E-002	8.00223E-005	4	..........a	-327.66
	174	0.035	5.34695E-002	-1.36527E-008	0.00000E+000	5.34500E-002	8.00223E-005	4	..........a	-327.66
	175	0.0352	6.35695E-002	-1.35077E-008	0.00000E+000	6.34500E-002	8.00223E-005	4	..........a	-327.66
	176	0.0354	7.35695E-002	-1.33657E-008	0.00000E+000	7.34500E-002	8.00223E-005	4	..........a	-327.66
	177	0.0356	8.36695E-002	-1.32247E-008	0.00000E+000	8.34500E-002	-3.19978E-004	4	..........a	-327.66
	178	0.0358	9.35695E-002	-1.30747E-008	0.00000E+000	9.34500E-002	8.00223E-005	4	..........a	-327.66
	179	0.036	1.03470E-001	-1.29307E-008	0.00000E+000	1.03450E-001	8.00223E-005	4	..........a	-327.66
	180	0.0362	1.13470E-001	-1.27717E-008	0.00000E+000	1.13450E-001	8.00223E-005	4	..........a	-327.66
	181	0.0364	1.23570E-001	-1.26267E-008	0.00000E+000	1.23450E-001	8.00223E-005	4	..........a	-327.66
	182	0.0366	1.33570E-001	-1.24687E-008	0.00000E+000	1.33450E-001	8.00223E-005	4	..........a	-327.66
	183	0.0368	1.43470E-001	-1.23117E-008	0.00000E+000	1.43450E-001	8.00223E-005	4	..........a	-327.66
	184	0.037	1.53670E-001	-1.21397E-008	0.00000E+000	1.53450E-001	8.00223E-005	4	..........a	-327.66
	185	0.0372	1.63470E-001	-1.19817E-008	0.00000E+000	1.63450E-001	8.00223E-005	4	..........a	-327.66
	186	0.0374	1.73420E-001	-1.18167E-008	0.00000E+000	1.73450E-001	8.00223E-005	4	..........a	-327.66
	187	0.0376	1.83570E-001	-1.16437E-008	0.00000E+000	1.83450E-001	8.00223E-005	4	..........a	-327.66
	188	0.0378	1.93470E-001	-1.14677E-008	0.00000E+000	1.93450E-001	8.00223E-005	4	..........a	-327.66
	189	0.038	2.03370E-001	-1.12926E-008	0.00000E+000	2.03450E-001	8.00223E-005	4	..........a	-327.66
	190	0.0382	2.13470E-001	-1.11036E-008	0.00000E+000	2.13450E-001	8.00223E-005	4	..........a	-327.66
	191	0.0384	2.23470E-001	-1.09206E-008	0.00000E+000	2.23450E-001	8.00223E-005	4	..........a	-327.66
	192	0.0386	2.33370E-001	-1.07326E-008	0.00000E+000	2.33450E-001	8.00223E-005	4	..........a	-327.66
	193	0.0388	2.43570E-001	-1.05406E-008	0.00000E+000	2.43450E-001	8.00223E-005	4	..........a	-327.66
	194	0.039	2.53470E-001	-1.03386E-008	0.00000E+000	2.53450E-001	8.00223E-005	4	..........a	-327.66
	195	0.0392	2.63470E-001	-1.01406E-008	0.00000E+000	2.63450E-001	8.00223E-005	4	..........a	-327.66
	196	0.0394	2.73370E-001	-9.92959E-009	0.00000E+000	2.73450E-001	8.00223E-005	4	..........a	-327.66
	197	0.0396	2.83470E-001	-9.72359E-009	0.00000E+000	2.83450E-001	8.00223E-005	4	..........a	-327.66
	198	0.0398	2.93470E-001	-9.51258E-009	0.00000E+000	2.93450E-001	8.00223E-005	4	..........a	-327.66
	199	0.04	3.03470E-001	-9.29057E-009	0.00000E+000	3.03450E-001	8.00223E-005	4	..........a	-327.66
	200	0.0402	3.13570E-001	-9.06556E-009	0.00000E+000	3.13450E-001	8.00223E-005	4	..........a	-327.66
	201	0.0404	3.23470E-001	-8.84255E-009	0.00000E+000	3.23450E-001	8.00223E-005	4	..........a	-327.66
	202	0.0406	3.33470E-001	-8.60754E-009	0.00000E+000	3.33450E-001	8.00223E-005	4	..........a	-327.66
	203	0.0408	3.43570E-001	-8.38053E-009	0.00000E+000	3.43450E-001	-3.19978E-004	4	..........a	-327.66
	204	0.041	3.53370E-001	-8.13753E-009	0.00000E+000	3.53450E-001	8.00223E-005	4	..........a	-327.66
	205	0.0412	3.63370E-001	-7.89952E-009	0.00000E+000	3.63450E-001	8.00223E-005	4	..........a	-327.66
	206	0.0414	3.73470E-001	-7.65451E-009	0.00000E+000	3.73450E-001	8.00223E-005	4	..........a	-327.66
	207	0.0416	3.83470E-001	-7.40650E-009	0.00000E+000	3.83450E-001	8.00223E-005	4	..........a	-327.66
	208	0.0418	3.93470E-001	-7.15349E-009	0.00000E+000	3.93450E-001	8.00223E-005	4	..........a	-327.66
	209	0.042	4.03420E-001	-6.90348E-009	0.00000E+000	4.03450E-001	8.00223E-005	4	..........a	-327.66
	210	0.0422	4.13370E-001	-6.64447E-009	0.00000E+000	4.13450E-001	8.00223E-005	4	..........a	-327.66
	211	0.0424	4.23470E-001	-6.39046E-009	0.00000E+000	4.23450E-001	8.00223E-005	4	..........a	-327.66
	212	0.0426	4.33470E-001	-6.12745E-009	0.00000E+000	4.33450E-001	8.00223E-005	4	..........a	-327.66
	213	0.0428	4.43370E-001	-5.86344E-009	0.00000E+000	4.43450E-001	8.00223E-005	4	..........a	-327.66
	214	0.043	4.53370E-001	-5.60043E-009	0.00000E+000	4.53450E-001	8.00223E-005	4	..........a	-327.66
	215	0.0432	4.63470E-001	-5.32642E-009	0.00000E+000	4.63450E-001	-4.19978E-004	4	..........a	-327.66
	216	0.0434	4.73670E-001	-5.05841E-009	0.00000E+000	4.73450E-001	8.00223E-005	4	..........a	-327.66
	217	0.0436	4.83470E-001	-4.78240E-009	0.00000E+000	4.83450E-001	8.00223E-005	4	..........a	-327.66
	218	0.0438	4.93370E-001	-4.50639E-009	0.00000E+000	4.93450E-001	8.00223E-005	4	..........a	-327.66
	219	0.044	5.03469E-001	-4.22537E-009	0.00000E+000	5.03450E-001	8.00223E-005	4	..........a	-327.66
	220	0.0442	5.13269E-001	-3.94236E-009	0.00000E+000	5.13450E-001	8.00223E-005	4	..........a	-327.66
	221	0.0444	5.23369E-001	-3.66235E-009	0.00000E+000	5.23450E-001	8.00223E-005	4	..........a	-327.66
	222	0.0446	5.33369E-001	-3.37734E-009	0.00000E+000	5.33450E-001	8.00223E-005	4	..........a	-327.66
	223	0.0448	5.43469E-001	-3.09333E-009	0.00000E+000	5.43450E-001	8.00223E-005	4	..........a	-327.66
	224	0.045	5.53219E-001	-2.80532E-009	0.00000E+000	5.53450E-001	8.00223E-005	4	..........a	-327.66
	225	0.0452	5.63469E-001	-2.51531E-009	0.00000E+000	5.63450E-001	8.00223E-005	4	..........a	-327.66
	226	0.0454	5.73469E-001	-2.22930E-009	0.00000E+000	5.73450E-001	8.00223E-005	4	..........a	-327.66
	227	0.0456	5.83470E-001	-1.93729E-009	0.00000E+000	5.83450E-001	8.00223E-005	4	..........a	-327.66
	228	0.0458	5.93369E-001	-1.64428E-009	0.00000E+000	5.93450E-001	8.00223E-005	4	..........a	-327.66
	229	0.046	6.03269E-001	-1.35226E-009	0.00000E+000	6.03450E-001	8.00223E-005	4	..........a	-327.66
	230	0.0462	6.13369E-001	-1.05425E-009	0.00000E+000	6.13450E-001	8.00223E-005	4	..........a	-327.66
	231	0.0464	6.23369E-001	-7.63242E-010	0.00000E+000	6.23450E-001	8.00223E-005	4	..........a	-327.66
	232	0.0466	6.33370E-001	-4.66230E-010	0.00000E+000	6.33450E-001	8.00223E-005	4	..........a	-327.66
	233	0.0468	6.43369E-001	-1.68219E-010	0.00000E+000	6.43450E-001	8.00223E-005	4	..........a	-327.66
	234	0.047	6.53169E-001	1.31793E-010	0.00000E+000	6.53450E-001	8.00223E-005	4	..........a	-327.66
	235	0.0472	6.63369E-001	4.29804E-010	0.00000E+000	6.63450E-001	8.00223E-005	4	..........a	-327.66
	236	0.0474	6.73169E-001	7.28816E-010	0.00000E+000	6.73450E-001	8.00223E-005	4	..........a	-327.66
	237	0.0476	6.83270E-001	1.02883E-009	0.00000E+000	6.83450E-001	-3.19978E-004	4	..........a	-327.66
	238	0.0478	6.93469E-001	1.32884E-009	0.00000E+000	6.93450E-001	8.00223E-005	4	..........a	-327.66
	239	0.048	7.03269E-001	1.63385E-009	0.00000E+000	7.03450E-001	8.00223E-005	4	..........a	-327.66
	240	0.0482	7.13269E-001	1.93786E-009	0.00000E+000	7.13450E-001	8.00223E-005	4	..........a	-327.66
	241	0.0484	7.23369E-001	2.24587E-009	0.00000E+000	7.23450E-001	-1.19978E-004	4	..........a	-327.66
	242	0.0486	7.33269E-001	2.55489E-009	0.00000E+000	7.33450E-001	8.00223E-005	4	..........a	-327.66
	243	0.0488	7.43419E-001	2.86690E-009	0.00000E+000	7.43450E-001	8.00223E-005	4	..........a	-327.66
	244	0.049	7.53369E-001	3.17591E-009	0.00000E+000	7.53450E-001	8.00223E-005	4	..........a	-327.66
	245	0.0492	7.63370E-001	3.48992E-009	0.00000E+000	7.63450E-001	8.00223E-005	4	..........a	-327.66
	246	0.0494	7.73369E-001	3.79993E-009	0.00000E+000	7.73450E-001	-3.19978E-004	4	..........a	-327.66
	247	0.0496	7.83369E-001	4.12695E-009	0.00000E+000	7.83450E-001	8.00223E-005	4	..........a	-327.66
	248	0.0498	7.93169E-001	4.44396E-009	0.00000E+000	7.93450E-001	8.00223E-005	4	..........a	-327.66
	249	0.05	8.03469E-001	4.77497E-009	0.00000E+000	8.03450E-001	8.00223E-005	4	..........a	-327.66
CURVE2	TABLE
	Pt	T	Vf	Im	Vu	Sig	Ach	IERange	Over	Temp
	#	s	V vs. Ref.	A	V	V	V	#	bits	deg C
	250	0.0502	7.89869E-001	4.91298E-009	0.00000E+000	7.90000E-001	8.00223E-005	4	..........a	-327.66
	251	0.0504	7.79769E-001	5.02198E-009	0.00000E+000	7.80000E-001	8.00223E-005	4	..........a	-327.66
	252	0.0506	7.69769E-001	5.09198E-009	0.00000E+000	7.70000E-001	8.00223E-005	4	..........a	-327.66
	253	0.0508	7.60069E-001	5.13998E-009	0.00000E+000	7.60000E-001	8.00223E-005	4	..........a	-327.66
	254	0.051	7.49869E-001	5.16399E-009	0.00000E+000	7.50000E-001	-1.19978E-004	4	..........a	-327.66
	255	0.0512	7.39969E-001	5.17799E-009	0.00000E+000	7.40000E-001	8.00223E-005	4	..........a	-327.66
	256	0.0514	7.29869E-001	5.17399E-009	0.00000E+000	7.30000E-001	8.00223E-005	4	..........a	-327.66
	257	0.0516	7.19869E-001	5.16099E-009	0.00000E+000	7.20000E-001	8.00223E-005	4	..........a	-327.66
	258	0.0518	7.10069E-001	5.12898E-009	0.00000E+000	7.10000E-001	8.00223E-005	4	..........a	-327.66
	259	0.052	6.99869E-001	5.09798E-009	0.00000E+000	7.00000E-001	8.00223E-005	4	..........a	-327.66
	260	0.0522	6.89869E-001	5.05398E-009	0.00000E+000	6.90000E-001	8.00223E-005	4	..........a	-327.66
	261	0.0524	6.80070E-001	5.00598E-009	0.00000E+000	6.80000E-001	8.00223E-005	4	..........a	-327.66
	262	0.0526	6.69869E-001	4.94898E-009	0.00000E+000	6.70000E-001	8.00223E-005	4	..........a	-327.66
	263	0.0528	6.59869E-001	4.89398E-009	0.00000E+000	6.60000E-001	8.00223E-005	4	..........a	-327.66
	264	0.053	6.49769E-001	4.82797E-009	0.00000E+000	6.50000E-001	8.00223E-005	4	..........a	-327.66
	265	0.0532	6.39719E-001	4.75597E-009	0.00000E+000	6.40000E-001	8.00223E-005	4	..........a	-327.66
	266	0.0534	6.30069E-001	4.68697E-009	0.00000E+000	6.30000E-001	8.00223E-005	4	..........a	-327.66
	267	0.0536	6.19969E-001	4.61296E-009	0.00000E+000	6.20000E-001	8.00223E-005	4	..........a	-327.66
	268	0.0538	6.09869E-001	4.52996E-009	0.00000E+000	6.10000E-001	8.00223E-005	4	..........a	-327.66
	269	0.054	6.00069E-001	4.44796E-009	0.00000E+000	6.00000E-001	8.00223E-005	4	..........a	-327.66
	270	0.0542	5.89769E-001	4.36295E-009	0.00000E+000	5.90000E-001	8.00223E-005	4	..........a	-327.66
	271	0.0544	5.80269E-001	4.26995E-009	0.00000E+000	5.80000E-001	8.00223E-005	4	..........a	-327.66
	272	0.0546	5.69919E-001	4.17595E-009	0.00000E+000	5.70000E-001	8.00223E-005	4	..........a	-327.66
	273	0.0548	5.59770E-001	4.07894E-009	0.00000E+000	5.60000E-001	8.00223E-005	4	..........a	-327.66
	274	0.055	5.49869E-001	3.98194E-009	0.00000E+000	5.50000E-001	8.00223E-005	4	..........a	-327.66
	275	0.0552	5.40069E-001	3.87694E-009	0.00000E+000	5.40000E-001	8.00223E-005	4	..........a	-327.66
	276	0.0554	5.29970E-001	3.77693E-009	0.00000E+000	5.30000E-001	-2.19978E-004	4	..........a	-327.66
	277	0.0556	5.20069E-001	3.66193E-009	0.00000E+000	5.20000E-001	8.00223E-005	4	..........a	-327.66
	278	0.0558	5.09969E-001	3.55492E-009	0.00000E+000	5.10000E-001	8.00223E-005	4	..........a	-327.66
	279	0.056	5.00170E-001	3.44292E-009	0.00000E+000	5.00000E-001	8.00223E-005	4	..........a	-327.66
	280	0.0562	4.89870E-001	3.32392E-009	0.00000E+000	4.90000E-001	8.00223E-005	4	..........a	-327.66
	281	0.0564	4.79870E-001	3.20591E-009	0.00000E+000	4.80000E-001	8.00223E-005	4	..........a	-327.66
	282	0.0566	4.69970E-001	3.07791E-009	0.00000E+000	4.70000E-001	8.00223E-005	4	..........a	-327.66
	283	0.0568	4.60070E-001	2.95290E-009	0.00000E+000	4.60000E-001	8.00223E-005	4	..........a	-327.66
	284	0.057	4.49770E-001	2.82090E-009	0.00000E+000	4.50000E-001	8.00223E-005	4	..........a	-327.66
	285	0.0572	4.39970E-001	2.69189E-009	0.00000E+000	4.40000E-001	8.00223E-005	4	..........a	-327.66
	286	0.0574	4.30070E-001	2.54389E-009	0.00000E+000	4.30000E-001	8.00223E-005	4	..........a	-327.66
	287	0.0576	4.20070E-001	2.40088E-009	0.00000E+000	4.20000E-001	8.00223E-005	4	..........a	-327.66
	288	0.0578	4.09970E-001	2.24587E-009	0.00000E+000	4.10000E-001	8.00223E-005	4	..........a	-327.66
	289	0.058	4.00170E-001	2.10087E-009	0.00000E+000	4.00000E-001	8.00223E-005	4	..........a	-327.66
	290	0.0582	3.89870E-001	1.93986E-009	0.00000E+000	3.90000E-001	8.00223E-005	4	..........a	-327.66
	291	0.0584	3.79870E-001	1.77586E-009	0.00000E+000	3.80000E-001	8.00223E-005	4	..........a	-327.66
	292	0.0586	3.70070E-001	1.60585E-009	0.00000E+000	3.70000E-001	8.00223E-005	4	..........a	-327.66
	293	0.0588	3.59770E-001	1.43684E-009	0.00000E+000	3.60000E-001	8.00223E-005	4	..........a	-327.66
	294	0.059	3.49820E-001	1.25784E-009	0.00000E+000	3.50000E-001	-1.19978E-004	4	..........a	-327.66
	295	0.0592	3.40070E-001	1.07183E-009	0.00000E+000	3.40000E-001	8.00223E-005	4	..........a	-327.66
	296	0.0594	3.29870E-001	8.84822E-010	0.00000E+000	3.30000E-001	8.00223E-005	4	..........a	-327.66
	297	0.0596	3.19970E-001	6.89814E-010	0.00000E+000	3.20000E-001	8.00223E-005	4	..........a	-327.66
	298	0.0598	3.10070E-001	4.85806E-010	0.00000E+000	3.10000E-001	8.00223E-005	4	..........a	-327.66
	299	0.06	2.99670E-001	2.81798E-010	0.00000E+000	3.00000E-001	8.00223E-005	4	..........a	-327.66
	300	0.0602	2.90070E-001	7.17904E-011	0.00000E+000	2.90000E-001	8.00223E-005	4	..........a	-327.66
	301	0.0604	2.79870E-001	-1.47218E-010	0.00000E+000	2.80000E-001	8.00223E-005	4	..........a	-327.66
	302	0.0606	2.70070E-001	-3.63226E-010	0.00000E+000	2.70000E-001	8.00223E-005	4	..........a	-327.66
	303	0.0608	2.59970E-001	-5.96235E-010	0.00000E+000	2.60000E-001	8.00223E-005	4	..........a	-327.66
	304	0.061	2.50070E-001	-8.30244E-010	0.00000E+000	2.50000E-001	8.00223E-005	4	..........a	-327.66
	305	0.0612	2.39970E-001	-1.06525E-009	0.00000E+000	2.40000E-001	8.00223E-005	4	..........a	-327.66
	306	0.0614	2.29870E-001	-1.30626E-009	0.00000E+000	2.30000E-001	8.00223E-005	4	..........a	-327.66
	307	0.0616	2.19670E-001	-1.54527E-009	0.00000E+000	2.20000E-001	8.00223E-005	4	..........a	-327.66
	308	0.0618	2.09870E-001	-1.79928E-009	0.00000E+000	2.10000E-001	8.00223E-005	4	..........a	-327.66
	309	0.062	2.00170E-001	-2.04629E-009	0.00000E+000	2.00000E-001	8.00223E-005	4	..........a	-327.66
	310	0.0622	1.90070E-001	-2.30130E-009	0.00000E+000	1.90000E-001	8.00223E-005	4	..........a	-327.66
	311	0.0624	1.80270E-001	-2.55431E-009	0.00000E+000	1.80000E-001	8.00223E-005	4	..........a	-327.66
	312	0.0626	1.69970E-001	-2.81132E-009	0.00000E+000	1.70000E-001	8.00223E-005	4	..........a	-327.66
	313	0.0628	1.59870E-001	-3.06633E-009	0.00000E+000	1.60000E-001	8.00223E-005	4	..........a	-327.66
	314	0.063	1.49970E-001	-3.32234E-009	0.00000E+000	1.50000E-001	8.00223E-005	4	..........a	-327.66
	315	0.0632	1.39870E-001	-3.57635E-009	0.00000E+000	1.40000E-001	8.00223E-005	4	..........a	-327.66
	316	0.0634	1.30020E-001	-3.82736E-009	0.00000E+000	1.30000E-001	8.00223E-005	4	..........a	-327.66
	317	0.0636	1.20170E-001	-4.07937E-009	0.00000E+000	1.20000E-001	-3.19978E-004	4	..........a	-327.66
	318	0.0638	1.09970E-001	-4.33338E-009	0.00000E+000	1.10000E-001	8.00223E-005	4	..........a	-327.66
	319	0.064	1.00170E-001	-4.57539E-009	0.00000E+000	1.00000E-001	8.00223E-005	4	..........a	-327.66
	320	0.0642	9.00695E-002	-4.81740E-009	0.00000E+000	9.00000E-002	-4.19978E-004	4	..........a	-327.66
	321	0.0644	7.99695E-002	-5.05541E-009	0.00000E+000	8.00000E-002	8.00223E-005	4	..........a	-327.66
	322	0.0646	7.02695E-002	-5.29742E-009	0.00000E+000	7.00000E-002	8.00223E-005	4	..........a	-327.66
	323	0.0648	6.00695E-002	-5.53043E-009	0.00000E+000	6.00000E-002	8.00223E-005	4	..........a	-327.66
	324	0.065	5.00695E-002	-5.75243E-009	0.00000E+000	5.00000E-002	8.00223E-005	4	..........a	-327.66
	325	0.0652	3.98695E-002	-5.97444E-009	0.00000E+000	4.00000E-002	8.00223E-005	4	..........a	-327.66
	326	0.0654	3.00695E-002	-6.19545E-009	0.00000E+000	3.00000E-002	8.00223E-005	4	..........a	-327.66
	327	0.0656	2.01695E-002	-6.41046E-009	0.00000E+000	2.00000E-002	8.00223E-005	4	..........a	-327.66
	328	0.0658	1.00695E-002	-6.61647E-009	0.00000E+000	1.00000E-002	8.00223E-005	4	..........a	-327.66
	329	0.066	1.69519E-004	-6.82547E-009	0.00000E+000	7.45058E-009	8.00223E-005	4	..........a	-327.66
	330	0.0662	-9.93048E-003	-7.02848E-009	0.00000E+000	-1.00000E-002	8.00223E-005	4	..........a	-327.66
	331	0.0664	-1.98305E-002	-7.22649E-009	0.00000E+000	-2.00000E-002	8.00223E-005	4	..........a	-327.66
	332	0.0666	-2.99305E-002	-7.41950E-009	0.00000E+000	-3.00000E-002	8.00223E-005	4	..........a	-327.66
	333	0.0668	-3.99305E-002	-7.60951E-009	0.00000E+000	-4.00000E-002	8.00223E-005	4	..........a	-327.66
	334	0.067	-5.00305E-002	-7.79451E-009	0.00000E+000	-5.00000E-002	8.00223E-005	4	..........a	-327.66
	335	0.0672	-5.97305E-002	-7.97352E-009	0.00000E+000	-6.00000E-002	8.00223E-005	4	..........a	-327.66
	336	0.0674	-6.99305E-002	-8.15853E-009	0.00000E+000	-7.00000E-002	8.00223E-005	4	..........a	-327.66
	337	0.0676	-7.99305E-002	-8.33353E-009	0.00000E+000	-8.00000E-002	8.00223E-005	4	..........a	-327.66
	338	0.0678	-9.00805E-002	-8.50854E-009	0.00000E+000	-9.00000E-002	8.00223E-005	4	..........a	-327.66
	339	0.068	-9.97305E-002	-8.67955E-009	0.00000E+000	-1.00000E-001	8.00223E-005	4	..........a	-327.66
	340	0.0682	-1.09930E-001	-8.84855E-009	0.00000E+000	-1.10000E-001	8.00223E-005	4	..........a	-327.66
	341	0.0684	-1.19930E-001	-9.01556E-009	0.00000E+000	-1.20000E-001	8.00223E-005	4	..........a	-327.66
	342	0.0686	-1.29930E-001	-9.17856E-009	0.00000E+000	-1.30000E-001	-3.19978E-004	4	..........a	-327.66
	343	0.0688	-1.39930E-001	-9.33857E-009	0.00000E+000	-1.40000E-001	8.00223E-005	4	..........a	-327.66
	344	0.069	-1.49830E-001	-9.50058E-009	0.00000E+000	-1.50000E-001	8.00223E-005	4	..........a	-327.66
	345	0.0692	-1.60130E-001	-9.65158E-009	0.00000E+000	-1.60000E-001	8.00223E-005	4	..........a	-327.66
[...]
	2605	0.5212	-3.60030E-001	-6.98048E-009	0.00000E+000	-3.60000E-001	8.00223E-005	4	..........a	-327.66
	2606	0.5214	-3.69930E-001	-7.11249E-009	0.00000E+000	-3.70000E-001	8.00223E-005	4	..........a	-327.66
	2607	0.5216	-3.79830E-001	-7.24449E-009	0.00000E+000	-3.80000E-001	8.00223E-005	4	..........a	-327.66
	2608	0.5218	-3.90030E-001	-7.37250E-009	0.00000E+000	-3.90000E-001	8.00223E-005	4	..........a	-327.66
	2609	0.522	-3.99930E-001	-7.50250E-009	0.00000E+000	-4.00000E-001	-1.19978E-004	4	..........a	-327.66
	2610	0.5222	-4.09930E-001	-7.63251E-009	0.00000E+000	-4.10000E-001	8.00223E-005	4	..........a	-327.66
	2611	0.5224	-4.19830E-001	-7.76651E-009	0.00000E+000	-4.20000E-001	8.00223E-005	4	..........a	-327.66
	2612	0.5226	-4.29980E-001	-7.90052E-009	0.00000E+000	-4.30000E-001	8.00223E-005	4	..........a	-327.66
	2613	0.5228	-4.39830E-001	-8.02652E-009	0.00000E+000	-4.40000E-001	8.00223E-005	4	..........a	-327.66
	2614	0.523	-4.49930E-001	-8.15553E-009	0.00000E+000	-4.50000E-001	8.00223E-005	4	..........a	-327.66
	2615	0.5232	-4.59830E-001	-8.29853E-009	0.00000E+000	-4.60000E-001	8.00223E-005	4	..........a	-327.66
	2616	0.5234	-4.69730E-001	-8.43454E-009	0.00000E+000	-4.70000E-001	8.00223E-005	4	..........a	-327.66
	2617	0.5236	-4.79730E-001	-8.57054E-009	0.00000E+000	-4.80000E-001	8.00223E-005	4	..........a	-327.66
	2618	0.5238	-4.89930E-001	-8.70555E-009	0.00000E+000	-4.90000E-001	8.00223E-005	4	..........a	-327.66
	2619	0.524	-4.99930E-001	-8.84455E-009	0.00000E+000	-5.00000E-001	-3.19978E-004	4	..........a	-327.66
	2620	0.5242	-5.09930E-001	-8.98756E-009	0.00000E+000	-5.10000E-001	8.00223E-005	4	..........a	-327.66
	2621	0.5244	-5.19930E-001	-9.12756E-009	0.00000E+000	-5.20000E-001	-2.19978E-004	4	..........a	-327.66
	2622	0.5246	-5.29930E-001	-9.27157E-009	0.00000E+000	-5.30000E-001	8.00223E-005	4	..........a	-327.66
	2623	0.5248	-5.39831E-001	-9.42057E-009	0.00000E+000	-5.40000E-001	8.00223E-005	4	..........a	-327.66
	2624	0.525	-5.49931E-001	-9.56758E-009	0.00000E+000	-5.50000E-001	8.00223E-005	4	..........a	-327.66
	2625	0.5252	-5.59931E-001	-9.72259E-009	0.00000E+000	-5.60000E-001	8.00223E-005	4	..........a	-327.66
	2626	0.5254	-5.69830E-001	-9.87659E-009	0.00000E+000	-5.70000E-001	8.00223E-005	4	..........a	-327.66
	2627	0.5256	-5.79830E-001	-1.00406E-008	0.00000E+000	-5.80000E-001	8.00223E-005	4	..........a	-327.66
	2628	0.5258	-5.89930E-001	-1.02006E-008	0.00000E+000	-5.90000E-001	-3.19978E-004	4	..........a	-327.66
	2629	0.526	-5.99730E-001	-1.03706E-008	0.00000E+000	-6.00000E-001	8.00223E-005	4	..........a	-327.66
	2630	0.5262	-5.90030E-001	-1.03936E-008	0.00000E+000	-5.90000E-001	8.00223E-005	4	..........a	-327.66
	2631	0.5264	-5.80031E-001	-1.03976E-008	0.00000E+000	-5.80000E-001	8.00223E-005	4	..........a	-327.66
	2632	0.5266	-5.69830E-001	-1.03866E-008	0.00000E+000	-5.70000E-001	-1.19978E-004	4	..........a	-327.66
	2633	0.5268	-5.59931E-001	-1.03666E-008	0.00000E+000	-5.60000E-001	8.00223E-005	4	..........a	-327.66
	2634	0.527	-5.49931E-001	-1.03346E-008	0.00000E+000	-5.50000E-001	8.00223E-005	4	..........a	-327.66
	2635	0.5272	-5.39730E-001	-1.03006E-008	0.00000E+000	-5.40000E-001	8.00223E-005	4	..........a	-327.66
	2636	0.5274	-5.29930E-001	-1.02516E-008	0.00000E+000	-5.30000E-001	8.00223E-005	4	..........a	-327.66
	2637	0.5276	-5.19930E-001	-1.02066E-008	0.00000E+000	-5.20000E-001	8.00223E-005	4	..........a	-327.66
	2638	0.5278	-5.09930E-001	-1.01516E-008	0.00000E+000	-5.10000E-001	8.00223E-005	4	..........a	-327.66
	2639	0.528	-4.99880E-001	-1.00886E-008	0.00000E+000	-5.00000E-001	8.00223E-005	4	..........a	-327.66
	2640	0.5282	-4.89930E-001	-1.00426E-008	0.00000E+000	-4.90000E-001	8.00223E-005	4	..........a	-327.66
	2641	0.5284	-4.79930E-001	-9.97660E-009	0.00000E+000	-4.80000E-001	8.00223E-005	4	..........a	-327.66
	2642	0.5286	-4.69930E-001	-9.91059E-009	0.00000E+000	-4.70000E-001	8.00223E-005	4	..........a	-327.66
	2643	0.5288	-4.59730E-001	-9.84259E-009	0.00000E+000	-4.60000E-001	8.00223E-005	4	..........a	-327.66
	2644	0.529	-4.50030E-001	-9.77459E-009	0.00000E+000	-4.50000E-001	8.00223E-005	4	..........a	-327.66
	2645	0.5292	-4.39830E-001	-9.69959E-009	0.00000E+000	-4.40000E-001	8.00223E-005	4	..........a	-327.66
	2646	0.5294	-4.29930E-001	-9.63458E-009	0.00000E+000	-4.30000E-001	8.00223E-005	4	..........a	-327.66
	2647	0.5296	-4.19630E-001	-9.55658E-009	0.00000E+000	-4.20000E-001	8.00223E-005	4	..........a	-327.66
	2648	0.5298	-4.09930E-001	-9.47958E-009	0.00000E+000	-4.10000E-001	8.00223E-005	4	..........a	-327.66
	2649	0.53	-3.99930E-001	-9.40857E-009	0.00000E+000	-4.00000E-001	8.00223E-005	4	..........a	-327.66
	2650	0.5302	-3.89930E-001	-9.33157E-009	0.00000E+000	-3.90000E-001	8.00223E-005	4	..........a	-327.66
	2651	0.5304	-3.79830E-001	-9.25057E-009	0.00000E+000	-3.80000E-001	8.00223E-005	4	..........a	-327.66
	2652	0.5306	-3.69930E-001	-9.16756E-009	0.00000E+000	-3.70000E-001	8.00223E-005	4	..........a	-327.66
	2653	0.5308	-3.59830E-001	-9.08256E-009	0.00000E+000	-3.60000E-001	8.00223E-005	4	..........a	-327.66
	2654	0.531	-3.49930E-001	-8.99956E-009	0.00000E+000	-3.50000E-001	8.00223E-005	4	..........a	-327.66
	2655	0.5312	-3.39730E-001	-8.91855E-009	0.00000E+000	-3.40000E-001	8.00223E-005	4	..........a	-327.66
	2656	0.5314	-3.30030E-001	-8.83255E-009	0.00000E+000	-3.30000E-001	8.00223E-005	4	..........a	-327.66
	2657	0.5316	-3.19830E-001	-8.74755E-009	0.00000E+000	-3.20000E-001	8.00223E-005	4	..........a	-327.66
	2658	0.5318	-3.09930E-001	-8.66255E-009	0.00000E+000	-3.10000E-001	8.00223E-005	4	..........a	-327.66
	2659	0.532	-2.99780E-001	-8.57754E-009	0.00000E+000	-3.00000E-001	8.00223E-005	4	..........a	-327.66
	2660	0.5322	-2.89930E-001	-8.48754E-009	0.00000E+000	-2.90000E-001	8.00223E-005	4	..........a	-327.66
	2661	0.5324	-2.79930E-001	-8.40254E-009	0.00000E+000	-2.80000E-001	8.00223E-005	4	..........a	-327.66
	2662	0.5326	-2.69930E-001	-8.31153E-009	0.00000E+000	-2.70000E-001	8.00223E-005	4	..........a	-327.66
	2663	0.5328	-2.59780E-001	-8.21853E-009	0.00000E+000	-2.60000E-001	8.00223E-005	4	..........a	-327.66
	2664	0.533	-2.49930E-001	-8.12552E-009	0.00000E+000	-2.50000E-001	8.00223E-005	4	..........a	-327.66
	2665	0.5332	-2.39830E-001	-8.03852E-009	0.00000E+000	-2.40000E-001	8.00223E-005	4	..........a	-327.66
	2666	0.5334	-2.30080E-001	-7.94252E-009	0.00000E+000	-2.30000E-001	8.00223E-005	4	..........a	-327.66
	2667	0.5336	-2.19830E-001	-7.84751E-009	0.00000E+000	-2.20000E-001	8.00223E-005	4	..........a	-327.66
	2668	0.5338	-2.09830E-001	-7.75651E-009	0.00000E+000	-2.10000E-001	8.00223E-005	4	..........a	-327.66
	2669	0.534	-2.00130E-001	-7.66251E-009	0.00000E+000	-2.00000E-001	8.00223E-005	4	..........a	-327.66
	2670	0.5342	-1.90330E-001	-7.57450E-009	0.00000E+000	-1.90000E-001	8.00223E-005	4	..........a	-327.66
	2671	0.5344	-1.80130E-001	-7.47050E-009	0.00000E+000	-1.80000E-001	8.00223E-005	4	..........a	-327.66
	2672	0.5346	-1.70030E-001	-7.37750E-009	0.00000E+000	-1.70000E-001	8.00223E-005	4	..........a	-327.66
	2673	0.5348	-1.60030E-001	-7.27849E-009	0.00000E+000	-1.60000E-001	8.00223E-005	4	..........a	-327.66
	2674	0.535	-1.49930E-001	-7.18449E-009	0.00000E+000	-1.50000E-001	-3.19978E-004	4	..........a	-327.66
	2675	0.5352	-1.39730E-001	-7.08648E-009	0.00000E+000	-1.40000E-001	8.00223E-005	4	..........a	-327.66
	2676	0.5354	-1.29930E-001	-6.98748E-009	0.00000E+000	-1.30000E-001	8.00223E-005	4	..........a	-327.66
	2677	0.5356	-1.19930E-001	-6.88848E-009	0.00000E+000	-1.20000E-001	8.00223E-005	4	..........a	-327.66
	2678	0.5358	-1.10130E-001	-6.78647E-009	0.00000E+000	-1.10000E-001	8.00223E-005	4	..........a	-327.66
	2679	0.536	-1.00030E-001	-6.69047E-009	0.00000E+000	-1.00000E-001	8.00223E-005	4	..........a	-327.66
	2680	0.5362	-9.00305E-002	-6.59447E-009	0.00000E+000	-9.00000E-002	8.00223E-005	4	..........a	-327.66
	2681	0.5364	-7.99305E-002	-6.48546E-009	0.00000E+000	-8.00000E-002	-3.19978E-004	4	..........a	-327.66
	2682	0.5366	-6.99305E-002	-6.38146E-009	0.00000E+000	-7.00000E-002	-3.19978E-004	4	..........a	-327.66
	2683	0.5368	-5.96305E-002	-6.27945E-009	0.00000E+000	-6.00000E-002	8.00223E-005	4	..........a	-327.66
	2684	0.537	-4.99305E-002	-6.17845E-009	0.00000E+000	-5.00000E-002	8.00223E-005	4	..........a	-327.66
	2685	0.5372	-3.99305E-002	-6.07045E-009	0.00000E+000	-4.00000E-002	8.00223E-005	4	..........a	-327.66
	2686	0.5374	-2.99305E-002	-5.97044E-009	0.00000E+000	-3.00000E-002	8.00223E-005	4	..........a	-327.66
	2687	0.5376	-1.99305E-002	-5.86144E-009	0.00000E+000	-2.00000E-002	8.00223E-005	4	..........a	-327.66
	2688	0.5378	-9.93048E-003	-5.75243E-009	0.00000E+000	-1.00000E-002	8.00223E-005	4	..........a	-327.66
	2689	0.538	-1.30481E-004	-5.64443E-009	0.00000E+000	7.45058E-009	8.00223E-005	4	..........a	-327.66
	2690	0.5382	1.00695E-002	-5.53242E-009	0.00000E+000	1.00000E-002	8.00223E-005	4	..........a	-327.66
	2691	0.5384	2.02195E-002	-5.42642E-009	0.00000E+000	2.00000E-002	8.00223E-005	4	..........a	-327.66
	2692	0.5386	3.00695E-002	-5.31542E-009	0.00000E+000	3.00000E-002	8.00223E-005	4	..........a	-327.66
	2693	0.5388	4.01695E-002	-5.19841E-009	0.00000E+000	4.00000E-002	8.00223E-005	4	..........a	-327.66
	2694	0.539	5.00695E-002	-5.07941E-009	0.00000E+000	5.00000E-002	8.00223E-005	4	..........a	-327.66
	2695	0.5392	6.01695E-002	-4.96040E-009	0.00000E+000	6.00000E-002	8.00223E-005	4	..........a	-327.66
	2696	0.5394	7.00195E-002	-4.84740E-009	0.00000E+000	7.00000E-002	8.00223E-005	4	..........a	-327.66
	2697	0.5396	7.98695E-002	-4.72639E-009	0.00000E+000	8.00000E-002	8.00223E-005	4	..........a	-327.66
	2698	0.5398	8.99695E-002	-4.60639E-009	0.00000E+000	9.00000E-002	8.00223E-005	4	..........a	-327.66
	2699	0.54	1.00070E-001	-4.48238E-009	0.00000E+000	1.00000E-001	8.00223E-005	4	..........a	-327.66
	2700	0.5402	1.10070E-001	-4.35338E-009	0.00000E+000	1.10000E-001	8.00223E-005	4	..........a	-327.66
	2701	0.5404	1.20070E-001	-4.22337E-009	0.00000E+000	1.20000E-001	8.00223E-005	4	..........a	-327.66
	2702	0.5406	1.29970E-001	-4.08837E-009	0.00000E+000	1.30000E-001	8.00223E-005	4	..........a	-327.66
	2703	0.5408	1.40170E-001	-3.94736E-009	0.00000E+000	1.40000E-001	8.00223E-005	4	..........a	-327.66
	2704	0.541	1.49970E-001	-3.81636E-009	0.00000E+000	1.50000E-001	8.00223E-005	4	..........a	-327.66
	2705	0.5412	1.60070E-001	-3.67635E-009	0.00000E+000	1.60000E-001	8.00223E-005	4	..........a	-327.66
	2706	0.5414	1.69870E-001	-3.52635E-009	0.00000E+000	1.70000E-001	8.00223E-005	4	..........a	-327.66
	2707	0.5416	1.79970E-001	-3.37834E-009	0.00000E+000	1.80000E-001	8.00223E-005	4	..........a	-327.66
	2708	0.5418	1.90070E-001	-3.22634E-009	0.00000E+000	1.90000E-001	8.00223E-005	4	..........a	-327.66
	2709	0.542	1.99970E-001	-3.07133E-009	0.00000E+000	2.00000E-001	8.00223E-005	4	..........a	-327.66
	2710	0.5422	2.09870E-001	-2.90932E-009	0.00000E+000	2.10000E-001	8.00223E-005	4	..........a	-327.66
	2711	0.5424	2.20270E-001	-2.74532E-009	0.00000E+000	2.20000E-001	8.00223E-005	4	..........a	-327.66
	2712	0.5426	2.29970E-001	-2.57531E-009	0.00000E+000	2.30000E-001	8.00223E-005	4	..........a	-327.66
	2713	0.5428	2.39970E-001	-2.39930E-009	0.00000E+000	2.40000E-001	8.00223E-005	4	..........a	-327.66
	2714	0.543	2.50070E-001	-2.22330E-009	0.00000E+000	2.50000E-001	8.00223E-005	4	..........a	-327.66
	2715	0.5432	2.60270E-001	-2.04429E-009	0.00000E+000	2.60000E-001	8.00223E-005	4	..........a	-327.66
	2716	0.5434	2.70070E-001	-1.86028E-009	0.00000E+000	2.70000E-001	8.00223E-005	4	..........a	-327.66
	2717	0.5436	2.79970E-001	-1.66028E-009	0.00000E+000	2.80000E-001	8.00223E-005	4	..........a	-327.66
	2718	0.5438	2.90070E-001	-1.46427E-009	0.00000E+000	2.90000E-001	8.00223E-005	4	..........a	-327.66
	2719	0.544	3.00170E-001	-1.26626E-009	0.00000E+000	3.00000E-001	8.00223E-005	4	..........a	-327.66
	2720	0.5442	3.09970E-001	-1.06125E-009	0.00000E+000	3.10000E-001	8.00223E-005	4	..........a	-327.66
	2721	0.5444	3.19970E-001	-8.46245E-010	0.00000E+000	3.20000E-001	8.00223E-005	4	..........a	-327.66
	2722	0.5446	3.30070E-001	-6.34237E-010	0.00000E+000	3.30000E-001	8.00223E-005	4	..........a	-327.66
	2723	0.5448	3.40070E-001	-4.22229E-010	0.00000E+000	3.40000E-001	-2.19978E-004	4	..........a	-327.66
	2724	0.545	3.49870E-001	-1.97220E-010	0.00000E+000	3.50000E-001	8.00223E-005	4	..........a	-327.66
	2725	0.5452	3.60070E-001	3.27889E-011	0.00000E+000	3.60000E-001	8.00223E-005	4	..........a	-327.66
	2726	0.5454	3.70070E-001	2.55797E-010	0.00000E+000	3.70000E-001	8.00223E-005	4	..........a	-327.66
	2727	0.5456	3.80170E-001	4.87806E-010	0.00000E+000	3.80000E-001	8.00223E-005	4	..........a	-327.66
	2728	0.5458	3.89870E-001	7.27816E-010	0.00000E+000	3.90000E-001	8.00223E-005	4	..........a	-327.66
	2729	0.546	3.99870E-001	9.67825E-010	0.00000E+000	4.00000E-001	8.00223E-005	4	..........a	-327.66
	2730	0.5462	4.09970E-001	1.20583E-009	0.00000E+000	4.10000E-001	8.00223E-005	4	..........a	-327.66
	2731	0.5464	4.20070E-001	1.44984E-009	0.00000E+000	4.20000E-001	8.00223E-005	4	..........a	-327.66
	2732	0.5466	4.30070E-001	1.70085E-009	0.00000E+000	4.30000E-001	8.00223E-005	4	..........a	-327.66
	2733	0.5468	4.39970E-001	1.95486E-009	0.00000E+000	4.40000E-001	8.00223E-005	4	..........a	-327.66
	2734	0.547	4.49670E-001	2.21187E-009	0.00000E+000	4.50000E-001	8.00223E-005	4	..........a	-327.66
	2735	0.5472	4.60070E-001	2.46488E-009	0.00000E+000	4.60000E-001	8.00223E-005	4	..........a	-327.66
	2736	0.5474	4.70070E-001	2.72489E-009	0.00000E+000	4.70000E-001	8.00223E-005	4	..........a	-327.66
	2737	0.5476	4.79970E-001	2.98290E-009	0.00000E+000	4.80000E-001	8.00223E-005	4	..........a	-327.66
	2738	0.5478	4.89870E-001	3.25191E-009	0.00000E+000	4.90000E-001	8.00223E-005	4	..........a	-327.66
	2739	0.548	5.00269E-001	3.51692E-009	0.00000E+000	5.00000E-001	8.00223E-005	4	..........a	-327.66
	2740	0.5482	5.09870E-001	3.77993E-009	0.00000E+000	5.10000E-001	8.00223E-005	4	..........a	-327.66
	2741	0.5484	5.19969E-001	4.05194E-009	0.00000E+000	5.20000E-001	8.00223E-005	4	..........a	-327.66
	2742	0.5486	5.29869E-001	4.32195E-009	0.00000E+000	5.30000E-001	8.00223E-005	4	..........a	-327.66
	2743	0.5488	5.39970E-001	4.59696E-009	0.00000E+000	5.40000E-001	8.00223E-005	4	..........a	-327.66
	2744	0.549	5.50070E-001	4.87297E-009	0.00000E+000	5.50000E-001	8.00223E-005	4	..........a	-327.66
	2745	0.5492	5.59969E-001	5.14899E-009	0.00000E+000	5.60000E-001	-1.19978E-004	4	..........a	-327.66
	2746	0.5494	5.69869E-001	5.42400E-009	0.00000E+000	5.70000E-001	8.00223E-005	4	..........a	-327.66
	2747	0.5496	5.80069E-001	5.69801E-009	0.00000E+000	5.80000E-001	8.00223E-005	4	..........a	-327.66
	2748	0.5498	5.89969E-001	5.98002E-009	0.00000E+000	5.90000E-001	8.00223E-005	4	..........a	-327.66
	2749	0.55	5.99869E-001	6.25903E-009	0.00000E+000	6.00000E-001	8.00223E-005	4	..........a	-327.66
	2750	0.5502	6.09819E-001	6.53704E-009	0.00000E+000	6.10000E-001	8.00223E-005	4	..........a	-327.66
	2751	0.5504	6.19769E-001	6.82005E-009	0.00000E+000	6.20000E-001	8.00223E-005	4	..........a	-327.66
	2752	0.5506	6.29969E-001	7.10406E-009	0.00000E+000	6.30000E-001	8.00223E-005	4	..........a	-327.66
	2753	0.5508	6.39669E-001	7.38007E-009	0.00000E+000	6.40000E-001	8.00223E-005	4	..........a	-327.66
	2754	0.551	6.49870E-001	7.66808E-009	0.00000E+000	6.50000E-001	8.00223E-005	4	..........a	-327.66
	2755	0.5512	6.59970E-001	7.94709E-009	0.00000E+000	6.60000E-001	8.00223E-005	4	..........a	-327.66
	2756	0.5514	6.69869E-001	8.23510E-009	0.00000E+000	6.70000E-001	8.00223E-005	4	..........a	-327.66
	2757	0.5516	6.79969E-001	8.52111E-009	0.00000E+000	6.80000E-001	8.00223E-005	4	..........a	-327.66
	2758	0.5518	6.89770E-001	8.80513E-009	0.00000E+000	6.90000E-001	8.00223E-005	4	..........a	-327.66
	2759	0.552	6.99869E-001	9.09514E-009	0.00000E+000	7.00000E-001	8.00223E-005	4	..........a	-327.66
	2760	0.5522	7.09870E-001	9.38215E-009	0.00000E+000	7.10000E-001	8.00223E-005	4	..........a	-327.66
	2761	0.5524	7.19769E-001	9.67416E-009	0.00000E+000	7.20000E-001	8.00223E-005	4	..........a	-327.66
	2762	0.5526	7.29869E-001	9.96617E-009	0.00000E+000	7.30000E-001	8.00223E-005	4	..........a	-327.66
	2763	0.5528	7.39869E-001	1.02572E-008	0.00000E+000	7.40000E-001	8.00223E-005	4	..........a	-327.66
	2764	0.553	7.49869E-001	1.05502E-008	0.00000E+000	7.50000E-001	8.00223E-005	4	..........a	-327.66
	2765	0.5532	7.59769E-001	1.08492E-008	0.00000E+000	7.60000E-001	8.00223E-005	4	..........a	-327.66
	2766	0.5534	7.69769E-001	1.11432E-008	0.00000E+000	7.70000E-001	8.00223E-005	4	..........a	-327.66
	2767	0.5536	7.79669E-001	1.14442E-008	0.00000E+000	7.80000E-001	8.00223E-005	4	..........a	-327.66
	2768	0.5538	7.89869E-001	1.17522E-008	0.00000E+000	7.90000E-001	8.00223E-005	4	..........a	-327.66
	2769	0.554	7.99769E-001	1.20563E-008	0.00000E+000	8.00000E-001	-3.19978E-004	4	..........a	-327.66
CURVE11	TABLE
	Pt	T	Vf	Im	Vu	Sig	Ach	IERange	Over	Temp
	#	s	V vs. Ref.	A	V	V	V	#	bits	deg C
	2770	0.5542	7.90069E-001	1.22103E-008	0.00000E+000	7.90000E-001	8.00223E-005	4	..........a	-327.66
	2771	0.5544	7.79969E-001	1.23093E-008	0.00000E+000	7.80000E-001	8.00223E-005	4	..........a	-327.66
	2772	0.5546	7.69870E-001	1.23693E-008	0.00000E+000	7.70000E-001	8.00223E-005	4	..........a	-327.66
	2773	0.5548	7.59669E-001	1.24023E-008	0.00000E+000	7.60000E-001	8.00223E-005	4	..........a	-327.66
	2774	0.555	7.49969E-001	1.24163E-008	0.00000E+000	7.50000E-001	8.00223E-005	4	..........a	-327.66
	2775	0.5552	7.40070E-001	1.24103E-008	0.00000E+000	7.40000E-001	-3.19978E-004	4	..........a	-327.66
	2776	0.5554	7.29869E-001	1.23913E-008	0.00000E+000	7.30000E-001	8.00223E-005	4	..........a	-327.66
	2777	0.5556	7.19769E-001	1.23553E-008	0.00000E+000	7.20000E-001	8.00223E-005	4	..........a	-327.66
	2778	0.5558	7.09969E-001	1.23103E-008	0.00000E+000	7.10000E-001	8.00223E-005	4	..........a	-327.66
	2779	0.556	6.99769E-001	1.22563E-008	0.00000E+000	7.00000E-001	8.00223E-005	4	..........a	-327.66
	2780	0.5562	6.89770E-001	1.21953E-008	0.00000E+000	6.90000E-001	8.00223E-005	4	..........a	-327.66
	2781	0.5564	6.79969E-001	1.21283E-008	0.00000E+000	6.80000E-001	8.00223E-005	4	..........a	-327.66
	2782	0.5566	6.69969E-001	1.20532E-008	0.00000E+000	6.70000E-001	8.00223E-005	4	..........a	-327.66
	2783	0.5568	6.60069E-001	1.19742E-008	0.00000E+000	6.60000E-001	-3.19978E-004	4	..........a	-327.66
	2784	0.557	6.49669E-001	1.18942E-008	0.00000E+000	6.50000E-001	-3.19978E-004	4	..........a	-327.66
	2785	0.5572	6.39669E-001	1.18082E-008	0.00000E+000	6.40000E-001	-1.19978E-004	4	..........a	-327.66
	2786	0.5574	6.29869E-001	1.17102E-008	0.00000E+000	6.30000E-001	8.00223E-005	4	..........a	-327.66
	2787	0.5576	6.19769E-001	1.16172E-008	0.00000E+000	6.20000E-001	8.00223E-005	4	..........a	-327.66
	2788	0.5578	6.09670E-001	1.15132E-008	0.00000E+000	6.10000E-001	8.00223E-005	4	..........a	-327.66
	2789	0.558	5.99769E-001	1.14062E-008	0.00000E+000	6.00000E-001	8.00223E-005	4	..........a	-327.66
	2790	0.5582	5.89869E-001	1.13042E-008	0.00000E+000	5.90000E-001	8.00223E-005	4	..........a	-327.66
	2791	0.5584	5.79669E-001	1.11902E-008	0.00000E+000	5.80000E-001	8.00223E-005	4	..........a	-327.66
	2792	0.5586	5.69869E-001	1.10772E-008	0.00000E+000	5.70000E-001	8.00223E-005	4	..........a	-327.66
	2793	0.5588	5.59969E-001	1.09612E-008	0.00000E+000	5.60000E-001	8.00223E-005	4	..........a	-327.66
	2794	0.559	5.50070E-001	1.08372E-008	0.00000E+000	5.50000E-001	-3.19978E-004	4	..........a	-327.66
	2795	0.5592	5.39869E-001	1.07102E-008	0.00000E+000	5.40000E-001	8.00223E-005	4	..........a	-327.66
	2796	0.5594	5.29869E-001	1.05862E-008	0.00000E+000	5.30000E-001	8.00223E-005	4	..........a	-327.66
	2797	0.5596	5.20069E-001	1.04522E-008	0.00000E+000	5.20000E-001	8.00223E-005	4	..........a	-327.66
	2798	0.5598	5.09820E-001	1.03132E-008	0.00000E+000	5.10000E-001	-3.19978E-004	4	..........a	-327.66
	2799	0.56	4.99770E-001	1.01732E-008	0.00000E+000	5.00000E-001	8.00223E-005	4	..........a	-327.66
	2800	0.5602	4.89870E-001	1.00342E-008	0.00000E+000	4.90000E-001	8.00223E-005	4	..........a	-327.66