File: example_project/raw_outputs/20240522_G_GM0016_HL03_E02_CV50.DTA
EXPLAIN
TAG	CV
TITLE	LABEL	Cyclic Voltammetry	Test &Identifier
DATE	LABEL	5/22/2024	Date
TIME	LABEL	17:11:16	Time
NOTES	NOTES	1	&Notes...

PSTAT	PSTAT	REF600P-43058	Potentiostat
VINIT	POTEN	0.00000E+000	T	Initial &E (V)
VLIMIT1	POTEN	8.00000E-001	F	Scan Limit &1 (V)
VLIMIT2	POTEN	-6.00000E-001	F	Scan Limit &2 (V)
VFINAL	POTEN	0.00000E+000	T	Final &E (V)
SCANRATE	QUANT	4.99999E+001	&Scan Rate (mV/s)
STEPSIZE	QUANT	1.00000E+001	St&ep Size (mV)
CYCLES	IQUANT	4	C&ycles (#)
IMODE	SELECTOR	0	I/E Range &Mode
IRANGE	QUANT	1.00000E-005	&Max Current (mA)
AREA	QUANT	1.00000E+000	Electrode &Area (cm^2)
ELECTRODETYPE	SELECTOR	0	Electrode Type
STRIPPING	TOGGLE	F	Used for Stripping
POLARITY	TOGGLE	F	Signal Polarity
CONDIT	TWOPARAM	F	1.50000E+001	0.00000E+000	Conditionin&g	Time(s)	E(V)
DELAY	TWOPARAM	T	1.00000E+001	0.00000E+000	Init. De&lay	Time(s)	Stab.(mV/s)
EQDELAY	QUANT	5.00000E+000	Equil. &Time (s)
IRCOMP	SELECTOR	0	IRCom&p
PFCOR	QUANT	5.00000E+001	PF Corr. (ohm)
SAMPLINGMODE	SELECTOR	1	Sampling &Mode
OCVCURVE	TABLE	39
	Pt	T	Vf	Vm	Ach	Over	Temp
	#	s	V vs. Ref.	V	V	bits	deg C
	0	0.258333	-1.72431E-001	-1.72431E-001	2.38792E-004	..........a	-327.66
	1	0.516667	-1.72431E-001	-1.72435E-001	2.41459E-004	..........a	-327.66
	2	0.775	-1.72431E-001	-1.72433E-001	2.37926E-004	..........a	-327.66
	3	1.03333	-1.72432E-001	-1.72432E-001	2.42326E-004	..........a	-327.66
	4	1.29167	-1.72432E-001	-1.72429E-001	2.42459E-004	..........a	-327.66
	5	1.55	-1.72432E-001	-1.72428E-001	2.43192E-004	..........a	-327.66
	6	1.80833	-1.72431E-001	-1.72424E-001	2.29192E-004	..........a	-327.66
	7	2.06667	-1.72430E-001	-1.72426E-001	2.42459E-004	..........a	-327.66
	8	2.325	-1.72428E-001	-1.72423E-001	2.45526E-004	..........a	-327.66
	9	2.58333	-1.72426E-001	-1.72423E-001	2.42259E-004	..........a	-327.66
	10	2.84167	-1.72425E-001	-1.72421E-001	2.44859E-004	..........a	-327.66
	11	3.1	-1.72424E-001	-1.72421E-001	2.33792E-004	..........a	-327.66
	12	3.35833	-1.72423E-001	-1.72420E-001	2.34459E-004	..........a	-327.66
	13	3.61667	-1.72422E-001	-1.72420E-001	2.41326E-004	..........a	-327.66
	14	3.875	-1.72421E-001	-1.72417E-001	2.25192E-004	..........a	-327.66
	15	4.13333	-1.72420E-001	-1.72416E-001	2.26792E-004	..........a	-327.66
	16	4.39167	-1.72419E-001	-1.72413E-001	2.33726E-004	..........a	-327.66
	17	4.65	-1.72417E-001	-1.72411E-001	2.27059E-004	..........a	-327.66
	18	4.90833	-1.72415E-001	-1.72408E-001	2.27592E-004	..........a	-327.66
	19	5.16667	-1.72413E-001	-1.72408E-001	2.21726E-004	..........a	-327.66
	20	5.425	-1.72411E-001	-1.72408E-001	2.24659E-004	..........a	-327.66
	21	5.68333	-1.72410E-001	-1.72409E-001	2.42592E-004	..........a	-327.66
	22	5.94167	-1.72409E-001	-1.72406E-001	2.26459E-004	..........a	-327.66
	23	6.2	-1.72408E-001	-1.72407E-001	2.24726E-004	..........a	-327.66
	24	6.45833	-1.72408E-001	-1.72408E-001	2.30059E-004	..........a	-327.66
	25	6.71667	-1.72407E-001	-1.72405E-001	2.27926E-004	..........a	-327.66
	26	6.975	-1.72407E-001	-1.72405E-001	2.36126E-004	..........a	-327.66
	27	7.23333	-1.72407E-001	-1.72403E-001	2.28126E-004	..........a	-327.66
	28	7.49167	-1.72406E-001	-1.72405E-001	2.29592E-004	..........a	-327.66
	29	7.75	-1.72405E-001	-1.72404E-001	2.19792E-004	..........a	-327.66
	30	8.00833	-1.72405E-001	-1.72405E-001	2.19926E-004	..........a	-327.66
	31	8.26667	-1.72404E-001	-1.72402E-001	2.20326E-004	..........a	-327.66
	32	8.525	-1.72404E-001	-1.72403E-001	2.30992E-004	..........a	-327.66
	33	8.78333	-1.72404E-001	-1.72401E-001	2.20659E-004	..........a	-327.66
	34	9.04167	-1.72403E-001	-1.72403E-001	2.26992E-004	..........a	-327.66
	35	9.3	-1.72403E-001	-1.72403E-001	2.22392E-004	..........a	-327.66
	36	9.5583	-1.72403E-001	-1.72403E-001	2.23059E-004	..........a	-327.66
	37	9.8167	-1.72403E-001	-1.72401E-001	2.32459E-004	..........a	-327.66
	38	10.075	-1.72403E-001	-1.72404E-001	2.34992E-004	..........a	-327.66
EOC	QUANT	-0.1724027	Open Circuit (V)
PSTATMODEL	IQUANT	7	Pstat Model
PSTATSECTION	LABEL	REF600P-43058	Pstat Section
PSTATSERIALNO	LABEL	43058	Pstat Serial Number
CTRLMODE	IQUANT	1	Control Mode
ELECTROMETER	IQUANT	0	RE=0 or CS=1
IESTAB	IQUANT	2	I/E Stability
CASPEED	IQUANT	4	Control Amp Speed
CONVENTION	IQUANT	1	Current Convention
ICHRANGE	IQUANT	2	Ich Range
ICHRANGEMODE	TOGGLE	F	Ich Auto Range
ICHOFFSETENABLE	TOGGLE	F	Ich Offset Enable
ICHOFFSET	QUANT	0	Ich Offset (V)
ICHFILTER	IQUANT	2	Ich Filter
VCHRANGE	IQUANT	2	Vch Range
VCHRANGEMODE	TOGGLE	F	Vch Auto Range
VCHOFFSETENABLE	TOGGLE	F	Vch Offset Enable
VCHOFFSET	QUANT	0	Vch Offset (V)
VCHFILTER	IQUANT	2	Vch Filter
ACHRANGE	IQUANT	2	Ach Range
ACHOFFSETENABLE	TOGGLE	F	Ach Offset Enable
ACHOFFSET	QUANT	0	Ach Offset (V)
ACHFILTER	IQUANT	1	Ach Filter
IERANGELOWERLIMIT	IQUANT	1	I/E Range Lower Limit
IERANGEMODE	TOGGLE	T	I/E AutoRange
IERANGE	IQUANT	4	I/E Range
POSFEEDENABLE	TOGGLE	F	Positive Feedback IR Comp
POSFEEDRESISTANCE	QUANT	0	Positive Feedback Resistance (ohm)
ACHSELECT	IQUANT	4	Ach Select
SENSECABLEID	IQUANT	7	Sense Cable ID
PWRCABLEID	IQUANT	7	Power Cable ID
DCCALDATE	LABEL	3/22/2024	DC Calibration Date
ACCALDATE	LABEL	3/22/2024	AC Calibration Date
THERMOSELECT	IQUANT	1	Thermo Select
FRAMEWORKVERSION	LABEL	7.8.4	Framework Version
INSTRUMENTVERSION	LABEL	4.42	Instrument Version
CURVE1	TABLE
	Pt	T	Vf	Im	Vu	Sig	Ach	IERange	Over	Temp
	#	s	V vs. Ref.	A	V	V	V	#	bits	deg C
	0	0.2	-1.72349E-001	1.17161E-010	0.00000E+000	-1.72400E-001	9.87192E-004	5	..........a	-327.66
	1	0.4	-1.62293E-001	9.55081E-009	0.00000E+000	-1.62400E-001	9.93092E-004	5	..........a	-327.66
	2	0.6	-1.52346E-001	1.54256E-008	0.00000E+000	-1.52400E-001	9.82792E-004	5	..........a	-327.66
	3	0.8	-1.42362E-001	1.97803E-008	0.00000E+000	-1.42400E-001	9.96492E-004	5	..........a	-327.66
	4	1	-1.32432E-001	2.33074E-008	0.00000E+000	-1.32400E-001	9.83292E-004	5	..........a	-327.66
	5	1.2	-1.22357E-001	2.63284E-008	0.00000E+000	-1.22400E-001	9.88692E-004	5	..........a	-327.66
	6	1.4	-1.12358E-001	2.90454E-008	0.00000E+000	-1.12400E-001	1.00009E-003	5	..........a	-327.66
	7	1.6	-1.02427E-001	3.15721E-008	0.00000E+000	-1.02400E-001	9.86292E-004	5	..........a	-327.66
	8	1.8	-9.23785E-002	3.39630E-008	0.00000E+000	-9.24000E-002	9.72592E-004	5	..........a	-327.66
	9	2	-8.23100E-002	3.62931E-008	0.00000E+000	-8.24000E-002	9.73992E-004	5	..........a	-327.66
	10	2.2	-7.23647E-002	3.85691E-008	0.00000E+000	-7.24000E-002	9.99692E-004	5	..........a	-327.66
	11	2.4	-6.23109E-002	4.08473E-008	0.00000E+000	-6.24000E-002	9.88692E-004	5	..........a	-327.66
	12	2.6	-5.23958E-002	4.31584E-008	0.00000E+000	-5.24000E-002	9.80492E-004	5	..........a	-327.66
	13	2.8	-4.23607E-002	4.54633E-008	0.00000E+000	-4.24000E-002	9.76892E-004	5	..........a	-327.66
	14	3	-3.23967E-002	4.77723E-008	0.00000E+000	-3.24000E-002	9.84692E-004	5	..........a	-327.66
	15	3.2	-2.24216E-002	5.01484E-008	0.00000E+000	-2.24000E-002	9.93192E-004	5	..........a	-327.66
	16	3.4	-1.23579E-002	5.25450E-008	0.00000E+000	-1.24000E-002	9.94692E-004	5	..........a	-327.66
	17	3.6	-2.37461E-003	5.49783E-008	0.00000E+000	-2.40000E-003	9.84892E-004	5	..........a	-327.66
	18	3.8	7.66999E-003	5.74387E-008	0.00000E+000	7.60000E-003	9.83692E-004	5	..........a	-327.66
	19	4	1.75437E-002	5.98872E-008	0.00000E+000	1.76000E-002	9.80392E-004	5	..........a	-327.66
	20	4.2	2.75994E-002	6.23984E-008	0.00000E+000	2.76000E-002	9.90792E-004	5	..........a	-327.66
	21	4.4	3.76540E-002	6.49585E-008	0.00000E+000	3.76000E-002	9.75592E-004	5	..........a	-327.66
	22	4.6	4.76113E-002	6.75160E-008	0.00000E+000	4.76000E-002	9.81492E-004	5	..........a	-327.66
	23	4.8	5.75780E-002	7.00921E-008	0.00000E+000	5.76000E-002	9.97892E-004	5	..........a	-327.66
	24	5	6.76329E-002	7.26997E-008	0.00000E+000	6.76000E-002	9.83292E-004	5	..........a	-327.66
	25	5.2	7.76172E-002	7.52938E-008	0.00000E+000	7.76000E-002	9.80292E-004	5	..........a	-327.66
	26	5.4	8.76676E-002	7.78732E-008	0.00000E+000	8.76000E-002	9.91592E-004	5	..........a	-327.66
	27	5.6	9.75538E-002	8.03794E-008	0.00000E+000	9.76000E-002	9.87792E-004	5	..........a	-327.66
	28	5.8	1.07592E-001	8.28678E-008	0.00000E+000	1.07600E-001	1.00019E-003	5	..........a	-327.66
	29	6	1.17702E-001	8.53384E-008	0.00000E+000	1.17600E-001	9.94292E-004	5	..........a	-327.66
	30	6.2	1.27582E-001	8.76556E-008	0.00000E+000	1.27600E-001	1.01579E-003	5	..........a	-327.66
	31	6.4	1.37596E-001	9.00739E-008	0.00000E+000	1.37600E-001	1.00029E-003	5	..........a	-327.66
	32	6.6	1.47577E-001	9.23577E-008	0.00000E+000	1.47600E-001	9.90892E-004	5	..........a	-327.66
	33	6.8	1.57621E-001	9.45704E-008	0.00000E+000	1.57600E-001	9.92392E-004	5	..........a	-327.66
	34	7	1.67674E-001	9.66860E-008	0.00000E+000	1.67600E-001	9.89492E-004	5	..........a	-327.66
	35	7.2	1.77555E-001	9.89610E-008	0.00000E+000	1.77600E-001	9.95892E-004	5	..........a	-327.66
	36	7.4	1.87609E-001	1.01274E-007	0.00000E+000	1.87600E-001	9.86492E-004	5	..........a	-327.66
	37	7.6	1.97652E-001	1.03585E-007	0.00000E+000	1.97600E-001	9.82192E-004	5	..........a	-327.66
	38	7.8	2.07549E-001	1.05633E-007	0.00000E+000	2.07600E-001	1.00229E-003	5	..........a	-327.66
	39	8	2.17573E-001	1.07942E-007	0.00000E+000	2.17600E-001	9.93992E-004	5	..........a	-327.66
	40	8.2	2.27508E-001	1.10309E-007	0.00000E+000	2.27600E-001	9.91692E-004	5	..........a	-327.66
	41	8.4	2.37594E-001	1.12869E-007	0.00000E+000	2.37600E-001	9.97992E-004	5	..........a	-327.66
	42	8.6	2.47551E-001	1.15136E-007	0.00000E+000	2.47600E-001	1.01739E-003	5	..........a	-327.66
	43	8.8	2.57530E-001	1.17468E-007	0.00000E+000	2.57600E-001	9.88992E-004	5	..........a	-327.66
	44	9	2.67573E-001	1.19738E-007	0.00000E+000	2.67600E-001	1.00399E-003	5	..........a	-327.66
	45	9.2	2.77569E-001	1.22105E-007	0.00000E+000	2.77600E-001	9.90892E-004	5	..........a	-327.66
	46	9.4	2.87589E-001	1.24357E-007	0.00000E+000	2.87600E-001	1.00469E-003	5	..........a	-327.66
	47	9.6	2.97505E-001	1.26718E-007	0.00000E+000	2.97600E-001	9.94892E-004	5	..........a	-327.66
	48	9.8	3.07536E-001	1.29087E-007	0.00000E+000	3.07600E-001	9.86792E-004	5	..........a	-327.66
	49	10	3.17569E-001	1.31484E-007	0.00000E+000	3.17600E-001	1.00779E-003	5	..........a	-327.66
	50	10.2	3.27577E-001	1.33786E-007	0.00000E+000	3.27600E-001	9.91992E-004	5	..........a	-327.66
	51	10.4	3.37525E-001	1.36117E-007	0.00000E+000	3.37600E-001	1.01309E-003	5	..........a	-327.66
	52	10.6	3.47541E-001	1.38535E-007	0.00000E+000	3.47600E-001	9.85192E-004	5	..........a	-327.66
	53	10.8	3.57560E-001	1.40828E-007	0.00000E+000	3.57600E-001	9.93392E-004	5	..........a	-327.66
	54	11	3.67612E-001	1.43248E-007	0.00000E+000	3.67600E-001	1.00139E-003	5	..........a	-327.66
	55	11.2	3.77494E-001	1.45385E-007	0.00000E+000	3.77600E-001	9.99892E-004	5	..........a	-327.66
	56	11.4	3.87530E-001	1.47520E-007	0.00000E+000	3.87600E-001	1.00249E-003	5	..........a	-327.66
	57	11.6	3.97596E-001	1.49380E-007	0.00000E+000	3.97600E-001	9.65392E-004	5	..........a	-327.66
	58	11.8	4.07568E-001	1.51160E-007	0.00000E+000	4.07600E-001	9.90192E-004	5	..........a	-327.66
	59	12	4.17517E-001	1.52864E-007	0.00000E+000	4.17600E-001	9.72792E-004	5	..........a	-327.66
	60	12.2	4.27506E-001	1.54648E-007	0.00000E+000	4.27600E-001	9.91192E-004	5	..........a	-327.66
	61	12.4	4.37520E-001	1.56481E-007	0.00000E+000	4.37600E-001	9.94392E-004	5	..........a	-327.66
	62	12.6	4.47567E-001	1.58433E-007	0.00000E+000	4.47600E-001	9.89392E-004	5	..........a	-327.66
	63	12.8	4.57507E-001	1.60197E-007	0.00000E+000	4.57600E-001	1.00479E-003	5	..........a	-327.66
	64	13	4.67475E-001	1.61959E-007	0.00000E+000	4.67600E-001	9.93892E-004	5	..........a	-327.66
	65	13.2	4.77533E-001	1.63871E-007	0.00000E+000	4.77600E-001	9.80492E-004	5	..........a	-327.66
	66	13.4	4.87536E-001	1.65970E-007	0.00000E+000	4.87600E-001	9.75292E-004	5	..........a	-327.66
	67	13.6	4.97498E-001	1.68026E-007	0.00000E+000	4.97600E-001	9.93092E-004	5	..........a	-327.66
	68	13.8	5.07481E-001	1.69954E-007	0.00000E+000	5.07600E-001	1.00809E-003	5	..........a	-327.66
	69	14	5.17497E-001	1.72028E-007	0.00000E+000	5.17600E-001	9.81792E-004	5	..........a	-327.66
	70	14.2	5.27606E-001	1.73814E-007	0.00000E+000	5.27600E-001	1.00429E-003	5	..........a	-327.66
	71	14.4	5.37473E-001	1.75536E-007	0.00000E+000	5.37600E-001	9.90592E-004	5	..........a	-327.66
	72	14.6	5.47485E-001	1.77365E-007	0.00000E+000	5.47600E-001	9.96592E-004	5	..........a	-327.66
	73	14.8	5.57517E-001	1.79287E-007	0.00000E+000	5.57600E-001	9.91292E-004	5	..........a	-327.66
	74	15	5.67553E-001	1.81128E-007	0.00000E+000	5.67600E-001	1.00959E-003	5	..........a	-327.66
	75	15.2	5.77539E-001	1.82712E-007	0.00000E+000	5.77600E-001	1.00179E-003	5	..........a	-327.66
	76	15.4	5.87472E-001	1.84623E-007	0.00000E+000	5.87600E-001	1.00549E-003	5	..........a	-327.66
	77	15.6	5.97501E-001	1.86263E-007	0.00000E+000	5.97600E-001	9.75292E-004	5	..........a	-327.66
	78	15.8	6.07537E-001	1.87970E-007	0.00000E+000	6.07600E-001	1.00739E-003	5	..........a	-327.66
	79	16	6.17460E-001	1.89691E-007	0.00000E+000	6.17600E-001	1.00709E-003	5	..........a	-327.66
	80	16.2	6.27466E-001	1.90121E-007	0.00000E+000	6.27600E-001	9.98692E-004	5	..........a	-327.66
	81	16.4	6.37468E-001	1.91307E-007	0.00000E+000	6.37600E-001	9.72492E-004	5	..........a	-327.66
	82	16.6	6.47536E-001	1.92881E-007	0.00000E+000	6.47600E-001	9.90092E-004	5	..........a	-327.66
	83	16.8	6.57449E-001	1.94434E-007	0.00000E+000	6.57600E-001	9.95092E-004	5	..........a	-327.66
	84	17	6.67437E-001	1.96383E-007	0.00000E+000	6.67600E-001	9.84992E-004	5	..........a	-327.66
	85	17.2	6.77445E-001	1.98195E-007	0.00000E+000	6.77600E-001	9.78192E-004	5	..........a	-327.66
	86	17.4	6.87551E-001	1.99689E-007	0.00000E+000	6.87600E-001	9.96492E-004	5	..........a	-327.66
	87	17.6	6.97445E-001	2.01399E-007	0.00000E+000	6.97600E-001	9.97192E-004	5	..........a	-327.66
	88	17.8	7.07463E-001	2.03056E-007	0.00000E+000	7.07600E-001	1.01249E-003	5	..........a	-327.66
	89	18	7.17445E-001	2.04816E-007	0.00000E+000	7.17600E-001	9.87892E-004	5	..........a	-327.66
	90	18.2	7.27521E-001	2.06757E-007	0.00000E+000	7.27600E-001	9.95192E-004	5	..........a	-327.66
	91	18.4	7.37449E-001	2.08644E-007	0.00000E+000	7.37600E-001	9.93292E-004	5	..........a	-327.66
	92	18.6	7.47456E-001	2.10627E-007	0.00000E+000	7.47600E-001	9.97292E-004	5	..........a	-327.66
	93	18.8	7.57402E-001	2.12528E-007	0.00000E+000	7.57600E-001	9.86192E-004	5	..........a	-327.66
	94	19	7.67544E-001	2.14561E-007	0.00000E+000	7.67600E-001	9.86292E-004	5	..........a	-327.66
	95	19.2	7.77443E-001	2.16551E-007	0.00000E+000	7.77600E-001	9.85892E-004	5	..........a	-327.66
	96	19.4	7.87419E-001	2.18611E-007	0.00000E+000	7.87600E-001	1.00279E-003	5	..........a	-327.66
	97	19.6	7.97443E-001	2.20749E-007	0.00000E+000	7.97600E-001	9.90192E-004	5	..........a	-327.66
	98	19.8	7.87407E-001	1.96931E-007	0.00000E+000	7.87600E-001	1.01229E-003	5	..........a	-327.66
	99	20	7.77478E-001	1.79782E-007	0.00000E+000	7.77600E-001	1.00229E-003	5	..........a	-327.66
	100	20.2	7.67544E-001	1.66020E-007	0.00000E+000	7.67600E-001	9.90692E-004	5	..........a	-327.66
	101	20.4	7.57477E-001	1.54501E-007	0.00000E+000	7.57600E-001	9.66592E-004	5	..........a	-327.66
	102	20.6	7.47481E-001	1.44466E-007	0.00000E+000	7.47600E-001	9.91792E-004	5	..........a	-327.66
	103	20.8	7.37489E-001	1.35622E-007	0.00000E+000	7.37600E-001	9.97392E-004	5	..........a	-327.66
	104	21	7.27559E-001	1.27798E-007	0.00000E+000	7.27600E-001	9.95692E-004	5	..........a	-327.66
	105	21.2	7.17485E-001	1.20777E-007	0.00000E+000	7.17600E-001	9.98492E-004	5	..........a	-327.66
	106	21.4	7.07523E-001	1.14342E-007	0.00000E+000	7.07600E-001	1.01019E-003	5	..........a	-327.66
	107	21.6	6.97497E-001	1.08493E-007	0.00000E+000	6.97600E-001	1.00299E-003	5	..........a	-327.66
	108	21.8	6.87561E-001	1.03145E-007	0.00000E+000	6.87600E-001	9.80592E-004	5	..........a	-327.66
	109	22	6.77496E-001	9.81705E-008	0.00000E+000	6.77600E-001	1.00529E-003	5	..........a	-327.66
	110	22.2	6.67497E-001	9.35659E-008	0.00000E+000	6.67600E-001	9.87592E-004	5	..........a	-327.66
	111	22.4	6.57481E-001	8.93113E-008	0.00000E+000	6.57600E-001	1.01099E-003	5	..........a	-327.66
	112	22.6	6.47564E-001	8.53104E-008	0.00000E+000	6.47600E-001	1.00429E-003	5	..........a	-327.66
	113	22.8	6.37516E-001	8.15632E-008	0.00000E+000	6.37600E-001	9.99392E-004	5	..........a	-327.66
	114	23	6.27568E-001	7.79810E-008	0.00000E+000	6.27600E-001	1.00759E-003	5	..........a	-327.66
	115	23.2	6.17499E-001	7.45871E-008	0.00000E+000	6.17600E-001	1.00229E-003	5	..........a	-327.66
	116	23.4	6.07582E-001	7.14060E-008	0.00000E+000	6.07600E-001	1.00829E-003	5	..........a	-327.66
	117	23.6	5.97576E-001	6.83630E-008	0.00000E+000	5.97600E-001	9.82992E-004	5	..........a	-327.66
	118	23.8	5.87534E-001	6.54328E-008	0.00000E+000	5.87600E-001	1.00449E-003	5	..........a	-327.66
	119	24	5.77556E-001	6.26188E-008	0.00000E+000	5.77600E-001	9.97592E-004	5	..........a	-327.66
	120	24.2	5.67575E-001	5.98975E-008	0.00000E+000	5.67600E-001	1.02109E-003	5	..........a	-327.66
	121	24.4	5.57606E-001	5.72852E-008	0.00000E+000	5.57600E-001	9.96992E-004	5	..........a	-327.66
	122	24.6	5.47569E-001	5.47667E-008	0.00000E+000	5.47600E-001	9.97592E-004	5	..........a	-327.66
	123	24.8	5.37521E-001	5.23016E-008	0.00000E+000	5.37600E-001	1.01089E-003	5	..........a	-327.66
	124	25	5.27615E-001	4.99130E-008	0.00000E+000	5.27600E-001	9.90692E-004	5	..........a	-327.66
	125	25.2	5.17578E-001	4.75756E-008	0.00000E+000	5.17600E-001	9.97492E-004	5	..........a	-327.66
	126	25.4	5.07540E-001	4.53024E-008	0.00000E+000	5.07600E-001	9.96292E-004	5	..........a	-327.66
	127	25.6	4.97568E-001	4.30666E-008	0.00000E+000	4.97600E-001	9.99492E-004	5	..........a	-327.66
	128	25.8	4.87606E-001	4.08669E-008	0.00000E+000	4.87600E-001	1.01419E-003	5	..........a	-327.66
	129	26	4.77650E-001	3.87266E-008	0.00000E+000	4.77600E-001	1.01439E-003	5	..........a	-327.66
	130	26.2	4.67572E-001	3.66038E-008	0.00000E+000	4.67600E-001	9.88992E-004	5	..........a	-327.66
	131	26.4	4.57544E-001	3.45513E-008	0.00000E+000	4.57600E-001	1.00349E-003	5	..........a	-327.66
	132	26.6	4.47643E-001	3.25123E-008	0.00000E+000	4.47600E-001	9.97892E-004	5	..........a	-327.66
	133	26.8	4.37612E-001	3.05041E-008	0.00000E+000	4.37600E-001	9.83492E-004	5	..........a	-327.66
	134	27	4.27522E-001	2.85154E-008	0.00000E+000	4.27600E-001	9.92792E-004	5	..........a	-327.66
	135	27.2	4.17592E-001	2.65630E-008	0.00000E+000	4.17600E-001	9.83092E-004	5	..........a	-327.66
	136	27.4	4.07597E-001	2.46138E-008	0.00000E+000	4.07600E-001	1.00149E-003	5	..........a	-327.66
	137	27.6	3.97719E-001	2.27238E-008	0.00000E+000	3.97600E-001	1.00269E-003	5	..........a	-327.66
	138	27.8	3.87584E-001	2.07837E-008	0.00000E+000	3.87600E-001	9.97892E-004	5	..........a	-327.66
	139	28	3.77545E-001	1.89042E-008	0.00000E+000	3.77600E-001	1.01319E-003	5	..........a	-327.66
	140	28.2	3.67655E-001	1.70365E-008	0.00000E+000	3.67600E-001	1.01529E-003	5	..........a	-327.66
	141	28.4	3.57686E-001	1.51623E-008	0.00000E+000	3.57600E-001	9.93692E-004	5	..........a	-327.66
	142	28.6	3.47588E-001	1.33165E-008	0.00000E+000	3.47600E-001	9.96692E-004	5	..........a	-327.66
	143	28.8	3.37596E-001	1.14872E-008	0.00000E+000	3.37600E-001	1.00239E-003	5	..........a	-327.66
	144	29	3.27608E-001	9.63729E-009	0.00000E+000	3.27600E-001	1.01619E-003	5	..........a	-327.66
	145	29.2	3.17650E-001	7.82285E-009	0.00000E+000	3.17600E-001	1.00049E-003	5	..........a	-327.66
	146	29.4	3.07592E-001	6.00442E-009	0.00000E+000	3.07600E-001	9.92992E-004	5	..........a	-327.66
	147	29.6	2.97572E-001	4.19765E-009	0.00000E+000	2.97600E-001	9.97692E-004	5	..........a	-327.66
	148	29.8	2.87601E-001	2.38501E-009	0.00000E+000	2.87600E-001	1.00439E-003	5	..........a	-327.66
	149	30	2.77678E-001	5.55987E-010	0.00000E+000	2.77600E-001	9.84292E-004	5	..........a	-327.66
	150	30.2	2.67621E-001	-1.24764E-009	0.00000E+000	2.67600E-001	1.00349E-003	5	..........a	-327.66
	151	30.4	2.57622E-001	-3.03758E-009	0.00000E+000	2.57600E-001	9.81892E-004	5	..........a	-327.66
	152	30.6	2.47655E-001	-4.84123E-009	0.00000E+000	2.47600E-001	9.99492E-004	5	..........a	-327.66
	153	30.8	2.37677E-001	-6.61486E-009	0.00000E+000	2.37600E-001	9.93392E-004	5	..........a	-327.66
	154	31	2.27623E-001	-8.41796E-009	0.00000E+000	2.27600E-001	9.91492E-004	5	..........a	-327.66
	155	31.2	2.17659E-001	-1.01954E-008	0.00000E+000	2.17600E-001	9.98792E-004	5	..........a	-327.66
	156	31.4	2.07619E-001	-1.19669E-008	0.00000E+000	2.07600E-001	1.01969E-003	5	..........a	-327.66
	157	31.6	1.97759E-001	-1.37541E-008	0.00000E+000	1.97600E-001	1.00269E-003	5	..........a	-327.66
	158	31.8	1.87701E-001	-1.55103E-008	0.00000E+000	1.87600E-001	9.94392E-004	5	..........a	-327.66
	159	32	1.77611E-001	-1.72610E-008	0.00000E+000	1.77600E-001	9.88892E-004	5	..........a	-327.66
	160	32.2	1.67725E-001	-1.90051E-008	0.00000E+000	1.67600E-001	9.85892E-004	5	..........a	-327.66
	161	32.4	1.57733E-001	-2.07490E-008	0.00000E+000	1.57600E-001	9.99592E-004	5	..........a	-327.66
	162	32.6	1.47652E-001	-2.24802E-008	0.00000E+000	1.47600E-001	9.87092E-004	5	..........a	-327.66
	163	32.8	1.37722E-001	-2.41718E-008	0.00000E+000	1.37600E-001	1.01039E-003	5	..........a	-327.66
	164	33	1.27668E-001	-2.58744E-008	0.00000E+000	1.27600E-001	9.92692E-004	5	..........a	-327.66
	165	33.2	1.17779E-001	-2.75551E-008	0.00000E+000	1.17600E-001	9.70992E-004	5	..........a	-327.66
	166	33.4	1.07686E-001	-2.92327E-008	0.00000E+000	1.07600E-001	9.96692E-004	5	..........a	-327.66
	167	33.6	9.76569E-002	-3.08570E-008	0.00000E+000	9.76000E-002	1.01669E-003	5	..........a	-327.66
	168	33.8	8.77124E-002	-3.24989E-008	0.00000E+000	8.76000E-002	9.94292E-004	5	..........a	-327.66
	169	34	7.77221E-002	-3.40949E-008	0.00000E+000	7.76000E-002	9.87592E-004	5	..........a	-327.66
	170	34.2	6.76888E-002	-3.57115E-008	0.00000E+000	6.76000E-002	1.00059E-003	5	..........a	-327.66
	171	34.4	5.76422E-002	-3.73227E-008	0.00000E+000	5.76000E-002	1.01619E-003	5	..........a	-327.66
	172	34.6	4.76492E-002	-3.89730E-008	0.00000E+000	4.76000E-002	1.01719E-003	5	..........a	-327.66
	173	34.8	3.77366E-002	-4.05978E-008	0.00000E+000	3.76000E-002	9.92992E-004	5	..........a	-327.66
	174	35	2.76520E-002	-4.21813E-008	0.00000E+000	2.76000E-002	9.98992E-004	5	..........a	-327.66
	175	35.2	1.76402E-002	-4.37055E-008	0.00000E+000	1.76000E-002	1.00409E-003	5	..........a	-327.66
	176	35.4	7.73469E-003	-4.51862E-008	0.00000E+000	7.60000E-003	9.99192E-004	5	..........a	-327.66
	177	35.6	-2.26901E-003	-4.66532E-008	0.00000E+000	-2.40000E-003	9.73592E-004	5	..........a	-327.66
	178	35.8	-1.23175E-002	-4.80816E-008	0.00000E+000	-1.24000E-002	9.79592E-004	5	..........a	-327.66
	179	36	-2.23297E-002	-4.94608E-008	0.00000E+000	-2.24000E-002	9.92392E-004	5	..........a	-327.66
	180	36.2	-3.23205E-002	-5.08580E-008	0.00000E+000	-3.24000E-002	1.01709E-003	5	..........a	-327.66
	181	36.4	-4.22872E-002	-5.21752E-008	0.00000E+000	-4.24000E-002	9.85492E-004	5	..........a	-327.66
	182	36.6	-5.23428E-002	-5.34583E-008	0.00000E+000	-5.24000E-002	9.97592E-004	5	..........a	-327.66
	183	36.8	-6.22205E-002	-5.47557E-008	0.00000E+000	-6.24000E-002	1.00249E-003	5	..........a	-327.66
	184	37	-7.22875E-002	-5.60534E-008	0.00000E+000	-7.24000E-002	1.00479E-003	5	..........a	-327.66
	185	37.2	-8.22249E-002	-5.73290E-008	0.00000E+000	-8.24000E-002	9.96092E-004	5	..........a	-327.66
	186	37.4	-9.23044E-002	-5.86647E-008	0.00000E+000	-9.24000E-002	9.92792E-004	5	..........a	-327.66
	187	37.6	-1.02350E-001	-6.00833E-008	0.00000E+000	-1.02400E-001	9.97492E-004	5	..........a	-327.66
	188	37.8	-1.12281E-001	-6.15170E-008	0.00000E+000	-1.12400E-001	9.93592E-004	5	..........a	-327.66
	189	38	-1.22298E-001	-6.30339E-008	0.00000E+000	-1.22400E-001	9.97792E-004	5	..........a	-327.66
	190	38.2	-1.32328E-001	-6.44671E-008	0.00000E+000	-1.32400E-001	1.01799E-003	5	..........a	-327.66
	191	38.4	-1.42278E-001	-6.58212E-008	0.00000E+000	-1.42400E-001	9.99392E-004	5	..........a	-327.66
	192	38.6	-1.52299E-001	-6.71023E-008	0.00000E+000	-1.52400E-001	1.00979E-003	5	..........a	-327.66
	193	38.8	-1.62212E-001	-6.83404E-008	0.00000E+000	-1.62400E-001	1.00199E-003	5	..........a	-327.66
	194	39	-1.72309E-001	-6.95567E-008	0.00000E+000	-1.72400E-001	9.94492E-004	5	..........a	-327.66
	195	39.2	-1.82337E-001	-7.07113E-008	0.00000E+000	-1.82400E-001	1.00739E-003	5	..........a	-327.66
	196	39.4	-1.92274E-001	-7.18863E-008	0.00000E+000	-1.92400E-001	9.86792E-004	5	..........a	-327.66
	197	39.6	-2.02267E-001	-7.30431E-008	0.00000E+000	-2.02400E-001	9.81592E-004	5	..........a	-327.66
	198	39.8	-2.12303E-001	-7.41474E-008	0.00000E+000	-2.12400E-001	9.89592E-004	5	..........a	-327.66
	199	40	-2.22261E-001	-7.52776E-008	0.00000E+000	-2.22400E-001	9.90892E-004	5	..........a	-327.66
	200	40.2	-2.32282E-001	-7.64246E-008	0.00000E+000	-2.32400E-001	1.00419E-003	5	..........a	-327.66
	201	40.4	-2.42187E-001	-7.75460E-008	0.00000E+000	-2.42400E-001	9.95692E-004	5	..........a	-327.66
	202	40.6	-2.52307E-001	-7.87354E-008	0.00000E+000	-2.52400E-001	9.88192E-004	5	..........a	-327.66
	203	40.8	-2.62328E-001	-7.99759E-008	0.00000E+000	-2.62400E-001	9.92492E-004	5	..........a	-327.66
	204	41	-2.72242E-001	-8.11813E-008	0.00000E+000	-2.72400E-001	1.00399E-003	5	..........a	-327.66
	205	41.2	-2.82199E-001	-8.25187E-008	0.00000E+000	-2.82400E-001	9.79592E-004	5	..........a	-327.66
	206	41.4	-2.92293E-001	-8.38394E-008	0.00000E+000	-2.92400E-001	9.94292E-004	5	..........a	-327.66
	207	41.6	-3.02258E-001	-8.52449E-008	0.00000E+000	-3.02400E-001	9.79292E-004	5	..........a	-327.66
	208	41.8	-3.12263E-001	-8.66657E-008	0.00000E+000	-3.12400E-001	9.79692E-004	5	..........a	-327.66
	209	42	-3.22246E-001	-8.82527E-008	0.00000E+000	-3.22400E-001	9.95292E-004	5	..........a	-327.66
	210	42.2	-3.32302E-001	-8.99715E-008	0.00000E+000	-3.32400E-001	9.98992E-004	5	..........a	-327.66
	211	42.4	-3.42255E-001	-9.17259E-008	0.00000E+000	-3.42400E-001	9.70792E-004	5	..........a	-327.66
	212	42.6	-3.52265E-001	-9.34129E-008	0.00000E+000	-3.52400E-001	1.00089E-003	5	..........a	-327.66
	213	42.8	-3.62164E-001	-9.50253E-008	0.00000E+000	-3.62400E-001	9.85692E-004	5	..........a	-327.66
	214	43	-3.72242E-001	-9.66664E-008	0.00000E+000	-3.72400E-001	9.88392E-004	5	..........a	-327.66
	215	43.2	-3.82293E-001	-9.83245E-008	0.00000E+000	-3.82400E-001	1.00469E-003	5	..........a	-327.66
	216	43.4	-3.92309E-001	-1.00105E-007	0.00000E+000	-3.92400E-001	1.01179E-003	5	..........a	-327.66
	217	43.6	-4.02209E-001	-1.01953E-007	0.00000E+000	-4.02400E-001	9.87192E-004	5	..........a	-327.66
	218	43.8	-4.12246E-001	-1.03991E-007	0.00000E+000	-4.12400E-001	1.00499E-003	5	..........a	-327.66
	219	44	-4.22195E-001	-1.05986E-007	0.00000E+000	-4.22400E-001	9.97092E-004	5	..........a	-327.66
	220	44.2	-4.32236E-001	-1.08123E-007	0.00000E+000	-4.32400E-001	9.91792E-004	5	..........a	-327.66
	221	44.4	-4.42122E-001	-1.10434E-007	0.00000E+000	-4.42400E-001	1.00979E-003	5	..........a	-327.66
	222	44.6	-4.52217E-001	-1.12518E-007	0.00000E+000	-4.52400E-001	9.83492E-004	5	..........a	-327.66
	223	44.8	-4.62246E-001	-1.14718E-007	0.00000E+000	-4.62400E-001	1.01349E-003	5	..........a	-327.66
	224	45	-4.72216E-001	-1.16957E-007	0.00000E+000	-4.72400E-001	9.97392E-004	5	..........a	-327.66
	225	45.2	-4.82148E-001	-1.19251E-007	0.00000E+000	-4.82400E-001	9.98792E-004	5	..........a	-327.66
	226	45.4	-4.92216E-001	-1.21632E-007	0.00000E+000	-4.92400E-001	1.00719E-003	5	..........a	-327.66
	227	45.6	-5.02211E-001	-1.24039E-007	0.00000E+000	-5.02400E-001	1.00119E-003	5	..........a	-327.66
	228	45.8	-5.12232E-001	-1.26447E-007	0.00000E+000	-5.12400E-001	9.93092E-004	5	..........a	-327.66
	229	46	-5.22126E-001	-1.28892E-007	0.00000E+000	-5.22400E-001	9.91392E-004	5	..........a	-327.66
	230	46.2	-5.32223E-001	-1.31335E-007	0.00000E+000	-5.32400E-001	9.94592E-004	5	..........a	-327.66
	231	46.4	-5.42236E-001	-1.33809E-007	0.00000E+000	-5.42400E-001	9.97992E-004	5	..........a	-327.66
	232	46.6	-5.52216E-001	-1.36411E-007	0.00000E+000	-5.52400E-001	9.85092E-004	5	..........a	-327.66
	233	46.8	-5.62149E-001	-1.38817E-007	0.00000E+000	-5.62400E-001	9.85592E-004	5	..........a	-327.66
	234	47	-5.72214E-001	-1.41327E-007	0.00000E+000	-5.72400E-001	9.93092E-004	5	..........a	-327.66
	235	47.2	-5.82230E-001	-1.43850E-007	0.00000E+000	-5.82400E-001	9.91392E-004	5	..........a	-327.66
	236	47.4	-5.92237E-001	-1.46375E-007	0.00000E+000	-5.92400E-001	9.91092E-004	5	..........a	-327.66
	237	47.6	-6.02187E-001	-1.48909E-007	0.00000E+000	-6.02400E-001	9.99792E-004	5	..........a	-327.66
CURVE2	TABLE
	Pt	T	Vf	Im	Vu	Sig	Ach	IERange	Over	Temp
	#	s	V vs. Ref.	A	V	V	V	#	bits	deg C
	238	47.8	-5.89829E-001	-1.25545E-007	0.00000E+000	-5.90000E-001	1.01079E-003	5	..........a	-327.66
	239	48	-5.79789E-001	-1.11917E-007	0.00000E+000	-5.80000E-001	9.84792E-004	5	..........a	-327.66
	240	48.2	-5.69836E-001	-1.00895E-007	0.00000E+000	-5.70000E-001	1.01079E-003	5	..........a	-327.66
	241	48.4	-5.59834E-001	-9.15547E-008	0.00000E+000	-5.60000E-001	9.97692E-004	5	..........a	-327.66
	242	48.6	-5.49874E-001	-8.34572E-008	0.00000E+000	-5.50000E-001	1.01489E-003	5	..........a	-327.66
	243	48.8	-5.39770E-001	-7.62612E-008	0.00000E+000	-5.40000E-001	1.00209E-003	5	..........a	-327.66
	244	49	-5.29833E-001	-6.97884E-008	0.00000E+000	-5.30000E-001	9.93392E-004	5	..........a	-327.66
	245	49.2	-5.19900E-001	-6.39043E-008	0.00000E+000	-5.20000E-001	9.87292E-004	5	..........a	-327.66
	246	49.4	-5.09880E-001	-5.85028E-008	0.00000E+000	-5.10000E-001	9.97892E-004	5	..........a	-327.66
	247	49.6	-4.99825E-001	-5.35262E-008	0.00000E+000	-5.00000E-001	9.88992E-004	5	..........a	-327.66
	248	49.8	-4.89868E-001	-4.88686E-008	0.00000E+000	-4.90000E-001	9.95792E-004	5	..........a	-327.66
	249	50	-4.79828E-001	-4.45668E-008	0.00000E+000	-4.80000E-001	1.02339E-003	5	..........a	-327.66
	250	50.2	-4.69847E-001	-4.05016E-008	0.00000E+000	-4.70000E-001	1.00339E-003	5	..........a	-327.66
	251	50.4	-4.59816E-001	-3.67018E-008	0.00000E+000	-4.60000E-001	9.88792E-004	5	..........a	-327.66
	252	50.6	-4.49845E-001	-3.31062E-008	0.00000E+000	-4.50000E-001	1.00609E-003	5	..........a	-327.66
	253	50.8	-4.39867E-001	-2.96827E-008	0.00000E+000	-4.40000E-001	9.97992E-004	5	..........a	-327.66
	254	51	-4.29871E-001	-2.64775E-008	0.00000E+000	-4.30000E-001	1.00739E-003	5	..........a	-327.66
	255	51.2	-4.19803E-001	-2.33960E-008	0.00000E+000	-4.20000E-001	9.87892E-004	5	..........a	-327.66
	256	51.4	-4.09876E-001	-2.04610E-008	0.00000E+000	-4.10000E-001	1.00109E-003	5	..........a	-327.66
	257	51.6	-3.99895E-001	-1.76360E-008	0.00000E+000	-4.00000E-001	1.00489E-003	5	..........a	-327.66
	258	51.8	-3.89923E-001	-1.49529E-008	0.00000E+000	-3.90000E-001	1.00109E-003	5	..........a	-327.66
	259	52	-3.79859E-001	-1.23473E-008	0.00000E+000	-3.80000E-001	9.95692E-004	5	..........a	-327.66
	260	52.2	-3.69855E-001	-9.85673E-009	0.00000E+000	-3.70000E-001	9.86392E-004	5	..........a	-327.66
	261	52.4	-3.59941E-001	-7.42245E-009	0.00000E+000	-3.60000E-001	1.02799E-003	5	..........a	-327.66
	262	52.6	-3.49881E-001	-5.07761E-009	0.00000E+000	-3.50000E-001	1.00459E-003	5	..........a	-327.66
	263	52.8	-3.39851E-001	-2.81670E-009	0.00000E+000	-3.40000E-001	9.93392E-004	5	..........a	-327.66
	264	53	-3.29946E-001	-6.11976E-010	0.00000E+000	-3.30000E-001	1.00519E-003	5	..........a	-327.66
	265	53.2	-3.19899E-001	1.56735E-009	0.00000E+000	-3.20000E-001	1.00539E-003	5	..........a	-327.66
	266	53.4	-3.09949E-001	3.66847E-009	0.00000E+000	-3.10000E-001	9.96192E-004	5	..........a	-327.66
	267	53.6	-2.99862E-001	5.71817E-009	0.00000E+000	-3.00000E-001	9.99492E-004	5	..........a	-327.66
	268	53.8	-2.89960E-001	7.71991E-009	0.00000E+000	-2.90000E-001	1.01019E-003	5	..........a	-327.66
	269	54	-2.79956E-001	9.72243E-009	0.00000E+000	-2.80000E-001	9.96892E-004	5	..........a	-327.66
	270	54.2	-2.69883E-001	1.16628E-008	0.00000E+000	-2.70000E-001	9.93192E-004	5	..........a	-327.66
	271	54.4	-2.59837E-001	1.36023E-008	0.00000E+000	-2.60000E-001	9.72692E-004	5	..........a	-327.66
	272	54.6	-2.49907E-001	1.54890E-008	0.00000E+000	-2.50000E-001	1.01319E-003	5	..........a	-327.66
	273	54.8	-2.39956E-001	1.73976E-008	0.00000E+000	-2.40000E-001	1.00939E-003	5	..........a	-327.66
	274	55	-2.29962E-001	1.92478E-008	0.00000E+000	-2.30000E-001	1.02039E-003	5	..........a	-327.66
	275	55.2	-2.19887E-001	2.11201E-008	0.00000E+000	-2.20000E-001	9.73592E-004	5	..........a	-327.66
	276	55.4	-2.09950E-001	2.29776E-008	0.00000E+000	-2.10000E-001	1.01999E-003	5	..........a	-327.66
	277	55.6	-1.99989E-001	2.48294E-008	0.00000E+000	-2.00000E-001	1.00809E-003	5	..........a	-327.66
	278	55.8	-1.90144E-001	2.66642E-008	0.00000E+000	-1.90000E-001	9.69792E-004	5	..........a	-327.66
	279	56	-1.79951E-001	2.85127E-008	0.00000E+000	-1.80000E-001	9.93792E-004	5	..........a	-327.66
	280	56.2	-1.69913E-001	3.03628E-008	0.00000E+000	-1.70000E-001	1.02409E-003	5	..........a	-327.66
	281	56.4	-1.60006E-001	3.22332E-008	0.00000E+000	-1.60000E-001	1.02539E-003	5	..........a	-327.66
	282	56.6	-1.50007E-001	3.41243E-008	0.00000E+000	-1.50000E-001	1.00969E-003	5	..........a	-327.66
	283	56.8	-1.39925E-001	3.60306E-008	0.00000E+000	-1.40000E-001	9.80492E-004	5	..........a	-327.66
	284	57	-1.29979E-001	3.79599E-008	0.00000E+000	-1.30000E-001	1.00789E-003	5	..........a	-327.66
	285	57.2	-1.19978E-001	3.99368E-008	0.00000E+000	-1.20000E-001	1.00749E-003	5	..........a	-327.66
	286	57.4	-1.09985E-001	4.19632E-008	0.00000E+000	-1.10000E-001	1.00449E-003	5	..........a	-327.66
	287	57.6	-9.99407E-002	4.40750E-008	0.00000E+000	-1.00000E-001	9.98092E-004	5	..........a	-327.66
	288	57.8	-8.99190E-002	4.62115E-008	0.00000E+000	-9.00000E-002	1.02119E-003	5	..........a	-327.66
	289	58	-8.00233E-002	4.83969E-008	0.00000E+000	-8.00000E-002	9.99992E-004	5	..........a	-327.66
	290	58.2	-6.99568E-002	5.05264E-008	0.00000E+000	-7.00000E-002	1.01189E-003	5	..........a	-327.66
	291	58.4	-5.98890E-002	5.27049E-008	0.00000E+000	-6.00000E-002	9.70892E-004	5	..........a	-327.66
	292	58.6	-4.99697E-002	5.48728E-008	0.00000E+000	-5.00000E-002	1.01309E-003	5	..........a	-327.66
	293	58.8	-3.99493E-002	5.69940E-008	0.00000E+000	-4.00000E-002	1.01509E-003	5	..........a	-327.66
	294	59	-3.00069E-002	5.93727E-008	0.00000E+000	-3.00000E-002	1.01129E-003	5	..........a	-327.66
	295	59.2	-1.99618E-002	6.14365E-008	0.00000E+000	-2.00000E-002	9.95592E-004	5	..........a	-327.66
	296	59.4	-9.94101E-003	6.37139E-008	0.00000E+000	-1.00000E-002	1.00159E-003	5	..........a	-327.66
	297	59.6	-2.32583E-005	6.60412E-008	0.00000E+000	7.45058E-009	1.02919E-003	5	..........a	-327.66
	298	59.8	1.00635E-002	6.84032E-008	0.00000E+000	1.00000E-002	1.01219E-003	5	..........a	-327.66
	299	60	2.01007E-002	7.07276E-008	0.00000E+000	2.00000E-002	1.00859E-003	5	..........a	-327.66
	300	60.2	3.00138E-002	7.31756E-008	0.00000E+000	3.00000E-002	1.01919E-003	5	..........a	-327.66
	301	60.4	4.00429E-002	7.55150E-008	0.00000E+000	4.00000E-002	1.00029E-003	5	..........a	-327.66
	302	60.6	5.00375E-002	7.78975E-008	0.00000E+000	5.00000E-002	9.95892E-004	5	..........a	-327.66
	303	60.8	6.00322E-002	8.03027E-008	0.00000E+000	6.00000E-002	9.97692E-004	5	..........a	-327.66
	304	61	6.99643E-002	8.27188E-008	0.00000E+000	7.00000E-002	1.02569E-003	5	..........a	-327.66
	305	61.2	7.99374E-002	8.51678E-008	0.00000E+000	8.00000E-002	1.01029E-003	5	..........a	-327.66
	306	61.4	9.00603E-002	8.76336E-008	0.00000E+000	9.00000E-002	1.00959E-003	5	..........a	-327.66
	307	61.6	1.00030E-001	9.00994E-008	0.00000E+000	1.00000E-001	1.00999E-003	5	..........a	-327.66
	308	61.8	1.10044E-001	9.25707E-008	0.00000E+000	1.10000E-001	1.00549E-003	5	..........a	-327.66
	309	62	1.19947E-001	9.49484E-008	0.00000E+000	1.20000E-001	1.02689E-003	5	..........a	-327.66
	310	62.2	1.29999E-001	9.72254E-008	0.00000E+000	1.30000E-001	1.02019E-003	5	..........a	-327.66
	311	62.4	1.40052E-001	9.95852E-008	0.00000E+000	1.40000E-001	9.99692E-004	5	..........a	-327.66
	312	62.6	1.49993E-001	1.01928E-007	0.00000E+000	1.50000E-001	1.01629E-003	5	..........a	-327.66
	313	62.8	1.59975E-001	1.04130E-007	0.00000E+000	1.60000E-001	1.02189E-003	5	..........a	-327.66
	314	63	1.69999E-001	1.06179E-007	0.00000E+000	1.70000E-001	1.01109E-003	5	..........a	-327.66
	315	63.2	1.80017E-001	1.08257E-007	0.00000E+000	1.80000E-001	1.00609E-003	5	..........a	-327.66
	316	63.4	1.90051E-001	1.10179E-007	0.00000E+000	1.90000E-001	1.00869E-003	5	..........a	-327.66
	317	63.6	1.99964E-001	1.12014E-007	0.00000E+000	2.00000E-001	1.01189E-003	5	..........a	-327.66
	318	63.8	2.09970E-001	1.13714E-007	0.00000E+000	2.10000E-001	1.00149E-003	5	..........a	-327.66
	319	64	2.19932E-001	1.15210E-007	0.00000E+000	2.20000E-001	9.77292E-004	5	..........a	-327.66
	320	64.2	2.29961E-001	1.16465E-007	0.00000E+000	2.30000E-001	1.00679E-003	5	..........a	-327.66
	321	64.4	2.39986E-001	1.17782E-007	0.00000E+000	2.40000E-001	1.01989E-003	5	..........a	-327.66
	322	64.6	2.49983E-001	1.19051E-007	0.00000E+000	2.50000E-001	1.00079E-003	5	..........a	-327.66
	323	64.8	2.59976E-001	1.20789E-007	0.00000E+000	2.60000E-001	9.90392E-004	5	..........a	-327.66
	324	65	2.70046E-001	1.22418E-007	0.00000E+000	2.70000E-001	1.00319E-003	5	..........a	-327.66
	325	65.2	2.79920E-001	1.23784E-007	0.00000E+000	2.80000E-001	9.98592E-004	5	..........a	-327.66
	326	65.4	2.89948E-001	1.25184E-007	0.00000E+000	2.90000E-001	1.01989E-003	5	..........a	-327.66
	327	65.6	3.00003E-001	1.26737E-007	0.00000E+000	3.00000E-001	9.81392E-004	5	..........a	-327.66
	328	65.8	3.09988E-001	1.28257E-007	0.00000E+000	3.10000E-001	1.00079E-003	5	..........a	-327.66
	329	66	3.19975E-001	1.29784E-007	0.00000E+000	3.20000E-001	1.01319E-003	5	..........a	-327.66
	330	66.2	3.29923E-001	1.31483E-007	0.00000E+000	3.30000E-001	1.01319E-003	5	..........a	-327.66
	331	66.4	3.40006E-001	1.32977E-007	0.00000E+000	3.40000E-001	9.88992E-004	5	..........a	-327.66
	332	66.6	3.49988E-001	1.34390E-007	0.00000E+000	3.50000E-001	9.98192E-004	5	..........a	-327.66
	333	66.8	3.59928E-001	1.35934E-007	0.00000E+000	3.60000E-001	1.03239E-003	5	..........a	-327.66
	334	67	3.69976E-001	1.37448E-007	0.00000E+000	3.70000E-001	1.00839E-003	5	..........a	-327.66
	335	67.2	3.79981E-001	1.38813E-007	0.00000E+000	3.80000E-001	9.84592E-004	5	..........a	-327.66
	336	67.4	3.89994E-001	1.40252E-007	0.00000E+000	3.90000E-001	9.98292E-004	5	..........a	-327.66
	337	67.6	3.99915E-001	1.41618E-007	0.00000E+000	4.00000E-001	1.00759E-003	5	..........a	-327.66
	338	67.8	4.09928E-001	1.42935E-007	0.00000E+000	4.10000E-001	1.01379E-003	5	..........a	-327.66
	339	68	4.19943E-001	1.44241E-007	0.00000E+000	4.20000E-001	9.95492E-004	5	..........a	-327.66
	340	68.2	4.29944E-001	1.45636E-007	0.00000E+000	4.30000E-001	1.01999E-003	5	..........a	-327.66
	341	68.4	4.39904E-001	1.47079E-007	0.00000E+000	4.40000E-001	1.02079E-003	5	..........a	-327.66
	342	68.6	4.49900E-001	1.48492E-007	0.00000E+000	4.50000E-001	9.82892E-004	5	..........a	-327.66
	343	68.8	4.59935E-001	1.49829E-007	0.00000E+000	4.60000E-001	9.97792E-004	5	..........a	-327.66
	344	69	4.69979E-001	1.51273E-007	0.00000E+000	4.70000E-001	1.00779E-003	5	..........a	-327.66
	345	69.2	4.79884E-001	1.52635E-007	0.00000E+000	4.80000E-001	1.02139E-003	5	..........a	-327.66
	346	69.4	4.89907E-001	1.53837E-007	0.00000E+000	4.90000E-001	1.00609E-003	5	..........a	-327.66
	347	69.6	4.99978E-001	1.54976E-007	0.00000E+000	5.00000E-001	9.76792E-004	5	..........a	-327.66
	348	69.8	5.09956E-001	1.56224E-007	0.00000E+000	5.10000E-001	1.02689E-003	5	..........a	-327.66
	349	70	5.19915E-001	1.57499E-007	0.00000E+000	5.20000E-001	1.01119E-003	5	..........a	-327.66
	350	70.2	5.29928E-001	1.58869E-007	0.00000E+000	5.30000E-001	1.01549E-003	5	..........a	-327.66
	351	70.4	5.39937E-001	1.60350E-007	0.00000E+000	5.40000E-001	9.94192E-004	5	..........a	-327.66
	352	70.6	5.49973E-001	1.61816E-007	0.00000E+000	5.50000E-001	1.00799E-003	5	..........a	-327.66
	353	70.8	5.59897E-001	1.63221E-007	0.00000E+000	5.60000E-001	1.01339E-003	5	..........a	-327.66
	354	71	5.69886E-001	1.64726E-007	0.00000E+000	5.70000E-001	1.00429E-003	5	..........a	-327.66
[...]
	922	184.6	6.49882E-001	1.73665E-007	0.00000E+000	6.50000E-001	1.00299E-003	5	..........a	-327.66
	923	184.8	6.59893E-001	1.75329E-007	0.00000E+000	6.60000E-001	1.00409E-003	5	..........a	-327.66
	924	185	6.69934E-001	1.76988E-007	0.00000E+000	6.70000E-001	1.01879E-003	5	..........a	-327.66
	925	185.2	6.79923E-001	1.78606E-007	0.00000E+000	6.80000E-001	1.02069E-003	5	..........a	-327.66
	926	185.4	6.89865E-001	1.80312E-007	0.00000E+000	6.90000E-001	1.01899E-003	5	..........a	-327.66
	927	185.6	6.99872E-001	1.82074E-007	0.00000E+000	7.00000E-001	1.00209E-003	5	..........a	-327.66
	928	185.8	7.09952E-001	1.83872E-007	0.00000E+000	7.10000E-001	1.02609E-003	5	..........a	-327.66
	929	186	7.19874E-001	1.85751E-007	0.00000E+000	7.20000E-001	1.01269E-003	5	..........a	-327.66
	930	186.2	7.29847E-001	1.87656E-007	0.00000E+000	7.30000E-001	1.02559E-003	5	..........a	-327.66
	931	186.4	7.39875E-001	1.89602E-007	0.00000E+000	7.40000E-001	9.91692E-004	5	..........a	-327.66
	932	186.6	7.49943E-001	1.91623E-007	0.00000E+000	7.50000E-001	1.01249E-003	5	..........a	-327.66
	933	186.8	7.59852E-001	1.93647E-007	0.00000E+000	7.60000E-001	1.01099E-003	5	..........a	-327.66
	934	187	7.69873E-001	1.95738E-007	0.00000E+000	7.70000E-001	1.00689E-003	5	..........a	-327.66
	935	187.2	7.79855E-001	1.97917E-007	0.00000E+000	7.80000E-001	9.93792E-004	5	..........a	-327.66
	936	187.4	7.89961E-001	2.00184E-007	0.00000E+000	7.90000E-001	9.98892E-004	5	..........a	-327.66
	937	187.6	7.99845E-001	2.02526E-007	0.00000E+000	8.00000E-001	1.01609E-003	5	..........a	-327.66
	938	187.8	7.89969E-001	1.79595E-007	0.00000E+000	7.90000E-001	1.01739E-003	5	..........a	-327.66
	939	188	7.79873E-001	1.63418E-007	0.00000E+000	7.80000E-001	1.01129E-003	5	..........a	-327.66
	940	188.2	7.69898E-001	1.50600E-007	0.00000E+000	7.70000E-001	1.01649E-003	5	..........a	-327.66
	941	188.4	7.59907E-001	1.39961E-007	0.00000E+000	7.60000E-001	1.00909E-003	5	..........a	-327.66
	942	188.6	7.49958E-001	1.30848E-007	0.00000E+000	7.50000E-001	9.88392E-004	5	..........a	-327.66
	943	188.8	7.39895E-001	1.22857E-007	0.00000E+000	7.40000E-001	1.00529E-003	5	..........a	-327.66
	944	189	7.29874E-001	1.15807E-007	0.00000E+000	7.30000E-001	1.01739E-003	5	..........a	-327.66
	945	189.2	7.19901E-001	1.09507E-007	0.00000E+000	7.20000E-001	1.01209E-003	5	..........a	-327.66
	946	189.4	7.09967E-001	1.03793E-007	0.00000E+000	7.10000E-001	1.02709E-003	5	..........a	-327.66
	947	189.6	6.99922E-001	9.86207E-008	0.00000E+000	7.00000E-001	1.00419E-003	5	..........a	-327.66
	948	189.8	6.89895E-001	9.38221E-008	0.00000E+000	6.90000E-001	1.02449E-003	5	..........a	-327.66
	949	190	6.79906E-001	8.94249E-008	0.00000E+000	6.80000E-001	1.00939E-003	5	..........a	-327.66
	950	190.2	6.69941E-001	8.53376E-008	0.00000E+000	6.70000E-001	1.02709E-003	5	..........a	-327.66
	951	190.4	6.59933E-001	8.14968E-008	0.00000E+000	6.60000E-001	9.94392E-004	5	..........a	-327.66
	952	190.6	6.49971E-001	7.79232E-008	0.00000E+000	6.50000E-001	1.02159E-003	5	..........a	-327.66
	953	190.8	6.39891E-001	7.45314E-008	0.00000E+000	6.40000E-001	1.00479E-003	5	..........a	-327.66
	954	191	6.30019E-001	7.13399E-008	0.00000E+000	6.30000E-001	1.02479E-003	5	..........a	-327.66
	955	191.2	6.19935E-001	6.82928E-008	0.00000E+000	6.20000E-001	9.94092E-004	5	..........a	-327.66
	956	191.4	6.09961E-001	6.53986E-008	0.00000E+000	6.10000E-001	1.02749E-003	5	..........a	-327.66
	957	191.6	5.99983E-001	6.26305E-008	0.00000E+000	6.00000E-001	9.89292E-004	5	..........a	-327.66
	958	191.8	5.90000E-001	5.99500E-008	0.00000E+000	5.90000E-001	1.01499E-003	5	..........a	-327.66
	959	192	5.80016E-001	5.73780E-008	0.00000E+000	5.80000E-001	9.74892E-004	5	..........a	-327.66
	960	192.2	5.69960E-001	5.48938E-008	0.00000E+000	5.70000E-001	1.00449E-003	5	..........a	-327.66
	961	192.4	5.59949E-001	5.24876E-008	0.00000E+000	5.60000E-001	1.00929E-003	5	..........a	-327.66
	962	192.6	5.50032E-001	5.01311E-008	0.00000E+000	5.50000E-001	1.00579E-003	5	..........a	-327.66
	963	192.8	5.40000E-001	4.78447E-008	0.00000E+000	5.40000E-001	1.00779E-003	5	..........a	-327.66
	964	193	5.29947E-001	4.56176E-008	0.00000E+000	5.30000E-001	9.93192E-004	5	..........a	-327.66
	965	193.2	5.19967E-001	4.34610E-008	0.00000E+000	5.20000E-001	1.02019E-003	5	..........a	-327.66
	966	193.4	5.09978E-001	4.12902E-008	0.00000E+000	5.10000E-001	1.01299E-003	5	..........a	-327.66
	967	193.6	5.00053E-001	3.92060E-008	0.00000E+000	5.00000E-001	1.00589E-003	5	..........a	-327.66
	968	193.8	4.89976E-001	3.71399E-008	0.00000E+000	4.90000E-001	1.02539E-003	5	..........a	-327.66
	969	194	4.79936E-001	3.51182E-008	0.00000E+000	4.80000E-001	1.01279E-003	5	..........a	-327.66
	970	194.2	4.70026E-001	3.31375E-008	0.00000E+000	4.70000E-001	1.00739E-003	5	..........a	-327.66
	971	194.4	4.60013E-001	3.11508E-008	0.00000E+000	4.60000E-001	1.01289E-003	5	..........a	-327.66
	972	194.6	4.50040E-001	2.92176E-008	0.00000E+000	4.50000E-001	1.00539E-003	5	..........a	-327.66
	973	194.8	4.39952E-001	2.72945E-008	0.00000E+000	4.40000E-001	1.01669E-003	5	..........a	-327.66
	974	195	4.29986E-001	2.54055E-008	0.00000E+000	4.30000E-001	1.03169E-003	5	..........a	-327.66
	975	195.2	4.20015E-001	2.35289E-008	0.00000E+000	4.20000E-001	1.01199E-003	5	..........a	-327.66
	976	195.4	4.09985E-001	2.16851E-008	0.00000E+000	4.10000E-001	9.96992E-004	5	..........a	-327.66
	977	195.6	4.00009E-001	1.98391E-008	0.00000E+000	4.00000E-001	1.00969E-003	5	..........a	-327.66
	978	195.8	3.90023E-001	1.80182E-008	0.00000E+000	3.90000E-001	1.01769E-003	5	..........a	-327.66
	979	196	3.80088E-001	1.62177E-008	0.00000E+000	3.80000E-001	1.00269E-003	5	..........a	-327.66
	980	196.2	3.70046E-001	1.44162E-008	0.00000E+000	3.70000E-001	9.90492E-004	5	..........a	-327.66
	981	196.4	3.59982E-001	1.26365E-008	0.00000E+000	3.60000E-001	1.00889E-003	5	..........a	-327.66
	982	196.6	3.50007E-001	1.08590E-008	0.00000E+000	3.50000E-001	1.00249E-003	5	..........a	-327.66
	983	196.8	3.40084E-001	9.11372E-009	0.00000E+000	3.40000E-001	1.00019E-003	5	..........a	-327.66
	984	197	3.29998E-001	7.36152E-009	0.00000E+000	3.30000E-001	1.00719E-003	5	..........a	-327.66
	985	197.2	3.20042E-001	5.61748E-009	0.00000E+000	3.20000E-001	1.02089E-003	5	..........a	-327.66
	986	197.4	3.10000E-001	3.88215E-009	0.00000E+000	3.10000E-001	1.02759E-003	5	..........a	-327.66
	987	197.6	3.00095E-001	2.16005E-009	0.00000E+000	3.00000E-001	1.01229E-003	5	..........a	-327.66
	988	197.8	2.90024E-001	4.28272E-010	0.00000E+000	2.90000E-001	1.01709E-003	5	..........a	-327.66
	989	198	2.79973E-001	-1.29657E-009	0.00000E+000	2.80000E-001	1.03149E-003	5	..........a	-327.66
	990	198.2	2.70108E-001	-3.01439E-009	0.00000E+000	2.70000E-001	1.01579E-003	5	..........a	-327.66
	991	198.4	2.60077E-001	-4.73529E-009	0.00000E+000	2.60000E-001	1.00899E-003	5	..........a	-327.66
	992	198.6	2.50031E-001	-6.44127E-009	0.00000E+000	2.50000E-001	1.00959E-003	5	..........a	-327.66
	993	198.8	2.40062E-001	-8.14559E-009	0.00000E+000	2.40000E-001	1.00179E-003	5	..........a	-327.66
	994	199	2.30024E-001	-9.83823E-009	0.00000E+000	2.30000E-001	1.02409E-003	5	..........a	-327.66
	995	199.2	2.20141E-001	-1.15785E-008	0.00000E+000	2.20000E-001	9.87992E-004	5	..........a	-327.66
	996	199.4	2.10031E-001	-1.33105E-008	0.00000E+000	2.10000E-001	1.01289E-003	5	..........a	-327.66
	997	199.6	2.00071E-001	-1.50326E-008	0.00000E+000	2.00000E-001	1.00059E-003	5	..........a	-327.66
	998	199.8	1.90123E-001	-1.67748E-008	0.00000E+000	1.90000E-001	9.95092E-004	5	..........a	-327.66
	999	200	1.80126E-001	-1.85318E-008	0.00000E+000	1.80000E-001	9.96092E-004	5	..........a	-327.66
	1000	200.2	1.70093E-001	-2.03031E-008	0.00000E+000	1.70000E-001	1.01259E-003	5	..........a	-327.66
	1001	200.4	1.60063E-001	-2.20837E-008	0.00000E+000	1.60000E-001	1.00389E-003	5	..........a	-327.66
	1002	200.6	1.50093E-001	-2.38546E-008	0.00000E+000	1.50000E-001	1.02039E-003	5	..........a	-327.66
	1003	200.8	1.40146E-001	-2.56358E-008	0.00000E+000	1.40000E-001	9.87492E-004	5	..........a	-327.66
	1004	201	1.30060E-001	-2.74092E-008	0.00000E+000	1.30000E-001	1.01039E-003	5	..........a	-327.66
	1005	201.2	1.20071E-001	-2.91815E-008	0.00000E+000	1.20000E-001	1.00639E-003	5	..........a	-327.66
	1006	201.4	1.10122E-001	-3.09406E-008	0.00000E+000	1.10000E-001	1.01529E-003	5	..........a	-327.66
	1007	201.6	1.00152E-001	-3.27305E-008	0.00000E+000	1.00000E-001	1.01339E-003	5	..........a	-327.66
	1008	201.8	9.01294E-002	-3.45255E-008	0.00000E+000	9.00000E-002	1.00919E-003	5	..........a	-327.66
	1009	202	8.00611E-002	-3.63430E-008	0.00000E+000	8.00000E-002	1.03349E-003	5	..........a	-327.66
	1010	202.2	7.00272E-002	-3.81734E-008	0.00000E+000	7.00000E-002	1.01979E-003	5	..........a	-327.66
	1011	202.4	6.01469E-002	-3.99073E-008	0.00000E+000	6.00000E-002	1.00839E-003	5	..........a	-327.66
	1012	202.6	5.00711E-002	-4.17468E-008	0.00000E+000	5.00000E-002	1.01049E-003	5	..........a	-327.66
	1013	202.8	4.01155E-002	-4.34724E-008	0.00000E+000	4.00000E-002	9.99492E-004	5	..........a	-327.66
	1014	203	3.01142E-002	-4.52659E-008	0.00000E+000	3.00000E-002	1.01879E-003	5	..........a	-327.66
	1015	203.2	2.02108E-002	-4.70706E-008	0.00000E+000	2.00000E-002	1.02249E-003	5	..........a	-327.66
	1016	203.4	1.01308E-002	-4.89894E-008	0.00000E+000	1.00000E-002	1.00869E-003	5	..........a	-327.66
	1017	203.6	7.52417E-005	-5.11293E-008	0.00000E+000	7.45058E-009	1.02719E-003	5	..........a	-327.66
	1018	203.8	-9.88706E-003	-5.33858E-008	0.00000E+000	-1.00000E-002	9.99892E-004	5	..........a	-327.66
	1019	204	-1.98663E-002	-5.54694E-008	0.00000E+000	-2.00000E-002	9.96892E-004	5	..........a	-327.66
	1020	204.2	-2.99161E-002	-5.73771E-008	0.00000E+000	-3.00000E-002	1.00469E-003	5	..........a	-327.66
	1021	204.4	-3.98836E-002	-5.91190E-008	0.00000E+000	-4.00000E-002	1.00839E-003	5	..........a	-327.66
	1022	204.6	-4.98694E-002	-6.07859E-008	0.00000E+000	-5.00000E-002	1.00389E-003	5	..........a	-327.66
	1023	204.8	-5.98248E-002	-6.23918E-008	0.00000E+000	-6.00000E-002	9.99092E-004	5	..........a	-327.66
	1024	205	-6.98873E-002	-6.37939E-008	0.00000E+000	-7.00000E-002	1.01539E-003	5	..........a	-327.66
	1025	205.2	-7.99004E-002	-6.51820E-008	0.00000E+000	-8.00000E-002	1.00409E-003	5	..........a	-327.66
	1026	205.4	-8.98706E-002	-6.65138E-008	0.00000E+000	-9.00000E-002	1.01459E-003	5	..........a	-327.66
	1027	205.6	-9.98496E-002	-6.77930E-008	0.00000E+000	-1.00000E-001	1.01559E-003	5	..........a	-327.66
	1028	205.8	-1.09922E-001	-6.91094E-008	0.00000E+000	-1.10000E-001	1.00309E-003	5	..........a	-327.66
	1029	206	-1.19879E-001	-7.03840E-008	0.00000E+000	-1.20000E-001	9.91592E-004	5	..........a	-327.66
	1030	206.2	-1.29901E-001	-7.16118E-008	0.00000E+000	-1.30000E-001	1.00369E-003	5	..........a	-327.66
	1031	206.4	-1.39847E-001	-7.28889E-008	0.00000E+000	-1.40000E-001	1.00859E-003	5	..........a	-327.66
	1032	206.6	-1.49923E-001	-7.41316E-008	0.00000E+000	-1.50000E-001	1.02609E-003	5	..........a	-327.66
	1033	206.8	-1.59921E-001	-7.53723E-008	0.00000E+000	-1.60000E-001	1.02809E-003	5	..........a	-327.66
	1034	207	-1.69856E-001	-7.65467E-008	0.00000E+000	-1.70000E-001	1.00819E-003	5	..........a	-327.66
	1035	207.2	-1.79833E-001	-7.77220E-008	0.00000E+000	-1.80000E-001	9.93192E-004	5	..........a	-327.66
	1036	207.4	-1.89976E-001	-7.89440E-008	0.00000E+000	-1.90000E-001	1.00609E-003	5	..........a	-327.66
	1037	207.6	-1.99918E-001	-8.02068E-008	0.00000E+000	-2.00000E-001	1.01869E-003	5	..........a	-327.66
	1038	207.8	-2.09860E-001	-8.14647E-008	0.00000E+000	-2.10000E-001	1.01189E-003	5	..........a	-327.66
	1039	208	-2.19828E-001	-8.26322E-008	0.00000E+000	-2.20000E-001	9.95792E-004	5	..........a	-327.66
	1040	208.2	-2.29895E-001	-8.38234E-008	0.00000E+000	-2.30000E-001	1.01659E-003	5	..........a	-327.66
	1041	208.4	-2.39814E-001	-8.50096E-008	0.00000E+000	-2.40000E-001	1.00519E-003	5	..........a	-327.66
	1042	208.6	-2.49837E-001	-8.62427E-008	0.00000E+000	-2.50000E-001	1.01179E-003	5	..........a	-327.66
	1043	208.8	-2.59758E-001	-8.76458E-008	0.00000E+000	-2.60000E-001	1.00099E-003	5	..........a	-327.66
	1044	209	-2.69834E-001	-8.88900E-008	0.00000E+000	-2.70000E-001	1.00579E-003	5	..........a	-327.66
	1045	209.2	-2.79862E-001	-9.00963E-008	0.00000E+000	-2.80000E-001	1.00379E-003	5	..........a	-327.66
	1046	209.4	-2.89842E-001	-9.13773E-008	0.00000E+000	-2.90000E-001	9.99792E-004	5	..........a	-327.66
	1047	209.6	-2.99812E-001	-9.25545E-008	0.00000E+000	-3.00000E-001	1.00099E-003	5	..........a	-327.66
	1048	209.8	-3.09870E-001	-9.37482E-008	0.00000E+000	-3.10000E-001	9.99792E-004	5	..........a	-327.66
	1049	210	-3.19823E-001	-9.49400E-008	0.00000E+000	-3.20000E-001	1.01489E-003	5	..........a	-327.66
	1050	210.2	-3.29847E-001	-9.63093E-008	0.00000E+000	-3.30000E-001	1.01779E-003	5	..........a	-327.66
	1051	210.4	-3.39753E-001	-9.75881E-008	0.00000E+000	-3.40000E-001	9.99292E-004	5	..........a	-327.66
	1052	210.6	-3.49850E-001	-9.89984E-008	0.00000E+000	-3.50000E-001	1.02829E-003	5	..........a	-327.66
	1053	210.8	-3.59882E-001	-1.00499E-007	0.00000E+000	-3.60000E-001	1.00029E-003	5	..........a	-327.66
	1054	211	-3.69827E-001	-1.02004E-007	0.00000E+000	-3.70000E-001	9.90592E-004	5	..........a	-327.66
	1055	211.2	-3.79783E-001	-1.03563E-007	0.00000E+000	-3.80000E-001	9.92092E-004	5	..........a	-327.66
	1056	211.4	-3.89860E-001	-1.05190E-007	0.00000E+000	-3.90000E-001	1.01609E-003	5	..........a	-327.66
	1057	211.6	-3.99813E-001	-1.06869E-007	0.00000E+000	-4.00000E-001	9.90992E-004	5	..........a	-327.66
	1058	211.8	-4.09834E-001	-1.08603E-007	0.00000E+000	-4.10000E-001	1.00569E-003	5	..........a	-327.66
	1059	212	-4.19719E-001	-1.10414E-007	0.00000E+000	-4.20000E-001	9.90792E-004	5	..........a	-327.66
	1060	212.2	-4.29816E-001	-1.12308E-007	0.00000E+000	-4.30000E-001	1.00059E-003	5	..........a	-327.66
	1061	212.4	-4.39828E-001	-1.14203E-007	0.00000E+000	-4.40000E-001	1.02439E-003	5	..........a	-327.66
	1062	212.6	-4.49811E-001	-1.16217E-007	0.00000E+000	-4.50000E-001	9.94992E-004	5	..........a	-327.66
	1063	212.8	-4.59743E-001	-1.18217E-007	0.00000E+000	-4.60000E-001	1.00179E-003	5	..........a	-327.66
	1064	213	-4.69804E-001	-1.20332E-007	0.00000E+000	-4.70000E-001	9.99592E-004	5	..........a	-327.66
	1065	213.2	-4.79798E-001	-1.22481E-007	0.00000E+000	-4.80000E-001	1.00199E-003	5	..........a	-327.66
	1066	213.4	-4.89811E-001	-1.24685E-007	0.00000E+000	-4.90000E-001	1.01719E-003	5	..........a	-327.66
	1067	213.6	-4.99778E-001	-1.26941E-007	0.00000E+000	-5.00000E-001	9.96092E-004	5	..........a	-327.66
	1068	213.8	-5.09805E-001	-1.29245E-007	0.00000E+000	-5.10000E-001	1.00309E-003	5	..........a	-327.66
	1069	214	-5.19808E-001	-1.31547E-007	0.00000E+000	-5.20000E-001	9.88692E-004	5	..........a	-327.66
	1070	214.2	-5.29809E-001	-1.33984E-007	0.00000E+000	-5.30000E-001	1.00279E-003	5	..........a	-327.66
	1071	214.4	-5.39719E-001	-1.36412E-007	0.00000E+000	-5.40000E-001	1.00009E-003	5	..........a	-327.66
	1072	214.6	-5.49822E-001	-1.38857E-007	0.00000E+000	-5.50000E-001	1.00219E-003	5	..........a	-327.66
	1073	214.8	-5.59851E-001	-1.41345E-007	0.00000E+000	-5.60000E-001	1.02189E-003	5	..........a	-327.66
	1074	215	-5.69815E-001	-1.43880E-007	0.00000E+000	-5.70000E-001	9.98092E-004	5	..........a	-327.66
	1075	215.2	-5.79750E-001	-1.46433E-007	0.00000E+000	-5.80000E-001	1.00389E-003	5	..........a	-327.66
	1076	215.4	-5.89810E-001	-1.49081E-007	0.00000E+000	-5.90000E-001	9.92092E-004	5	..........a	-327.66
	1077	215.6	-5.99875E-001	-1.51617E-007	0.00000E+000	-6.00000E-001	1.00039E-003	5	..........a	-327.66
CURVE5	TABLE
	Pt	T	Vf	Im	Vu	Sig	Ach	IERange	Over	Temp
	#	s	V vs. Ref.	A	V	V	V	#	bits	deg C
	1078	215.8	-5.89810E-001	-1.31084E-007	0.00000E+000	-5.90000E-001	1.01339E-003	5	..........a	-327.66
	1079	216	-5.79769E-001	-1.16795E-007	0.00000E+000	-5.80000E-001	1.00069E-003	5	..........a	-327.66
	1080	216.2	-5.69821E-001	-1.05444E-007	0.00000E+000	-5.70000E-001	1.02249E-003	5	..........a	-327.66
	1081	216.4	-5.59828E-001	-9.57508E-008	0.00000E+000	-5.60000E-001	9.94792E-004	5	..........a	-327.66
	1082	216.6	-5.49841E-001	-8.74024E-008	0.00000E+000	-5.50000E-001	9.91692E-004	5	..........a	-327.66
	1083	216.8	-5.39744E-001	-7.99963E-008	0.00000E+000	-5.40000E-001	1.01029E-003	5	..........a	-327.66
	1084	217	-5.29837E-001	-7.34781E-008	0.00000E+000	-5.30000E-001	1.01799E-003	5	..........a	-327.66
	1085	217.2	-5.19839E-001	-6.75282E-008	0.00000E+000	-5.20000E-001	9.96592E-004	5	..........a	-327.66
	1086	217.4	-5.09840E-001	-6.20969E-008	0.00000E+000	-5.10000E-001	1.00029E-003	5	..........a	-327.66
	1087	217.6	-4.99808E-001	-5.70670E-008	0.00000E+000	-5.00000E-001	9.88792E-004	5	..........a	-327.66
	1088	217.8	-4.89846E-001	-5.23788E-008	0.00000E+000	-4.90000E-001	1.00219E-003	5	..........a	-327.66
	1089	218	-4.79857E-001	-4.79895E-008	0.00000E+000	-4.80000E-001	1.00209E-003	5	..........a	-327.66
	1090	218.2	-4.69832E-001	-4.38805E-008	0.00000E+000	-4.70000E-001	9.91992E-004	5	..........a	-327.66
	1091	218.4	-4.59795E-001	-3.99581E-008	0.00000E+000	-4.60000E-001	9.88092E-004	5	..........a	-327.66
	1092	218.6	-4.49840E-001	-3.60649E-008	0.00000E+000	-4.50000E-001	1.01219E-003	5	..........a	-327.66
	1093	218.8	-4.39887E-001	-3.26025E-008	0.00000E+000	-4.40000E-001	1.00799E-003	5	..........a	-327.66
	1094	219	-4.29847E-001	-2.93613E-008	0.00000E+000	-4.30000E-001	1.01309E-003	5	..........a	-327.66
	1095	219.2	-4.19773E-001	-2.62822E-008	0.00000E+000	-4.20000E-001	1.00169E-003	5	..........a	-327.66
	1096	219.4	-4.09873E-001	-2.33246E-008	0.00000E+000	-4.10000E-001	1.01159E-003	5	..........a	-327.66
	1097	219.6	-3.99856E-001	-2.05087E-008	0.00000E+000	-4.00000E-001	1.00079E-003	5	..........a	-327.66
	1098	219.8	-3.89940E-001	-1.77670E-008	0.00000E+000	-3.90000E-001	1.02519E-003	5	..........a	-327.66
	1099	220	-3.79835E-001	-1.51417E-008	0.00000E+000	-3.80000E-001	1.00949E-003	5	..........a	-327.66
	1100	220.2	-3.69867E-001	-1.26009E-008	0.00000E+000	-3.70000E-001	1.01499E-003	5	..........a	-327.66
	1101	220.4	-3.59881E-001	-1.01118E-008	0.00000E+000	-3.60000E-001	1.01589E-003	5	..........a	-327.66
	1102	220.6	-3.49877E-001	-7.70280E-009	0.00000E+000	-3.50000E-001	9.97592E-004	5	..........a	-327.66
	1103	220.8	-3.39829E-001	-5.40031E-009	0.00000E+000	-3.40000E-001	9.98492E-004	5	..........a	-327.66
	1104	221	-3.29873E-001	-3.10937E-009	0.00000E+000	-3.30000E-001	1.00819E-003	5	..........a	-327.66
	1105	221.2	-3.19886E-001	-9.19358E-010	0.00000E+000	-3.20000E-001	1.00519E-003	5	..........a	-327.66
	1106	221.4	-3.09914E-001	1.26011E-009	0.00000E+000	-3.10000E-001	1.00799E-003	5	..........a	-327.66
	1107	221.6	-2.99870E-001	3.36283E-009	0.00000E+000	-3.00000E-001	9.95992E-004	5	..........a	-327.66
	1108	221.8	-2.89918E-001	5.43215E-009	0.00000E+000	-2.90000E-001	1.01139E-003	5	..........a	-327.66
	1109	222	-2.79953E-001	7.57530E-009	0.00000E+000	-2.80000E-001	1.01599E-003	5	..........a	-327.66
	1110	222.2	-2.69877E-001	9.60187E-009	0.00000E+000	-2.70000E-001	1.02479E-003	5	..........a	-327.66
	1111	222.4	-2.59814E-001	1.16247E-008	0.00000E+000	-2.60000E-001	9.94892E-004	5	..........a	-327.66
	1112	222.6	-2.49921E-001	1.35846E-008	0.00000E+000	-2.50000E-001	1.02359E-003	5	..........a	-327.66
	1113	222.8	-2.39922E-001	1.55390E-008	0.00000E+000	-2.40000E-001	1.00799E-003	5	..........a	-327.66
	1114	223	-2.29951E-001	1.74865E-008	0.00000E+000	-2.30000E-001	1.00279E-003	5	..........a	-327.66
	1115	223.2	-2.19885E-001	1.94313E-008	0.00000E+000	-2.20000E-001	9.89692E-004	5	..........a	-327.66
	1116	223.4	-2.09918E-001	2.13780E-008	0.00000E+000	-2.10000E-001	1.00959E-003	5	..........a	-327.66
	1117	223.6	-2.00003E-001	2.33181E-008	0.00000E+000	-2.00000E-001	1.00979E-003	5	..........a	-327.66
	1118	223.8	-1.89981E-001	2.52528E-008	0.00000E+000	-1.90000E-001	1.00399E-003	5	..........a	-327.66
	1119	224	-1.79918E-001	2.71605E-008	0.00000E+000	-1.80000E-001	1.00429E-003	5	..........a	-327.66
	1120	224.2	-1.69919E-001	2.91045E-008	0.00000E+000	-1.70000E-001	1.02139E-003	5	..........a	-327.66