File: example_project/raw_outputs/20240424_C_GM0016_HL03_E01_CV50.DTA
EXPLAIN
TAG	CV
TITLE	LABEL	Cyclic Voltammetry	Test &Identifier
DATE	LABEL	4/24/2024	Date
TIME	LABEL	16:38:07	Time
NOTES	NOTES	1	&Notes...

PSTAT	PSTAT	REF600P-43058	Potentiostat
VINIT	POTEN	0.00000E+000	T	Initial &E (V)
VLIMIT1	POTEN	-6.00000E-001	F	Scan Limit &1 (V)
VLIMIT2	POTEN	8.00000E-001	F	Scan Limit &2 (V)
VFINAL	POTEN	0.00000E+000	T	Final &E (V)
SCANRATE	QUANT	4.99999E+001	&Scan Rate (mV/s)
STEPSIZE	QUANT	1.00000E+001	St&ep Size (mV)
CYCLES	IQUANT	4	C&ycles (#)
IMODE	SELECTOR	0	I/E Range &Mode
IRANGE	QUANT	1.00000E-006	&Max Current (mA)
AREA	QUANT	1.00000E+000	Electrode &Area (cm^2)
ELECTRODETYPE	SELECTOR	0	Electrode Type
STRIPPING	TOGGLE	F	Used for Stripping
POLARITY	TOGGLE	F	Signal Polarity
CONDIT	TWOPARAM	F	1.50000E+001	0.00000E+000	Conditionin&g	Time(s)	E(V)
DELAY	TWOPARAM	T	1.00000E+001	0.00000E+000	Init. De&lay	Time(s)	Stab.(mV/s)
EQDELAY	QUANT	1.00000E+001	Equil. &Time (s)
IRCOMP	SELECTOR	0	IRCom&p
PFCOR	QUANT	5.00000E+001	PF Corr. (ohm)
SAMPLINGMODE	SELECTOR	1	Sampling &Mode
OCVCURVE	TABLE	39
	Pt	T	Vf	Vm	Ach	Over	Temp
	#	s	V vs. Ref.	V	V	bits	deg C
	0	0.258333	-2.38482E-001	-2.38482E-001	2.31926E-004	..........a	-327.66
	1	0.516667	-2.38458E-001	-2.37254E-001	2.22792E-004	..........a	-327.66
	2	0.775	-2.38314E-001	-2.36085E-001	2.27659E-004	..........a	-327.66
	3	1.03333	-2.37906E-001	-2.34961E-001	2.28326E-004	..........a	-327.66
	4	1.29167	-2.37175E-001	-2.33889E-001	2.21992E-004	..........a	-327.66
	5	1.55	-2.36202E-001	-2.32859E-001	2.32392E-004	..........a	-327.66
	6	1.80833	-2.35122E-001	-2.31873E-001	2.32526E-004	..........a	-327.66
	7	2.06667	-2.34033E-001	-2.30921E-001	2.24792E-004	..........a	-327.66
	8	2.325	-2.32983E-001	-2.30006E-001	2.19859E-004	..........a	-327.66
	9	2.58333	-2.31980E-001	-2.29134E-001	2.30126E-004	..........a	-327.66
	10	2.84167	-2.31022E-001	-2.28288E-001	2.22526E-004	..........a	-327.66
	11	3.1	-2.30105E-001	-2.27484E-001	2.32192E-004	..........a	-327.66
	12	3.35833	-2.29225E-001	-2.26708E-001	2.23659E-004	..........a	-327.66
	13	3.61667	-2.28380E-001	-2.25959E-001	2.32726E-004	..........a	-327.66
	14	3.875	-2.27569E-001	-2.25241E-001	2.31392E-004	..........a	-327.66
	15	4.13333	-2.26789E-001	-2.24546E-001	2.23526E-004	..........a	-327.66
	16	4.39167	-2.26038E-001	-2.23882E-001	2.29592E-004	..........a	-327.66
	17	4.65	-2.25316E-001	-2.23226E-001	2.34126E-004	..........a	-327.66
	18	4.90833	-2.24619E-001	-2.22596E-001	2.28392E-004	..........a	-327.66
	19	5.16667	-2.23945E-001	-2.21979E-001	2.27459E-004	..........a	-327.66
	20	5.425	-2.23292E-001	-2.21399E-001	2.22726E-004	..........a	-327.66
	21	5.68333	-2.22659E-001	-2.20819E-001	2.31992E-004	..........a	-327.66
	22	5.94167	-2.22046E-001	-2.20273E-001	2.34526E-004	..........a	-327.66
	23	6.2	-2.21454E-001	-2.19732E-001	2.25126E-004	..........a	-327.66
	24	6.45833	-2.20881E-001	-2.19216E-001	2.21592E-004	..........a	-327.66
	25	6.71667	-2.20326E-001	-2.18712E-001	2.35926E-004	..........a	-327.66
	26	6.975	-2.19788E-001	-2.18225E-001	2.37592E-004	..........a	-327.66
	27	7.23333	-2.19268E-001	-2.17750E-001	2.31392E-004	..........a	-327.66
	28	7.49167	-2.18762E-001	-2.17282E-001	2.20526E-004	..........a	-327.66
	29	7.75	-2.18272E-001	-2.16829E-001	2.24659E-004	..........a	-327.66
	30	8.00833	-2.17794E-001	-2.16390E-001	2.35259E-004	..........a	-327.66
	31	8.26667	-2.17328E-001	-2.15962E-001	2.39259E-004	..........a	-327.66
	32	8.525	-2.16874E-001	-2.15548E-001	2.24126E-004	..........a	-327.66
	33	8.78333	-2.16433E-001	-2.15146E-001	2.33326E-004	..........a	-327.66
	34	9.04167	-2.16005E-001	-2.14746E-001	2.24859E-004	..........a	-327.66
	35	9.3	-2.15588E-001	-2.14362E-001	2.23859E-004	..........a	-327.66
	36	9.5583	-2.15182E-001	-2.13986E-001	2.30459E-004	..........a	-327.66
	37	9.8167	-2.14786E-001	-2.13615E-001	2.29792E-004	..........a	-327.66
	38	10.075	-2.14399E-001	-2.13262E-001	2.29726E-004	..........a	-327.66
EOC	QUANT	-0.2143987	Open Circuit (V)
PSTATMODEL	IQUANT	7	Pstat Model
PSTATSECTION	LABEL	REF600P-43058	Pstat Section
PSTATSERIALNO	LABEL	43058	Pstat Serial Number
CTRLMODE	IQUANT	1	Control Mode
ELECTROMETER	IQUANT	0	RE=0 or CS=1
IESTAB	IQUANT	2	I/E Stability
CASPEED	IQUANT	4	Control Amp Speed
CONVENTION	IQUANT	1	Current Convention
ICHRANGE	IQUANT	2	Ich Range
ICHRANGEMODE	TOGGLE	F	Ich Auto Range
ICHOFFSETENABLE	TOGGLE	F	Ich Offset Enable
ICHOFFSET	QUANT	0	Ich Offset (V)
ICHFILTER	IQUANT	2	Ich Filter
VCHRANGE	IQUANT	2	Vch Range
VCHRANGEMODE	TOGGLE	F	Vch Auto Range
VCHOFFSETENABLE	TOGGLE	F	Vch Offset Enable
VCHOFFSET	QUANT	0	Vch Offset (V)
VCHFILTER	IQUANT	2	Vch Filter
ACHRANGE	IQUANT	2	Ach Range
ACHOFFSETENABLE	TOGGLE	F	Ach Offset Enable
ACHOFFSET	QUANT	0	Ach Offset (V)
ACHFILTER	IQUANT	1	Ach Filter
IERANGELOWERLIMIT	IQUANT	1	I/E Range Lower Limit
IERANGEMODE	TOGGLE	T	I/E AutoRange
IERANGE	IQUANT	3	I/E Range
POSFEEDENABLE	TOGGLE	F	Positive Feedback IR Comp
POSFEEDRESISTANCE	QUANT	0	Positive Feedback Resistance (ohm)
ACHSELECT	IQUANT	4	Ach Select
SENSECABLEID	IQUANT	7	Sense Cable ID
PWRCABLEID	IQUANT	7	Power Cable ID
DCCALDATE	LABEL	3/22/2024	DC Calibration Date
ACCALDATE	LABEL	3/22/2024	AC Calibration Date
THERMOSELECT	IQUANT	1	Thermo Select
FRAMEWORKVERSION	LABEL	7.8.4	Framework Version
INSTRUMENTVERSION	LABEL	4.42	Instrument Version
CURVE1	TABLE
	Pt	T	Vf	Im	Vu	Sig	Ach	IERange	Over	Temp
	#	s	V vs. Ref.	A	V	V	V	#	bits	deg C
	0	0.2	-2.14311E-001	-4.81701E-010	0.00000E+000	-2.14400E-001	9.80892E-004	5	..........a	-327.66
	1	0.4	-2.24279E-001	-3.04093E-009	0.00000E+000	-2.24400E-001	9.82592E-004	5	..........a	-327.66
	2	0.6	-2.34273E-001	-4.83976E-009	0.00000E+000	-2.34400E-001	9.78692E-004	5	..........a	-327.66
	3	0.8	-2.44296E-001	-6.45783E-009	0.00000E+000	-2.44400E-001	9.63392E-004	5	..........a	-327.66
	4	1	-2.54288E-001	-7.95110E-009	0.00000E+000	-2.54400E-001	9.64792E-004	5	..........a	-327.66
	5	1.2	-2.64279E-001	-9.32828E-009	0.00000E+000	-2.64400E-001	9.83992E-004	5	..........a	-327.66
	6	1.4	-2.74259E-001	-1.06637E-008	0.00000E+000	-2.74400E-001	9.73992E-004	5	..........a	-327.66
	7	1.6	-2.84325E-001	-1.19170E-008	0.00000E+000	-2.84400E-001	9.79192E-004	5	..........a	-327.66
	8	1.8	-2.94290E-001	-1.31371E-008	0.00000E+000	-2.94400E-001	9.80692E-004	5	..........a	-327.66
	9	2	-3.04279E-001	-1.43274E-008	0.00000E+000	-3.04400E-001	9.81092E-004	5	..........a	-327.66
	10	2.2	-3.14256E-001	-1.55193E-008	0.00000E+000	-3.14400E-001	9.78992E-004	5	..........a	-327.66
	11	2.4	-3.24285E-001	-1.66607E-008	0.00000E+000	-3.24400E-001	9.86192E-004	5	..........a	-327.66
	12	2.6	-3.34388E-001	-1.77896E-008	0.00000E+000	-3.34400E-001	9.89392E-004	5	..........a	-327.66
	13	2.8	-3.44243E-001	-1.89067E-008	0.00000E+000	-3.44400E-001	9.67992E-004	5	..........a	-327.66
	14	3	-3.54254E-001	-2.00289E-008	0.00000E+000	-3.54400E-001	9.77292E-004	5	..........a	-327.66
	15	3.2	-3.64282E-001	-2.11704E-008	0.00000E+000	-3.64400E-001	9.89892E-004	5	..........a	-327.66
	16	3.4	-3.74280E-001	-2.22456E-008	0.00000E+000	-3.74400E-001	9.77292E-004	5	..........a	-327.66
	17	3.6	-3.84324E-001	-2.33879E-008	0.00000E+000	-3.84400E-001	9.78792E-004	5	..........a	-327.66
	18	3.8	-3.94248E-001	-2.44662E-008	0.00000E+000	-3.94400E-001	9.71692E-004	5	..........a	-327.66
	19	4	-4.04286E-001	-2.56273E-008	0.00000E+000	-4.04400E-001	9.81992E-004	5	..........a	-327.66
	20	4.2	-4.14263E-001	-2.67570E-008	0.00000E+000	-4.14400E-001	9.95292E-004	5	..........a	-327.66
	21	4.4	-4.24254E-001	-2.79106E-008	0.00000E+000	-4.24400E-001	9.83192E-004	5	..........a	-327.66
	22	4.6	-4.34225E-001	-2.90859E-008	0.00000E+000	-4.34400E-001	9.71992E-004	5	..........a	-327.66
	23	4.8	-4.44272E-001	-3.02842E-008	0.00000E+000	-4.44400E-001	9.91792E-004	5	..........a	-327.66
	24	5	-4.54261E-001	-3.15140E-008	0.00000E+000	-4.54400E-001	9.72992E-004	5	..........a	-327.66
	25	5.2	-4.64281E-001	-3.27364E-008	0.00000E+000	-4.64400E-001	9.89392E-004	5	..........a	-327.66
	26	5.4	-4.74232E-001	-3.39803E-008	0.00000E+000	-4.74400E-001	9.81992E-004	5	..........a	-327.66
	27	5.6	-4.84253E-001	-3.52511E-008	0.00000E+000	-4.84400E-001	9.79392E-004	5	..........a	-327.66
	28	5.8	-4.94246E-001	-3.65427E-008	0.00000E+000	-4.94400E-001	9.70292E-004	5	..........a	-327.66
	29	6	-5.04258E-001	-3.78594E-008	0.00000E+000	-5.04400E-001	9.71792E-004	5	..........a	-327.66
	30	6.2	-5.14195E-001	-3.91704E-008	0.00000E+000	-5.14400E-001	9.76592E-004	5	..........a	-327.66
	31	6.4	-5.24268E-001	-4.05620E-008	0.00000E+000	-5.24400E-001	9.93292E-004	5	..........a	-327.66
	32	6.6	-5.34287E-001	-4.19350E-008	0.00000E+000	-5.34400E-001	9.85792E-004	5	..........a	-327.66
	33	6.8	-5.44316E-001	-4.33274E-008	0.00000E+000	-5.44400E-001	9.85192E-004	5	..........a	-327.66
	34	7	-5.54227E-001	-4.47364E-008	0.00000E+000	-5.54400E-001	9.72792E-004	5	..........a	-327.66
	35	7.2	-5.64264E-001	-4.61944E-008	0.00000E+000	-5.64400E-001	9.77392E-004	5	..........a	-327.66
	36	7.4	-5.74200E-001	-4.76382E-008	0.00000E+000	-5.74400E-001	9.80192E-004	5	..........a	-327.66
	37	7.6	-5.84256E-001	-4.91804E-008	0.00000E+000	-5.84400E-001	9.78992E-004	5	..........a	-327.66
	38	7.8	-5.94173E-001	-5.07092E-008	0.00000E+000	-5.94400E-001	9.80592E-004	5	..........a	-327.66
	39	8	-6.04248E-001	-5.23376E-008	0.00000E+000	-6.04400E-001	9.64192E-004	5	..........a	-327.66
	40	8.2	-5.94171E-001	-4.45056E-008	0.00000E+000	-5.94400E-001	9.70492E-004	5	..........a	-327.66
	41	8.4	-5.84262E-001	-3.96626E-008	0.00000E+000	-5.84400E-001	9.64092E-004	5	..........a	-327.66
	42	8.6	-5.74274E-001	-3.59591E-008	0.00000E+000	-5.74400E-001	9.66592E-004	5	..........a	-327.66
	43	8.8	-5.64280E-001	-3.28538E-008	0.00000E+000	-5.64400E-001	9.83992E-004	5	..........a	-327.66
	44	9	-5.54238E-001	-3.01586E-008	0.00000E+000	-5.54400E-001	9.74292E-004	5	..........a	-327.66
	45	9.2	-5.44356E-001	-2.77415E-008	0.00000E+000	-5.44400E-001	9.87192E-004	5	..........a	-327.66
	46	9.4	-5.34271E-001	-2.55754E-008	0.00000E+000	-5.34400E-001	9.89592E-004	5	..........a	-327.66
	47	9.6	-5.24264E-001	-2.35382E-008	0.00000E+000	-5.24400E-001	9.83692E-004	5	..........a	-327.66
	48	9.8	-5.14208E-001	-2.16680E-008	0.00000E+000	-5.14400E-001	9.78092E-004	5	..........a	-327.66
	49	10	-5.04256E-001	-1.98786E-008	0.00000E+000	-5.04400E-001	9.74992E-004	5	..........a	-327.66
	50	10.2	-4.94249E-001	-1.82198E-008	0.00000E+000	-4.94400E-001	9.84192E-004	5	..........a	-327.66
	51	10.4	-4.84284E-001	-1.66211E-008	0.00000E+000	-4.84400E-001	9.72892E-004	5	..........a	-327.66
	52	10.6	-4.74240E-001	-1.50503E-008	0.00000E+000	-4.74400E-001	9.71892E-004	5	..........a	-327.66
	53	10.8	-4.64248E-001	-1.36119E-008	0.00000E+000	-4.64400E-001	9.79192E-004	5	..........a	-327.66
	54	11	-4.54285E-001	-1.22057E-008	0.00000E+000	-4.54400E-001	9.99592E-004	5	..........a	-327.66
	55	11.2	-4.44274E-001	-1.08723E-008	0.00000E+000	-4.44400E-001	9.88892E-004	5	..........a	-327.66
	56	11.4	-4.34235E-001	-9.57989E-009	0.00000E+000	-4.34400E-001	9.67892E-004	5	..........a	-327.66
	57	11.6	-4.24257E-001	-8.28594E-009	0.00000E+000	-4.24400E-001	9.76192E-004	5	..........a	-327.66
	58	11.8	-4.14307E-001	-7.03482E-009	0.00000E+000	-4.14400E-001	9.86792E-004	5	..........a	-327.66
	59	12	-4.04277E-001	-5.85340E-009	0.00000E+000	-4.04400E-001	9.70892E-004	5	..........a	-327.66
	60	12.2	-3.94264E-001	-4.67671E-009	0.00000E+000	-3.94400E-001	9.85092E-004	5	..........a	-327.66
	61	12.4	-3.84253E-001	-3.50415E-009	0.00000E+000	-3.84400E-001	1.00019E-003	5	..........a	-327.66
	62	12.6	-3.74293E-001	-2.43980E-009	0.00000E+000	-3.74400E-001	9.99492E-004	5	..........a	-327.66
	63	12.8	-3.64409E-001	-1.37236E-009	0.00000E+000	-3.64400E-001	9.89792E-004	5	..........a	-327.66
	64	13	-3.54298E-001	-3.18125E-010	0.00000E+000	-3.54400E-001	9.84692E-004	5	..........a	-327.66
	65	13.2	-3.44325E-001	7.50525E-010	0.00000E+000	-3.44400E-001	9.93292E-004	5	..........a	-327.66
	66	13.4	-3.34348E-001	1.77362E-009	0.00000E+000	-3.34400E-001	9.90092E-004	5	..........a	-327.66
	67	13.6	-3.24345E-001	2.75920E-009	0.00000E+000	-3.24400E-001	9.76892E-004	5	..........a	-327.66
	68	13.8	-3.14270E-001	3.74933E-009	0.00000E+000	-3.14400E-001	9.74192E-004	5	..........a	-327.66
	69	14	-3.04305E-001	4.70928E-009	0.00000E+000	-3.04400E-001	1.00199E-003	5	..........a	-327.66
	70	14.2	-2.94275E-001	5.64495E-009	0.00000E+000	-2.94400E-001	9.98192E-004	5	..........a	-327.66
	71	14.4	-2.84300E-001	6.61307E-009	0.00000E+000	-2.84400E-001	9.77092E-004	5	..........a	-327.66
	72	14.6	-2.74307E-001	7.51492E-009	0.00000E+000	-2.74400E-001	9.89592E-004	5	..........a	-327.66
	73	14.8	-2.64343E-001	8.41942E-009	0.00000E+000	-2.64400E-001	9.91392E-004	5	..........a	-327.66
	74	15	-2.54355E-001	9.31264E-009	0.00000E+000	-2.54400E-001	9.81292E-004	5	..........a	-327.66
	75	15.2	-2.44303E-001	1.01664E-008	0.00000E+000	-2.44400E-001	9.81992E-004	5	..........a	-327.66
	76	15.4	-2.34264E-001	1.10560E-008	0.00000E+000	-2.34400E-001	9.80692E-004	5	..........a	-327.66
	77	15.6	-2.24299E-001	1.19265E-008	0.00000E+000	-2.24400E-001	9.82992E-004	5	..........a	-327.66
	78	15.8	-2.14385E-001	1.27654E-008	0.00000E+000	-2.14400E-001	9.94592E-004	5	..........a	-327.66
	79	16	-2.04380E-001	1.36339E-008	0.00000E+000	-2.04400E-001	9.88492E-004	5	..........a	-327.66
	80	16.2	-1.94327E-001	1.44542E-008	0.00000E+000	-1.94400E-001	9.75592E-004	5	..........a	-327.66
	81	16.4	-1.84338E-001	1.52853E-008	0.00000E+000	-1.84400E-001	9.87192E-004	5	..........a	-327.66
	82	16.6	-1.74366E-001	1.61138E-008	0.00000E+000	-1.74400E-001	9.97192E-004	5	..........a	-327.66
	83	16.8	-1.64442E-001	1.69593E-008	0.00000E+000	-1.64400E-001	9.83392E-004	5	..........a	-327.66
	84	17	-1.54328E-001	1.77714E-008	0.00000E+000	-1.54400E-001	9.87092E-004	5	..........a	-327.66
	85	17.2	-1.44329E-001	1.85816E-008	0.00000E+000	-1.44400E-001	9.84492E-004	5	..........a	-327.66
	86	17.4	-1.34412E-001	1.94005E-008	0.00000E+000	-1.34400E-001	9.83392E-004	5	..........a	-327.66
	87	17.6	-1.24403E-001	2.02027E-008	0.00000E+000	-1.24400E-001	9.94492E-004	5	..........a	-327.66
	88	17.8	-1.14367E-001	2.10294E-008	0.00000E+000	-1.14400E-001	9.76492E-004	5	..........a	-327.66
	89	18	-1.04370E-001	2.18190E-008	0.00000E+000	-1.04400E-001	1.00329E-003	5	..........a	-327.66
	90	18.2	-9.43335E-002	2.26440E-008	0.00000E+000	-9.44000E-002	9.87992E-004	5	..........a	-327.66
	91	18.4	-8.43902E-002	2.34511E-008	0.00000E+000	-8.44000E-002	9.94892E-004	5	..........a	-327.66
	92	18.6	-7.43165E-002	2.42579E-008	0.00000E+000	-7.44000E-002	9.85292E-004	5	..........a	-327.66
	93	18.8	-6.43179E-002	2.50597E-008	0.00000E+000	-6.44000E-002	9.87892E-004	5	..........a	-327.66
	94	19	-5.44054E-002	2.58732E-008	0.00000E+000	-5.44000E-002	1.00039E-003	5	..........a	-327.66
	95	19.2	-4.43600E-002	2.66762E-008	0.00000E+000	-4.44000E-002	9.86992E-004	5	..........a	-327.66
	96	19.4	-3.43190E-002	2.75001E-008	0.00000E+000	-3.44000E-002	9.87192E-004	5	..........a	-327.66
	97	19.6	-2.43895E-002	2.83227E-008	0.00000E+000	-2.44000E-002	9.98092E-004	5	..........a	-327.66
	98	19.8	-1.43427E-002	2.91616E-008	0.00000E+000	-1.44000E-002	9.81492E-004	5	..........a	-327.66
	99	20	-4.33156E-003	2.99805E-008	0.00000E+000	-4.39999E-003	9.78392E-004	5	..........a	-327.66
	100	20.2	5.69279E-003	3.08349E-008	0.00000E+000	5.60001E-003	9.74792E-004	5	..........a	-327.66
	101	20.4	1.56774E-002	3.17278E-008	0.00000E+000	1.56000E-002	9.86992E-004	5	..........a	-327.66
	102	20.6	2.56047E-002	3.26390E-008	0.00000E+000	2.56000E-002	9.86492E-004	5	..........a	-327.66
	103	20.8	3.56393E-002	3.35515E-008	0.00000E+000	3.56000E-002	9.80692E-004	5	..........a	-327.66
	104	21	4.57384E-002	3.44909E-008	0.00000E+000	4.56000E-002	9.82492E-004	5	..........a	-327.66
	105	21.2	5.56497E-002	3.54609E-008	0.00000E+000	5.56000E-002	9.92692E-004	5	..........a	-327.66
	106	21.4	6.56191E-002	3.64798E-008	0.00000E+000	6.56000E-002	9.74592E-004	5	..........a	-327.66
	107	21.6	7.56569E-002	3.75605E-008	0.00000E+000	7.56000E-002	9.75192E-004	5	..........a	-327.66
	108	21.8	8.56594E-002	3.86633E-008	0.00000E+000	8.56000E-002	1.00179E-003	5	..........a	-327.66
	109	22	9.56162E-002	3.98723E-008	0.00000E+000	9.56000E-002	9.71192E-004	5	..........a	-327.66
	110	22.2	1.05621E-001	4.11274E-008	0.00000E+000	1.05600E-001	9.84792E-004	5	..........a	-327.66
	111	22.4	1.15665E-001	4.24852E-008	0.00000E+000	1.15600E-001	9.78992E-004	5	..........a	-327.66
	112	22.6	1.25678E-001	4.38565E-008	0.00000E+000	1.25600E-001	9.86392E-004	5	..........a	-327.66
	113	22.8	1.35684E-001	4.52733E-008	0.00000E+000	1.35600E-001	9.92392E-004	5	..........a	-327.66
	114	23	1.45626E-001	4.66871E-008	0.00000E+000	1.45600E-001	9.84692E-004	5	..........a	-327.66
	115	23.2	1.55638E-001	4.80765E-008	0.00000E+000	1.55600E-001	9.82792E-004	5	..........a	-327.66
	116	23.4	1.65653E-001	4.94804E-008	0.00000E+000	1.65600E-001	9.65392E-004	5	..........a	-327.66
	117	23.6	1.75628E-001	5.08644E-008	0.00000E+000	1.75600E-001	1.00039E-003	5	..........a	-327.66
	118	23.8	1.85607E-001	5.22602E-008	0.00000E+000	1.85600E-001	9.82992E-004	5	..........a	-327.66
	119	24	1.95611E-001	5.36857E-008	0.00000E+000	1.95600E-001	9.75092E-004	5	..........a	-327.66
	120	24.2	2.05598E-001	5.51841E-008	0.00000E+000	2.05600E-001	9.82492E-004	5	..........a	-327.66
	121	24.4	2.15651E-001	5.66662E-008	0.00000E+000	2.15600E-001	9.72992E-004	5	..........a	-327.66
	122	24.6	2.25569E-001	5.81646E-008	0.00000E+000	2.25600E-001	9.96892E-004	5	..........a	-327.66
	123	24.8	2.35583E-001	5.96590E-008	0.00000E+000	2.35600E-001	9.90492E-004	5	..........a	-327.66
	124	25	2.45512E-001	6.11160E-008	0.00000E+000	2.45600E-001	9.80592E-004	5	..........a	-327.66
	125	25.2	2.55602E-001	6.25296E-008	0.00000E+000	2.55600E-001	9.86792E-004	5	..........a	-327.66
	126	25.4	2.65575E-001	6.39449E-008	0.00000E+000	2.65600E-001	1.00029E-003	5	..........a	-327.66
	127	25.6	2.75570E-001	6.53175E-008	0.00000E+000	2.75600E-001	9.89892E-004	5	..........a	-327.66
	128	25.8	2.85608E-001	6.66082E-008	0.00000E+000	2.85600E-001	9.74792E-004	5	..........a	-327.66
	129	26	2.95659E-001	6.79033E-008	0.00000E+000	2.95600E-001	9.96892E-004	5	..........a	-327.66
	130	26.2	3.05539E-001	6.91671E-008	0.00000E+000	3.05600E-001	9.86792E-004	5	..........a	-327.66
	131	26.4	3.15606E-001	7.04625E-008	0.00000E+000	3.15600E-001	9.86892E-004	5	..........a	-327.66
	132	26.6	3.25625E-001	7.17792E-008	0.00000E+000	3.25600E-001	9.82992E-004	5	..........a	-327.66
	133	26.8	3.35623E-001	7.32141E-008	0.00000E+000	3.35600E-001	9.99192E-004	5	..........a	-327.66
	134	27	3.45600E-001	7.47312E-008	0.00000E+000	3.45600E-001	9.83692E-004	5	..........a	-327.66
	135	27.2	3.55599E-001	7.63610E-008	0.00000E+000	3.55600E-001	1.00049E-003	5	..........a	-327.66
	136	27.4	3.65633E-001	7.80823E-008	0.00000E+000	3.65600E-001	9.77692E-004	5	..........a	-327.66
	137	27.6	3.75570E-001	7.98360E-008	0.00000E+000	3.75600E-001	9.95192E-004	5	..........a	-327.66
	138	27.8	3.85563E-001	8.16372E-008	0.00000E+000	3.85600E-001	9.91892E-004	5	..........a	-327.66
	139	28	3.95596E-001	8.35488E-008	0.00000E+000	3.95600E-001	9.85792E-004	5	..........a	-327.66
	140	28.2	4.05615E-001	8.54762E-008	0.00000E+000	4.05600E-001	9.68792E-004	5	..........a	-327.66
	141	28.4	4.15603E-001	8.74246E-008	0.00000E+000	4.15600E-001	9.94192E-004	5	..........a	-327.66
	142	28.6	4.25492E-001	8.95841E-008	0.00000E+000	4.25600E-001	9.75592E-004	5	..........a	-327.66
	143	28.8	4.35512E-001	9.19299E-008	0.00000E+000	4.35600E-001	9.80192E-004	5	..........a	-327.66
	144	29	4.45565E-001	9.41444E-008	0.00000E+000	4.45600E-001	9.95892E-004	5	..........a	-327.66
	145	29.2	4.55595E-001	9.61707E-008	0.00000E+000	4.55600E-001	9.90692E-004	5	..........a	-327.66
	146	29.4	4.65525E-001	9.81312E-008	0.00000E+000	4.65600E-001	9.86092E-004	5	..........a	-327.66
	147	29.6	4.75524E-001	1.00017E-007	0.00000E+000	4.75600E-001	9.83292E-004	5	..........a	-327.66
	148	29.8	4.85533E-001	1.01913E-007	0.00000E+000	4.85600E-001	9.78692E-004	5	..........a	-327.66
	149	30	4.95587E-001	1.03801E-007	0.00000E+000	4.95600E-001	9.82192E-004	5	..........a	-327.66
	150	30.2	5.05492E-001	1.05678E-007	0.00000E+000	5.05600E-001	1.00479E-003	5	..........a	-327.66
	151	30.4	5.15521E-001	1.07524E-007	0.00000E+000	5.15600E-001	9.99792E-004	5	..........a	-327.66
	152	30.6	5.25612E-001	1.09401E-007	0.00000E+000	5.25600E-001	9.78992E-004	5	..........a	-327.66
	153	30.8	5.35569E-001	1.11272E-007	0.00000E+000	5.35600E-001	9.96892E-004	5	..........a	-327.66
	154	31	5.45522E-001	1.13145E-007	0.00000E+000	5.45600E-001	9.72692E-004	5	..........a	-327.66
	155	31.2	5.55515E-001	1.15036E-007	0.00000E+000	5.55600E-001	9.89492E-004	5	..........a	-327.66
	156	31.4	5.65531E-001	1.16923E-007	0.00000E+000	5.65600E-001	9.78192E-004	5	..........a	-327.66
	157	31.6	5.75562E-001	1.18861E-007	0.00000E+000	5.75600E-001	9.79892E-004	5	..........a	-327.66
	158	31.8	5.85510E-001	1.20815E-007	0.00000E+000	5.85600E-001	9.94192E-004	5	..........a	-327.66
	159	32	5.95525E-001	1.22836E-007	0.00000E+000	5.95600E-001	9.82192E-004	5	..........a	-327.66
	160	32.2	6.05549E-001	1.24851E-007	0.00000E+000	6.05600E-001	9.73592E-004	5	..........a	-327.66
	161	32.4	6.15573E-001	1.26898E-007	0.00000E+000	6.15600E-001	9.96092E-004	5	..........a	-327.66
	162	32.6	6.25480E-001	1.28969E-007	0.00000E+000	6.25600E-001	9.98292E-004	5	..........a	-327.66
	163	32.8	6.35481E-001	1.31058E-007	0.00000E+000	6.35600E-001	9.86592E-004	5	..........a	-327.66
	164	33	6.45484E-001	1.33149E-007	0.00000E+000	6.45600E-001	9.85392E-004	5	..........a	-327.66
	165	33.2	6.55567E-001	1.35273E-007	0.00000E+000	6.55600E-001	9.89092E-004	5	..........a	-327.66
	166	33.4	6.65470E-001	1.37388E-007	0.00000E+000	6.65600E-001	9.84492E-004	5	..........a	-327.66
	167	33.6	6.75498E-001	1.39593E-007	0.00000E+000	6.75600E-001	9.82892E-004	5	..........a	-327.66
	168	33.8	6.85481E-001	1.41916E-007	0.00000E+000	6.85600E-001	9.73192E-004	5	..........a	-327.66
	169	34	6.95551E-001	1.44398E-007	0.00000E+000	6.95600E-001	9.99592E-004	5	..........a	-327.66
	170	34.2	7.05487E-001	1.47010E-007	0.00000E+000	7.05600E-001	9.86192E-004	5	..........a	-327.66
	171	34.4	7.15490E-001	1.49812E-007	0.00000E+000	7.15600E-001	9.82992E-004	5	..........a	-327.66
	172	34.6	7.25479E-001	1.52753E-007	0.00000E+000	7.25600E-001	9.72492E-004	5	..........a	-327.66
	173	34.8	7.35563E-001	1.55853E-007	0.00000E+000	7.35600E-001	1.00299E-003	5	..........a	-327.66
	174	35	7.45468E-001	1.59106E-007	0.00000E+000	7.45600E-001	1.01469E-003	5	..........a	-327.66
	175	35.2	7.55494E-001	1.62540E-007	0.00000E+000	7.55600E-001	9.88592E-004	5	..........a	-327.66
	176	35.4	7.65482E-001	1.66168E-007	0.00000E+000	7.65600E-001	9.64192E-004	5	..........a	-327.66
	177	35.6	7.75542E-001	1.69969E-007	0.00000E+000	7.75600E-001	9.85492E-004	5	..........a	-327.66
	178	35.8	7.85462E-001	1.74017E-007	0.00000E+000	7.85600E-001	9.66992E-004	5	..........a	-327.66
	179	36	7.95463E-001	1.78343E-007	0.00000E+000	7.95600E-001	9.90592E-004	5	..........a	-327.66
CURVE2	TABLE
	Pt	T	Vf	Im	Vu	Sig	Ach	IERange	Over	Temp
	#	s	V vs. Ref.	A	V	V	V	#	bits	deg C
	180	36.2	7.89967E-001	1.54167E-007	0.00000E+000	7.90000E-001	9.97792E-004	5	..........a	-327.66
	181	36.4	7.79875E-001	1.32166E-007	0.00000E+000	7.80000E-001	9.77092E-004	5	..........a	-327.66
	182	36.6	7.69912E-001	1.16993E-007	0.00000E+000	7.70000E-001	9.67992E-004	5	..........a	-327.66
	183	36.8	7.59870E-001	1.05669E-007	0.00000E+000	7.60000E-001	9.97292E-004	5	..........a	-327.66
	184	37	7.49973E-001	9.67920E-008	0.00000E+000	7.50000E-001	9.78692E-004	5	..........a	-327.66
	185	37.2	7.39913E-001	8.95902E-008	0.00000E+000	7.40000E-001	9.70792E-004	5	..........a	-327.66
	186	37.4	7.29931E-001	8.36144E-008	0.00000E+000	7.30000E-001	9.83292E-004	5	..........a	-327.66
	187	37.6	7.19912E-001	7.85276E-008	0.00000E+000	7.20000E-001	9.89492E-004	5	..........a	-327.66
	188	37.8	7.09961E-001	7.40844E-008	0.00000E+000	7.10000E-001	1.00309E-003	5	..........a	-327.66
	189	38	6.99917E-001	7.02015E-008	0.00000E+000	7.00000E-001	9.91792E-004	5	..........a	-327.66
	190	38.2	6.89912E-001	6.66539E-008	0.00000E+000	6.90000E-001	9.92592E-004	5	..........a	-327.66
	191	38.4	6.79915E-001	6.34942E-008	0.00000E+000	6.80000E-001	9.86692E-004	5	..........a	-327.66
	192	38.6	6.69979E-001	6.05481E-008	0.00000E+000	6.70000E-001	9.92292E-004	5	..........a	-327.66
	193	38.8	6.59933E-001	5.78014E-008	0.00000E+000	6.60000E-001	9.82492E-004	5	..........a	-327.66
	194	39	6.49942E-001	5.52556E-008	0.00000E+000	6.50000E-001	9.88292E-004	5	..........a	-327.66
	195	39.2	6.39882E-001	5.28675E-008	0.00000E+000	6.40000E-001	9.87892E-004	5	..........a	-327.66
	196	39.4	6.30032E-001	5.05989E-008	0.00000E+000	6.30000E-001	9.81792E-004	5	..........a	-327.66
	197	39.6	6.19928E-001	4.84749E-008	0.00000E+000	6.20000E-001	9.81692E-004	5	..........a	-327.66
	198	39.8	6.09952E-001	4.64209E-008	0.00000E+000	6.10000E-001	9.81192E-004	5	..........a	-327.66
	199	40	5.99953E-001	4.44978E-008	0.00000E+000	6.00000E-001	9.77392E-004	5	..........a	-327.66
	200	40.2	5.90018E-001	4.26865E-008	0.00000E+000	5.90000E-001	9.86692E-004	5	..........a	-327.66
	201	40.4	5.80001E-001	4.08855E-008	0.00000E+000	5.80000E-001	9.65892E-004	5	..........a	-327.66
	202	40.6	5.69959E-001	3.92106E-008	0.00000E+000	5.70000E-001	9.99792E-004	5	..........a	-327.66
	203	40.8	5.59953E-001	3.76245E-008	0.00000E+000	5.60000E-001	9.83392E-004	5	..........a	-327.66
	204	41	5.50033E-001	3.60725E-008	0.00000E+000	5.50000E-001	9.99592E-004	5	..........a	-327.66
	205	41.2	5.39997E-001	3.45787E-008	0.00000E+000	5.40000E-001	9.85392E-004	5	..........a	-327.66
	206	41.4	5.29952E-001	3.31101E-008	0.00000E+000	5.30000E-001	9.91092E-004	5	..........a	-327.66
	207	41.6	5.19982E-001	3.17056E-008	0.00000E+000	5.20000E-001	9.78292E-004	5	..........a	-327.66
	208	41.8	5.09992E-001	3.03219E-008	0.00000E+000	5.10000E-001	9.90792E-004	5	..........a	-327.66
	209	42	5.00056E-001	2.90125E-008	0.00000E+000	5.00000E-001	9.72792E-004	5	..........a	-327.66
	210	42.2	4.89940E-001	2.77107E-008	0.00000E+000	4.90000E-001	9.84992E-004	5	..........a	-327.66
	211	42.4	4.79929E-001	2.64263E-008	0.00000E+000	4.80000E-001	9.84092E-004	5	..........a	-327.66
	212	42.6	4.70027E-001	2.51566E-008	0.00000E+000	4.70000E-001	9.86892E-004	5	..........a	-327.66
	213	42.8	4.59991E-001	2.38946E-008	0.00000E+000	4.60000E-001	9.85892E-004	5	..........a	-327.66
	214	43	4.49818E-001	2.25966E-008	0.00000E+000	4.50000E-001	9.96192E-004	5	..........a	-327.66
	215	43.2	4.39967E-001	2.13191E-008	0.00000E+000	4.40000E-001	9.83192E-004	5	..........a	-327.66
	216	43.4	4.29993E-001	2.00155E-008	0.00000E+000	4.30000E-001	9.94692E-004	5	..........a	-327.66
	217	43.6	4.20009E-001	1.87657E-008	0.00000E+000	4.20000E-001	9.97092E-004	5	..........a	-327.66
	218	43.8	4.09964E-001	1.74936E-008	0.00000E+000	4.10000E-001	9.86792E-004	5	..........a	-327.66
	219	44	4.00016E-001	1.62568E-008	0.00000E+000	4.00000E-001	9.92492E-004	5	..........a	-327.66
	220	44.2	3.90051E-001	1.50015E-008	0.00000E+000	3.90000E-001	1.00199E-003	5	..........a	-327.66
	221	44.4	3.80063E-001	1.37525E-008	0.00000E+000	3.80000E-001	9.82492E-004	5	..........a	-327.66
	222	44.6	3.70024E-001	1.25207E-008	0.00000E+000	3.70000E-001	9.85592E-004	5	..........a	-327.66
	223	44.8	3.60003E-001	1.12969E-008	0.00000E+000	3.60000E-001	1.00479E-003	5	..........a	-327.66
	224	45	3.50019E-001	1.00340E-008	0.00000E+000	3.50000E-001	1.00539E-003	5	..........a	-327.66
	225	45.2	3.40070E-001	8.79918E-009	0.00000E+000	3.40000E-001	9.88092E-004	5	..........a	-327.66
	226	45.4	3.30000E-001	7.55241E-009	0.00000E+000	3.30000E-001	9.75592E-004	5	..........a	-327.66
	227	45.6	3.20039E-001	6.28930E-009	0.00000E+000	3.20000E-001	9.99492E-004	5	..........a	-327.66
	228	45.8	3.10024E-001	4.96508E-009	0.00000E+000	3.10000E-001	9.99892E-004	5	..........a	-327.66
	229	46	3.00061E-001	3.65635E-009	0.00000E+000	3.00000E-001	9.69392E-004	5	..........a	-327.66
	230	46.2	2.90001E-001	2.29526E-009	0.00000E+000	2.90000E-001	9.88592E-004	5	..........a	-327.66
	231	46.4	2.79959E-001	8.95870E-010	0.00000E+000	2.80000E-001	9.90392E-004	5	..........a	-327.66
	232	46.6	2.70066E-001	-6.72669E-010	0.00000E+000	2.70000E-001	9.93292E-004	5	..........a	-327.66
	233	46.8	2.60044E-001	-2.13754E-009	0.00000E+000	2.60000E-001	9.84092E-004	5	..........a	-327.66
	234	47	2.50072E-001	-3.73508E-009	0.00000E+000	2.50000E-001	9.81592E-004	5	..........a	-327.66
	235	47.2	2.40076E-001	-5.33563E-009	0.00000E+000	2.40000E-001	9.80392E-004	5	..........a	-327.66
	236	47.4	2.30011E-001	-7.06229E-009	0.00000E+000	2.30000E-001	9.77092E-004	5	..........a	-327.66
	237	47.6	2.20029E-001	-8.78452E-009	0.00000E+000	2.20000E-001	9.84392E-004	5	..........a	-327.66
	238	47.8	2.10035E-001	-1.05876E-008	0.00000E+000	2.10000E-001	9.92092E-004	5	..........a	-327.66
	239	48	2.00046E-001	-1.22812E-008	0.00000E+000	2.00000E-001	9.94992E-004	5	..........a	-327.66
	240	48.2	1.90120E-001	-1.39465E-008	0.00000E+000	1.90000E-001	9.88492E-004	5	..........a	-327.66
	241	48.4	1.80108E-001	-1.54481E-008	0.00000E+000	1.80000E-001	9.74992E-004	5	..........a	-327.66
	242	48.6	1.70092E-001	-1.67531E-008	0.00000E+000	1.70000E-001	9.81292E-004	5	..........a	-327.66
	243	48.8	1.60049E-001	-1.78473E-008	0.00000E+000	1.60000E-001	9.89292E-004	5	..........a	-327.66
	244	49	1.50087E-001	-1.86870E-008	0.00000E+000	1.50000E-001	9.96392E-004	5	..........a	-327.66
	245	49.2	1.40131E-001	-1.92076E-008	0.00000E+000	1.40000E-001	1.00049E-003	5	..........a	-327.66
	246	49.4	1.30094E-001	-1.95226E-008	0.00000E+000	1.30000E-001	9.95692E-004	5	..........a	-327.66
	247	49.6	1.20082E-001	-1.95757E-008	0.00000E+000	1.20000E-001	9.81992E-004	5	..........a	-327.66
	248	49.8	1.10122E-001	-1.94212E-008	0.00000E+000	1.10000E-001	9.94892E-004	5	..........a	-327.66
	249	50	1.00127E-001	-1.91721E-008	0.00000E+000	1.00000E-001	9.93492E-004	5	..........a	-327.66
	250	50.2	9.01170E-002	-1.88414E-008	0.00000E+000	9.00000E-002	9.83992E-004	5	..........a	-327.66
	251	50.4	8.00430E-002	-1.84856E-008	0.00000E+000	8.00000E-002	9.90592E-004	5	..........a	-327.66
	252	50.6	7.00211E-002	-1.81848E-008	0.00000E+000	7.00000E-002	9.98392E-004	5	..........a	-327.66
	253	50.8	6.01083E-002	-1.79464E-008	0.00000E+000	6.00000E-002	9.78892E-004	5	..........a	-327.66
	254	51	5.00465E-002	-1.78189E-008	0.00000E+000	5.00000E-002	9.92092E-004	5	..........a	-327.66
	255	51.2	4.00384E-002	-1.78327E-008	0.00000E+000	4.00000E-002	9.92592E-004	5	..........a	-327.66
	256	51.4	3.00556E-002	-1.79437E-008	0.00000E+000	3.00000E-002	9.81592E-004	5	..........a	-327.66
	257	51.6	2.01305E-002	-1.81915E-008	0.00000E+000	2.00000E-002	9.93092E-004	5	..........a	-327.66
	258	51.8	1.01163E-002	-1.85227E-008	0.00000E+000	1.00000E-002	9.94192E-004	5	..........a	-327.66
	259	52	5.95416E-005	-1.89162E-008	0.00000E+000	7.45058E-009	9.79292E-004	5	..........a	-327.66
	260	52.2	-9.86201E-003	-1.93429E-008	0.00000E+000	-1.00000E-002	9.88192E-004	5	..........a	-327.66
	261	52.4	-1.99011E-002	-1.98757E-008	0.00000E+000	-2.00000E-002	9.70892E-004	5	..........a	-327.66
	262	52.6	-2.99237E-002	-2.04011E-008	0.00000E+000	-3.00000E-002	9.79292E-004	5	..........a	-327.66
	263	52.8	-3.99091E-002	-2.10002E-008	0.00000E+000	-4.00000E-002	9.80992E-004	5	..........a	-327.66
	264	53	-4.99052E-002	-2.16466E-008	0.00000E+000	-5.00000E-002	9.83592E-004	5	..........a	-327.66
	265	53.2	-5.98679E-002	-2.22049E-008	0.00000E+000	-6.00000E-002	9.65092E-004	5	..........a	-327.66
	266	53.4	-6.99236E-002	-2.28787E-008	0.00000E+000	-7.00000E-002	9.85992E-004	5	..........a	-327.66
	267	53.6	-7.99444E-002	-2.35539E-008	0.00000E+000	-8.00000E-002	9.94792E-004	5	..........a	-327.66
	268	53.8	-8.99019E-002	-2.42773E-008	0.00000E+000	-9.00000E-002	9.82492E-004	5	..........a	-327.66
	269	54	-9.98895E-002	-2.50291E-008	0.00000E+000	-1.00000E-001	9.77892E-004	5	..........a	-327.66
	270	54.2	-1.09946E-001	-2.58063E-008	0.00000E+000	-1.10000E-001	9.94992E-004	5	..........a	-327.66
	271	54.4	-1.19916E-001	-2.66077E-008	0.00000E+000	-1.20000E-001	9.97292E-004	5	..........a	-327.66
	272	54.6	-1.29953E-001	-2.73735E-008	0.00000E+000	-1.30000E-001	1.00559E-003	5	..........a	-327.66
	273	54.8	-1.39871E-001	-2.81489E-008	0.00000E+000	-1.40000E-001	9.78892E-004	5	..........a	-327.66
	274	55	-1.49914E-001	-2.89563E-008	0.00000E+000	-1.50000E-001	9.78592E-004	5	..........a	-327.66
	275	55.2	-1.59921E-001	-2.97251E-008	0.00000E+000	-1.60000E-001	9.92592E-004	5	..........a	-327.66
	276	55.4	-1.69881E-001	-3.05130E-008	0.00000E+000	-1.70000E-001	9.84392E-004	5	..........a	-327.66
	277	55.6	-1.79902E-001	-3.13305E-008	0.00000E+000	-1.80000E-001	9.84292E-004	5	..........a	-327.66
	278	55.8	-1.89926E-001	-3.20910E-008	0.00000E+000	-1.90000E-001	9.93592E-004	5	..........a	-327.66
	279	56	-1.99967E-001	-3.29582E-008	0.00000E+000	-2.00000E-001	9.98092E-004	5	..........a	-327.66
	280	56.2	-2.09876E-001	-3.37480E-008	0.00000E+000	-2.10000E-001	9.87692E-004	5	..........a	-327.66
	281	56.4	-2.19861E-001	-3.45494E-008	0.00000E+000	-2.20000E-001	9.89092E-004	5	..........a	-327.66
	282	56.6	-2.29901E-001	-3.52854E-008	0.00000E+000	-2.30000E-001	9.74292E-004	5	..........a	-327.66
	283	56.8	-2.39877E-001	-3.60831E-008	0.00000E+000	-2.40000E-001	9.93592E-004	5	..........a	-327.66
	284	57	-2.49876E-001	-3.68821E-008	0.00000E+000	-2.50000E-001	9.93792E-004	5	..........a	-327.66
	285	57.2	-2.59820E-001	-3.76887E-008	0.00000E+000	-2.60000E-001	9.79392E-004	5	..........a	-327.66
	286	57.4	-2.69879E-001	-3.84605E-008	0.00000E+000	-2.70000E-001	9.85992E-004	5	..........a	-327.66
	287	57.6	-2.79872E-001	-3.92660E-008	0.00000E+000	-2.80000E-001	9.80092E-004	5	..........a	-327.66
	288	57.8	-2.89878E-001	-4.01005E-008	0.00000E+000	-2.90000E-001	9.86992E-004	5	..........a	-327.66
	289	58	-2.99844E-001	-4.08870E-008	0.00000E+000	-3.00000E-001	9.63192E-004	5	..........a	-327.66
	290	58.2	-3.09898E-001	-4.17131E-008	0.00000E+000	-3.10000E-001	9.90192E-004	5	..........a	-327.66
	291	58.4	-3.19864E-001	-4.24998E-008	0.00000E+000	-3.20000E-001	9.95592E-004	5	..........a	-327.66
	292	58.6	-3.29910E-001	-4.33833E-008	0.00000E+000	-3.30000E-001	9.89992E-004	5	..........a	-327.66
	293	58.8	-3.39824E-001	-4.41591E-008	0.00000E+000	-3.40000E-001	9.78992E-004	5	..........a	-327.66
	294	59	-3.49858E-001	-4.49514E-008	0.00000E+000	-3.50000E-001	9.82592E-004	5	..........a	-327.66
	295	59.2	-3.59876E-001	-4.58014E-008	0.00000E+000	-3.60000E-001	9.86292E-004	5	..........a	-327.66
	296	59.4	-3.69844E-001	-4.66845E-008	0.00000E+000	-3.70000E-001	9.71292E-004	5	..........a	-327.66
	297	59.6	-3.79850E-001	-4.75161E-008	0.00000E+000	-3.80000E-001	9.69792E-004	5	..........a	-327.66
	298	59.8	-3.89949E-001	-4.83675E-008	0.00000E+000	-3.90000E-001	9.79992E-004	5	..........a	-327.66
	299	60	-3.99855E-001	-4.92456E-008	0.00000E+000	-4.00000E-001	9.88692E-004	5	..........a	-327.66
	300	60.2	-4.09850E-001	-5.00568E-008	0.00000E+000	-4.10000E-001	9.71092E-004	5	..........a	-327.66
	301	60.4	-4.19822E-001	-5.09657E-008	0.00000E+000	-4.20000E-001	9.86392E-004	5	..........a	-327.66
	302	60.6	-4.29858E-001	-5.18329E-008	0.00000E+000	-4.30000E-001	9.98892E-004	5	..........a	-327.66
	303	60.8	-4.39874E-001	-5.27035E-008	0.00000E+000	-4.40000E-001	9.98892E-004	5	..........a	-327.66
	304	61	-4.49844E-001	-5.35882E-008	0.00000E+000	-4.50000E-001	9.71392E-004	5	..........a	-327.66
	305	61.2	-4.59808E-001	-5.44870E-008	0.00000E+000	-4.60000E-001	9.84892E-004	5	..........a	-327.66
	306	61.4	-4.69845E-001	-5.53817E-008	0.00000E+000	-4.70000E-001	9.90592E-004	5	..........a	-327.66
	307	61.6	-4.79832E-001	-5.62949E-008	0.00000E+000	-4.80000E-001	9.97492E-004	5	..........a	-327.66
	308	61.8	-4.89856E-001	-5.72229E-008	0.00000E+000	-4.90000E-001	9.77292E-004	5	..........a	-327.66
	309	62	-4.99830E-001	-5.81487E-008	0.00000E+000	-5.00000E-001	9.76792E-004	5	..........a	-327.66
	310	62.2	-5.09875E-001	-5.91064E-008	0.00000E+000	-5.10000E-001	9.89992E-004	5	..........a	-327.66
	311	62.4	-5.19855E-001	-6.01361E-008	0.00000E+000	-5.20000E-001	9.86392E-004	5	..........a	-327.66
	312	62.6	-5.29846E-001	-6.11436E-008	0.00000E+000	-5.30000E-001	9.85692E-004	5	..........a	-327.66
	313	62.8	-5.39801E-001	-6.22919E-008	0.00000E+000	-5.40000E-001	9.75092E-004	5	..........a	-327.66
	314	63	-5.49865E-001	-6.34929E-008	0.00000E+000	-5.50000E-001	9.97092E-004	5	..........a	-327.66
	315	63.2	-5.59863E-001	-6.48919E-008	0.00000E+000	-5.60000E-001	9.76892E-004	5	..........a	-327.66
	316	63.4	-5.69860E-001	-6.63975E-008	0.00000E+000	-5.70000E-001	9.92092E-004	5	..........a	-327.66
	317	63.6	-5.79818E-001	-6.81934E-008	0.00000E+000	-5.80000E-001	9.67992E-004	5	..........a	-327.66
	318	63.8	-5.89857E-001	-6.98349E-008	0.00000E+000	-5.90000E-001	9.99492E-004	5	..........a	-327.66
	319	64	-5.99857E-001	-7.15341E-008	0.00000E+000	-6.00000E-001	9.75192E-004	5	..........a	-327.66
	320	64.2	-5.89868E-001	-6.02225E-008	0.00000E+000	-5.90000E-001	9.91092E-004	5	..........a	-327.66
	321	64.4	-5.79823E-001	-5.35144E-008	0.00000E+000	-5.80000E-001	9.82192E-004	5	..........a	-327.66
	322	64.6	-5.69917E-001	-4.84522E-008	0.00000E+000	-5.70000E-001	9.87792E-004	5	..........a	-327.66
	323	64.8	-5.59821E-001	-4.40775E-008	0.00000E+000	-5.60000E-001	9.81292E-004	5	..........a	-327.66
	324	65	-5.49875E-001	-4.03805E-008	0.00000E+000	-5.50000E-001	9.99692E-004	5	..........a	-327.66
	325	65.2	-5.39808E-001	-3.68972E-008	0.00000E+000	-5.40000E-001	9.66592E-004	5	..........a	-327.66
	326	65.4	-5.29836E-001	-3.41107E-008	0.00000E+000	-5.30000E-001	1.00019E-003	5	..........a	-327.66
	327	65.6	-5.19832E-001	-3.14070E-008	0.00000E+000	-5.20000E-001	9.82892E-004	5	..........a	-327.66
	328	65.8	-5.09839E-001	-2.90010E-008	0.00000E+000	-5.10000E-001	9.68592E-004	5	..........a	-327.66
	329	66	-4.99836E-001	-2.67798E-008	0.00000E+000	-5.00000E-001	9.64092E-004	5	..........a	-327.66
	330	66.2	-4.89847E-001	-2.48182E-008	0.00000E+000	-4.90000E-001	9.92392E-004	5	..........a	-327.66
	331	66.4	-4.79871E-001	-2.27462E-008	0.00000E+000	-4.80000E-001	9.79192E-004	5	..........a	-327.66
	332	66.6	-4.69847E-001	-2.10789E-008	0.00000E+000	-4.70000E-001	9.94392E-004	5	..........a	-327.66
	333	66.8	-4.59836E-001	-1.92504E-008	0.00000E+000	-4.60000E-001	9.79792E-004	5	..........a	-327.66
	334	67	-4.49852E-001	-1.75647E-008	0.00000E+000	-4.50000E-001	9.80992E-004	5	..........a	-327.66
	335	67.2	-4.39851E-001	-1.59139E-008	0.00000E+000	-4.40000E-001	1.00079E-003	5	..........a	-327.66
	336	67.4	-4.29869E-001	-1.42810E-008	0.00000E+000	-4.30000E-001	9.84592E-004	5	..........a	-327.66
	337	67.6	-4.19755E-001	-1.27210E-008	0.00000E+000	-4.20000E-001	9.74692E-004	5	..........a	-327.66
	338	67.8	-4.09869E-001	-1.12613E-008	0.00000E+000	-4.10000E-001	9.67392E-004	5	..........a	-327.66
	339	68	-3.99837E-001	-9.83209E-009	0.00000E+000	-4.00000E-001	9.77392E-004	5	..........a	-327.66
	340	68.2	-3.89884E-001	-8.48694E-009	0.00000E+000	-3.90000E-001	9.79992E-004	5	..........a	-327.66
	341	68.4	-3.79873E-001	-7.19979E-009	0.00000E+000	-3.80000E-001	9.94692E-004	5	..........a	-327.66
	342	68.6	-3.69839E-001	-5.87388E-009	0.00000E+000	-3.70000E-001	9.71292E-004	5	..........a	-327.66
	343	68.8	-3.59841E-001	-4.62069E-009	0.00000E+000	-3.60000E-001	9.95792E-004	5	..........a	-327.66
	344	69	-3.49869E-001	-3.40317E-009	0.00000E+000	-3.50000E-001	9.82592E-004	5	..........a	-327.66
	345	69.2	-3.39836E-001	-2.18353E-009	0.00000E+000	-3.40000E-001	9.78192E-004	5	..........a	-327.66
	346	69.4	-3.29919E-001	-1.01176E-009	0.00000E+000	-3.30000E-001	9.93992E-004	5	..........a	-327.66
	347	69.6	-3.19901E-001	1.59742E-010	0.00000E+000	-3.20000E-001	1.00289E-003	5	..........a	-327.66
	348	69.8	-3.09924E-001	1.32596E-009	0.00000E+000	-3.10000E-001	9.89192E-004	5	..........a	-327.66
	349	70	-2.99901E-001	2.45316E-009	0.00000E+000	-3.00000E-001	9.80192E-004	5	..........a	-327.66
	350	70.2	-2.89932E-001	3.55560E-009	0.00000E+000	-2.90000E-001	9.99992E-004	5	..........a	-327.66
	351	70.4	-2.79917E-001	4.65501E-009	0.00000E+000	-2.80000E-001	9.91892E-004	5	..........a	-327.66
	352	70.6	-2.69884E-001	5.69593E-009	0.00000E+000	-2.70000E-001	9.98892E-004	5	..........a	-327.66
[...]
	920	184.2	-1.90060E-001	1.28174E-008	0.00000E+000	-1.90000E-001	9.75992E-004	5	..........a	-327.66
	921	184.4	-1.79953E-001	1.38695E-008	0.00000E+000	-1.80000E-001	9.71392E-004	5	..........a	-327.66
	922	184.6	-1.69899E-001	1.48721E-008	0.00000E+000	-1.70000E-001	9.96892E-004	5	..........a	-327.66
	923	184.8	-1.59971E-001	1.58623E-008	0.00000E+000	-1.60000E-001	9.76592E-004	5	..........a	-327.66
	924	185	-1.49969E-001	1.68553E-008	0.00000E+000	-1.50000E-001	9.76992E-004	5	..........a	-327.66
	925	185.2	-1.39870E-001	1.78502E-008	0.00000E+000	-1.40000E-001	9.77692E-004	5	..........a	-327.66
	926	185.4	-1.29958E-001	1.88472E-008	0.00000E+000	-1.30000E-001	9.83392E-004	5	..........a	-327.66
	927	185.6	-1.19956E-001	1.98389E-008	0.00000E+000	-1.20000E-001	9.86292E-004	5	..........a	-327.66
	928	185.8	-1.09957E-001	2.08057E-008	0.00000E+000	-1.10000E-001	9.75592E-004	5	..........a	-327.66
	929	186	-9.99210E-002	2.17935E-008	0.00000E+000	-1.00000E-001	9.60492E-004	5	..........a	-327.66
	930	186.2	-8.99221E-002	2.27692E-008	0.00000E+000	-9.00000E-002	9.65192E-004	5	..........a	-327.66
	931	186.4	-8.00096E-002	2.37522E-008	0.00000E+000	-8.00000E-002	9.86692E-004	5	..........a	-327.66
	932	186.6	-6.99357E-002	2.47247E-008	0.00000E+000	-7.00000E-002	9.82992E-004	5	..........a	-327.66
	933	186.8	-5.99185E-002	2.56755E-008	0.00000E+000	-6.00000E-002	9.70092E-004	5	..........a	-327.66
	934	187	-4.99173E-002	2.66392E-008	0.00000E+000	-5.00000E-002	9.74192E-004	5	..........a	-327.66
	935	187.2	-3.99396E-002	2.75864E-008	0.00000E+000	-4.00000E-002	9.75392E-004	5	..........a	-327.66
	936	187.4	-2.99902E-002	2.85408E-008	0.00000E+000	-3.00000E-002	9.76392E-004	5	..........a	-327.66
	937	187.6	-1.99537E-002	2.94941E-008	0.00000E+000	-2.00000E-002	9.88992E-004	5	..........a	-327.66
	938	187.8	-9.89766E-003	3.04235E-008	0.00000E+000	-1.00000E-002	9.83892E-004	5	..........a	-327.66
	939	188	2.91664E-007	3.13462E-008	0.00000E+000	7.45058E-009	9.90592E-004	5	..........a	-327.66
	940	188.2	1.01018E-002	3.23230E-008	0.00000E+000	1.00000E-002	9.93792E-004	5	..........a	-327.66
	941	188.4	2.00514E-002	3.32399E-008	0.00000E+000	2.00000E-002	1.00139E-003	5	..........a	-327.66
	942	188.6	3.00339E-002	3.42310E-008	0.00000E+000	3.00000E-002	9.78392E-004	5	..........a	-327.66
	943	188.8	4.01032E-002	3.51721E-008	0.00000E+000	4.00000E-002	9.67092E-004	5	..........a	-327.66
	944	189	5.00516E-002	3.61528E-008	0.00000E+000	5.00000E-002	9.77392E-004	5	..........a	-327.66
	945	189.2	6.00882E-002	3.71775E-008	0.00000E+000	6.00000E-002	9.80592E-004	5	..........a	-327.66
	946	189.4	6.99878E-002	3.81824E-008	0.00000E+000	7.00000E-002	9.95992E-004	5	..........a	-327.66
	947	189.6	7.99966E-002	3.92274E-008	0.00000E+000	8.00000E-002	9.90492E-004	5	..........a	-327.66
	948	189.8	9.00798E-002	4.02762E-008	0.00000E+000	9.00000E-002	9.82192E-004	5	..........a	-327.66
	949	190	1.00056E-001	4.13220E-008	0.00000E+000	1.00000E-001	9.76992E-004	5	..........a	-327.66
	950	190.2	1.10085E-001	4.24173E-008	0.00000E+000	1.10000E-001	9.93592E-004	5	..........a	-327.66
	951	190.4	1.19995E-001	4.34665E-008	0.00000E+000	1.20000E-001	9.82192E-004	5	..........a	-327.66
	952	190.6	1.30005E-001	4.45356E-008	0.00000E+000	1.30000E-001	9.75492E-004	5	..........a	-327.66
	953	190.8	1.40088E-001	4.55464E-008	0.00000E+000	1.40000E-001	9.57992E-004	5	..........a	-327.66
	954	191	1.50046E-001	4.65371E-008	0.00000E+000	1.50000E-001	9.94792E-004	5	..........a	-327.66
	955	191.2	1.60027E-001	4.75549E-008	0.00000E+000	1.60000E-001	9.81892E-004	5	..........a	-327.66
	956	191.4	1.70021E-001	4.85556E-008	0.00000E+000	1.70000E-001	9.87192E-004	5	..........a	-327.66
	957	191.6	1.80040E-001	4.95848E-008	0.00000E+000	1.80000E-001	9.82792E-004	5	..........a	-327.66
	958	191.8	1.90084E-001	5.06272E-008	0.00000E+000	1.90000E-001	9.67192E-004	5	..........a	-327.66
	959	192	2.00017E-001	5.16148E-008	0.00000E+000	2.00000E-001	9.68592E-004	5	..........a	-327.66
	960	192.2	2.09982E-001	5.26133E-008	0.00000E+000	2.10000E-001	9.71592E-004	5	..........a	-327.66
	961	192.4	2.19798E-001	5.35721E-008	0.00000E+000	2.20000E-001	9.63792E-004	5	..........a	-327.66
	962	192.6	2.29977E-001	5.44611E-008	0.00000E+000	2.30000E-001	9.97592E-004	5	..........a	-327.66
	963	192.8	2.40009E-001	5.52870E-008	0.00000E+000	2.40000E-001	9.85492E-004	5	..........a	-327.66
	964	193	2.49960E-001	5.60648E-008	0.00000E+000	2.50000E-001	9.88492E-004	5	..........a	-327.66
	965	193.2	2.60008E-001	5.68703E-008	0.00000E+000	2.60000E-001	9.78992E-004	5	..........a	-327.66
	966	193.4	2.70053E-001	5.76550E-008	0.00000E+000	2.70000E-001	9.79492E-004	5	..........a	-327.66
	967	193.6	2.79960E-001	5.84929E-008	0.00000E+000	2.80000E-001	9.85092E-004	5	..........a	-327.66
	968	193.8	2.89990E-001	5.93480E-008	0.00000E+000	2.90000E-001	9.75692E-004	5	..........a	-327.66
	969	194	2.99990E-001	6.02544E-008	0.00000E+000	3.00000E-001	9.74392E-004	5	..........a	-327.66
	970	194.2	3.10022E-001	6.12050E-008	0.00000E+000	3.10000E-001	9.70192E-004	5	..........a	-327.66
	971	194.4	3.20022E-001	6.22054E-008	0.00000E+000	3.20000E-001	9.82892E-004	5	..........a	-327.66
	972	194.6	3.30008E-001	6.31723E-008	0.00000E+000	3.30000E-001	9.87992E-004	5	..........a	-327.66
	973	194.8	3.40010E-001	6.41968E-008	0.00000E+000	3.40000E-001	9.72792E-004	5	..........a	-327.66
	974	195	3.50006E-001	6.52165E-008	0.00000E+000	3.50000E-001	9.99792E-004	5	..........a	-327.66
	975	195.2	3.59982E-001	6.62942E-008	0.00000E+000	3.60000E-001	9.86992E-004	5	..........a	-327.66
	976	195.4	3.70025E-001	6.73582E-008	0.00000E+000	3.70000E-001	9.88392E-004	5	..........a	-327.66
	977	195.6	3.80007E-001	6.84426E-008	0.00000E+000	3.80000E-001	9.73792E-004	5	..........a	-327.66
	978	195.8	3.90005E-001	6.94868E-008	0.00000E+000	3.90000E-001	9.96892E-004	5	..........a	-327.66
	979	196	3.99995E-001	7.06586E-008	0.00000E+000	4.00000E-001	9.81392E-004	5	..........a	-327.66
	980	196.2	4.09945E-001	7.17595E-008	0.00000E+000	4.10000E-001	9.92192E-004	5	..........a	-327.66
	981	196.4	4.19987E-001	7.30189E-008	0.00000E+000	4.20000E-001	9.80092E-004	5	..........a	-327.66
	982	196.6	4.29958E-001	7.42086E-008	0.00000E+000	4.30000E-001	9.95092E-004	5	..........a	-327.66
	983	196.8	4.39939E-001	7.54888E-008	0.00000E+000	4.40000E-001	9.70192E-004	5	..........a	-327.66
	984	197	4.49934E-001	7.67920E-008	0.00000E+000	4.50000E-001	9.74192E-004	5	..........a	-327.66
	985	197.2	4.59947E-001	7.81333E-008	0.00000E+000	4.60000E-001	9.92792E-004	5	..........a	-327.66
	986	197.4	4.69991E-001	7.94634E-008	0.00000E+000	4.70000E-001	9.78392E-004	5	..........a	-327.66
	987	197.6	4.79911E-001	8.08244E-008	0.00000E+000	4.80000E-001	9.77992E-004	5	..........a	-327.66
	988	197.8	4.89913E-001	8.21951E-008	0.00000E+000	4.90000E-001	9.68292E-004	5	..........a	-327.66
	989	198	4.99981E-001	8.35943E-008	0.00000E+000	5.00000E-001	9.70192E-004	5	..........a	-327.66
	990	198.2	5.09948E-001	8.49486E-008	0.00000E+000	5.10000E-001	9.90492E-004	5	..........a	-327.66
	991	198.4	5.19944E-001	8.63252E-008	0.00000E+000	5.20000E-001	1.00159E-003	5	..........a	-327.66
	992	198.6	5.29944E-001	8.76393E-008	0.00000E+000	5.30000E-001	9.84492E-004	5	..........a	-327.66
	993	198.8	5.39974E-001	8.89834E-008	0.00000E+000	5.40000E-001	9.77692E-004	5	..........a	-327.66
	994	199	5.49987E-001	9.02963E-008	0.00000E+000	5.50000E-001	9.73692E-004	5	..........a	-327.66
	995	199.2	5.59924E-001	9.15695E-008	0.00000E+000	5.60000E-001	9.92692E-004	5	..........a	-327.66
	996	199.4	5.69940E-001	9.28014E-008	0.00000E+000	5.70000E-001	9.80292E-004	5	..........a	-327.66
	997	199.6	5.79947E-001	9.41319E-008	0.00000E+000	5.80000E-001	9.67892E-004	5	..........a	-327.66
	998	199.8	5.89981E-001	9.54500E-008	0.00000E+000	5.90000E-001	9.73392E-004	5	..........a	-327.66
	999	200	5.99938E-001	9.67635E-008	0.00000E+000	6.00000E-001	9.70192E-004	5	..........a	-327.66
	1000	200.2	6.09959E-001	9.81054E-008	0.00000E+000	6.10000E-001	9.82992E-004	5	..........a	-327.66
	1001	200.4	6.19905E-001	9.95171E-008	0.00000E+000	6.20000E-001	9.86792E-004	5	..........a	-327.66
	1002	200.6	6.30006E-001	1.00978E-007	0.00000E+000	6.30000E-001	9.81292E-004	5	..........a	-327.66
	1003	200.8	6.39872E-001	1.02456E-007	0.00000E+000	6.40000E-001	9.93692E-004	5	..........a	-327.66
	1004	201	6.49904E-001	1.04033E-007	0.00000E+000	6.50000E-001	9.74492E-004	5	..........a	-327.66
	1005	201.2	6.59901E-001	1.05649E-007	0.00000E+000	6.60000E-001	9.63792E-004	5	..........a	-327.66
	1006	201.4	6.69956E-001	1.07356E-007	0.00000E+000	6.70000E-001	9.69892E-004	5	..........a	-327.66
	1007	201.6	6.79884E-001	1.09099E-007	0.00000E+000	6.80000E-001	9.54692E-004	5	..........a	-327.66
	1008	201.8	6.89888E-001	1.11016E-007	0.00000E+000	6.90000E-001	9.76692E-004	5	..........a	-327.66
	1009	202	6.99888E-001	1.12993E-007	0.00000E+000	7.00000E-001	9.57692E-004	5	..........a	-327.66
	1010	202.2	7.09964E-001	1.14996E-007	0.00000E+000	7.10000E-001	9.72792E-004	5	..........a	-327.66
	1011	202.4	7.19881E-001	1.17210E-007	0.00000E+000	7.20000E-001	9.58792E-004	5	..........a	-327.66
	1012	202.6	7.29925E-001	1.19632E-007	0.00000E+000	7.30000E-001	9.82892E-004	5	..........a	-327.66
	1013	202.8	7.39889E-001	1.22327E-007	0.00000E+000	7.40000E-001	9.67292E-004	5	..........a	-327.66
	1014	203	7.49955E-001	1.25328E-007	0.00000E+000	7.50000E-001	9.70192E-004	5	..........a	-327.66
	1015	203.2	7.59902E-001	1.28404E-007	0.00000E+000	7.60000E-001	9.75192E-004	5	..........a	-327.66
	1016	203.4	7.69898E-001	1.32019E-007	0.00000E+000	7.70000E-001	9.76292E-004	5	..........a	-327.66
	1017	203.6	7.79870E-001	1.36160E-007	0.00000E+000	7.80000E-001	9.67992E-004	5	..........a	-327.66
	1018	203.8	7.89961E-001	1.40906E-007	0.00000E+000	7.90000E-001	9.84592E-004	5	..........a	-327.66
	1019	204	7.99865E-001	1.46242E-007	0.00000E+000	8.00000E-001	9.80392E-004	5	..........a	-327.66
CURVE5	TABLE
	Pt	T	Vf	Im	Vu	Sig	Ach	IERange	Over	Temp
	#	s	V vs. Ref.	A	V	V	V	#	bits	deg C
	1020	204.2	7.89967E-001	1.20974E-007	0.00000E+000	7.90000E-001	9.89792E-004	5	..........a	-327.66
	1021	204.4	7.79890E-001	1.05259E-007	0.00000E+000	7.80000E-001	9.78392E-004	5	..........a	-327.66
	1022	204.6	7.69916E-001	9.40868E-008	0.00000E+000	7.70000E-001	9.89592E-004	5	..........a	-327.66
	1023	204.8	7.59885E-001	8.56250E-008	0.00000E+000	7.60000E-001	9.70092E-004	5	..........a	-327.66
	1024	205	7.49986E-001	7.89138E-008	0.00000E+000	7.50000E-001	9.86092E-004	5	..........a	-327.66
	1025	205.2	7.39918E-001	7.34825E-008	0.00000E+000	7.40000E-001	9.69892E-004	5	..........a	-327.66
	1026	205.4	7.29894E-001	6.88683E-008	0.00000E+000	7.30000E-001	9.78392E-004	5	..........a	-327.66
	1027	205.6	7.19897E-001	6.49412E-008	0.00000E+000	7.20000E-001	9.85292E-004	5	..........a	-327.66
	1028	205.8	7.09982E-001	6.18015E-008	0.00000E+000	7.10000E-001	9.87092E-004	5	..........a	-327.66
	1029	206	6.99926E-001	5.84046E-008	0.00000E+000	7.00000E-001	9.68492E-004	5	..........a	-327.66
	1030	206.2	6.89931E-001	5.55180E-008	0.00000E+000	6.90000E-001	9.73592E-004	5	..........a	-327.66
	1031	206.4	6.79933E-001	5.29118E-008	0.00000E+000	6.80000E-001	9.73992E-004	5	..........a	-327.66
	1032	206.6	6.69976E-001	5.05376E-008	0.00000E+000	6.70000E-001	9.76892E-004	5	..........a	-327.66
	1033	206.8	6.59939E-001	4.82547E-008	0.00000E+000	6.60000E-001	9.71492E-004	5	..........a	-327.66
	1034	207	6.49946E-001	4.61551E-008	0.00000E+000	6.50000E-001	9.81692E-004	5	..........a	-327.66
	1035	207.2	6.39887E-001	4.41537E-008	0.00000E+000	6.40000E-001	9.88892E-004	5	..........a	-327.66
	1036	207.4	6.30046E-001	4.22409E-008	0.00000E+000	6.30000E-001	9.67492E-004	5	..........a	-327.66
	1037	207.6	6.19929E-001	4.04015E-008	0.00000E+000	6.20000E-001	9.79692E-004	5	..........a	-327.66
	1038	207.8	6.09950E-001	3.87321E-008	0.00000E+000	6.10000E-001	9.87692E-004	5	..........a	-327.66
	1039	208	5.99996E-001	3.71243E-008	0.00000E+000	6.00000E-001	9.77092E-004	5	..........a	-327.66
	1040	208.2	5.90039E-001	3.55684E-008	0.00000E+000	5.90000E-001	9.72492E-004	5	..........a	-327.66
	1041	208.4	5.79992E-001	3.41328E-008	0.00000E+000	5.80000E-001	9.69992E-004	5	..........a	-327.66
	1042	208.6	5.69945E-001	3.31313E-008	0.00000E+000	5.70000E-001	9.89692E-004	5	..........a	-327.66
	1043	208.8	5.59963E-001	3.18632E-008	0.00000E+000	5.60000E-001	9.85992E-004	5	..........a	-327.66
	1044	209	5.50025E-001	3.03075E-008	0.00000E+000	5.50000E-001	9.74192E-004	5	..........a	-327.66
	1045	209.2	5.39989E-001	2.87230E-008	0.00000E+000	5.40000E-001	9.72192E-004	5	..........a	-327.66
	1046	209.4	5.29989E-001	2.72663E-008	0.00000E+000	5.30000E-001	9.71892E-004	5	..........a	-327.66
	1047	209.6	5.19983E-001	2.59377E-008	0.00000E+000	5.20000E-001	9.88292E-004	5	..........a	-327.66
	1048	209.8	5.09981E-001	2.48766E-008	0.00000E+000	5.10000E-001	9.81892E-004	5	..........a	-327.66
	1049	210	5.00002E-001	2.46868E-008	0.00000E+000	5.00000E-001	9.66392E-004	5	..........a	-327.66
	1050	210.2	4.89937E-001	2.38330E-008	0.00000E+000	4.90000E-001	9.78992E-004	5	..........a	-327.66
	1051	210.4	4.79913E-001	2.27737E-008	0.00000E+000	4.80000E-001	9.95192E-004	5	..........a	-327.66
	1052	210.6	4.70029E-001	2.15764E-008	0.00000E+000	4.70000E-001	9.73192E-004	5	..........a	-327.66
	1053	210.8	4.59993E-001	2.01990E-008	0.00000E+000	4.60000E-001	9.66192E-004	5	..........a	-327.66
	1054	211	4.50048E-001	1.89422E-008	0.00000E+000	4.50000E-001	9.72192E-004	5	..........a	-327.66
	1055	211.2	4.39945E-001	1.76652E-008	0.00000E+000	4.40000E-001	9.84592E-004	5	..........a	-327.66
	1056	211.4	4.30022E-001	1.64408E-008	0.00000E+000	4.30000E-001	9.79592E-004	5	..........a	-327.66
	1057	211.6	4.20002E-001	1.50241E-008	0.00000E+000	4.20000E-001	9.77392E-004	5	..........a	-327.66
	1058	211.8	4.09951E-001	1.36075E-008	0.00000E+000	4.10000E-001	9.86092E-004	5	..........a	-327.66
	1059	212	4.00001E-001	1.22245E-008	0.00000E+000	4.00000E-001	9.66892E-004	5	..........a	-327.66
	1060	212.2	3.90045E-001	1.09327E-008	0.00000E+000	3.90000E-001	9.82692E-004	5	..........a	-327.66
	1061	212.4	3.80056E-001	9.66996E-009	0.00000E+000	3.80000E-001	9.68192E-004	5	..........a	-327.66
	1062	212.6	3.70019E-001	8.52345E-009	0.00000E+000	3.70000E-001	9.69992E-004	5	..........a	-327.66
	1063	212.8	3.59987E-001	7.27729E-009	0.00000E+000	3.60000E-001	9.73792E-004	5	..........a	-327.66
	1064	213	3.50028E-001	6.03743E-009	0.00000E+000	3.50000E-001	9.81992E-004	5	..........a	-327.66
	1065	213.2	3.40071E-001	4.81614E-009	0.00000E+000	3.40000E-001	9.73292E-004	5	..........a	-327.66
	1066	213.4	3.30008E-001	3.80563E-009	0.00000E+000	3.30000E-001	9.87492E-004	5	..........a	-327.66
	1067	213.6	3.20008E-001	2.62138E-009	0.00000E+000	3.20000E-001	9.99992E-004	5	..........a	-327.66
	1068	213.8	3.10018E-001	1.33429E-009	0.00000E+000	3.10000E-001	9.90892E-004	5	..........a	-327.66
	1069	214	3.00060E-001	-9.07569E-011	0.00000E+000	3.00000E-001	9.86792E-004	5	..........a	-327.66
	1070	214.2	2.90009E-001	-1.47399E-009	0.00000E+000	2.90000E-001	9.73392E-004	5	..........a	-327.66
	1071	214.4	2.80003E-001	-2.94510E-009	0.00000E+000	2.80000E-001	9.87792E-004	5	..........a	-327.66
	1072	214.6	2.70091E-001	-4.51076E-009	0.00000E+000	2.70000E-001	9.49992E-004	5	..........a	-327.66
	1073	214.8	2.60039E-001	-6.14674E-009	0.00000E+000	2.60000E-001	9.75592E-004	5	..........a	-327.66
	1074	215	2.50012E-001	-7.82439E-009	0.00000E+000	2.50000E-001	9.58692E-004	5	..........a	-327.66
	1075	215.2	2.40057E-001	-9.60566E-009	0.00000E+000	2.40000E-001	9.83392E-004	5	..........a	-327.66
	1076	215.4	2.30026E-001	-1.14735E-008	0.00000E+000	2.30000E-001	9.96092E-004	5	..........a	-327.66
	1077	215.6	2.20013E-001	-1.33652E-008	0.00000E+000	2.20000E-001	9.69192E-004	5	..........a	-327.66
	1078	215.8	2.10050E-001	-1.52511E-008	0.00000E+000	2.10000E-001	9.67592E-004	5	..........a	-327.66
	1079	216	2.00034E-001	-1.71133E-008	0.00000E+000	2.00000E-001	9.89192E-004	5	..........a	-327.66
	1080	216.2	1.90119E-001	-1.88572E-008	0.00000E+000	1.90000E-001	9.81792E-004	5	..........a	-327.66
	1081	216.4	1.80088E-001	-2.05095E-008	0.00000E+000	1.80000E-001	9.66092E-004	5	..........a	-327.66
	1082	216.6	1.70074E-001	-2.18933E-008	0.00000E+000	1.70000E-001	9.73792E-004	5	..........a	-327.66
	1083	216.8	1.60066E-001	-2.29907E-008	0.00000E+000	1.60000E-001	9.93092E-004	5	..........a	-327.66
	1084	217	1.50089E-001	-2.38187E-008	0.00000E+000	1.50000E-001	9.72692E-004	5	..........a	-327.66
	1085	217.2	1.40125E-001	-2.43771E-008	0.00000E+000	1.40000E-001	9.61792E-004	5	..........a	-327.66
	1086	217.4	1.30096E-001	-2.46085E-008	0.00000E+000	1.30000E-001	9.72592E-004	5	..........a	-327.66
	1087	217.6	1.20084E-001	-2.46256E-008	0.00000E+000	1.20000E-001	9.69492E-004	5	..........a	-327.66
	1088	217.8	1.10129E-001	-2.44173E-008	0.00000E+000	1.10000E-001	9.71992E-004	5	..........a	-327.66
	1089	218	1.00121E-001	-2.40637E-008	0.00000E+000	1.00000E-001	9.60392E-004	5	..........a	-327.66
	1090	218.2	9.01031E-002	-2.35848E-008	0.00000E+000	9.00000E-002	9.76892E-004	5	..........a	-327.66
	1091	218.4	8.00459E-002	-2.30346E-008	0.00000E+000	8.00000E-002	9.85292E-004	5	..........a	-327.66
	1092	218.6	7.00292E-002	-2.25184E-008	0.00000E+000	7.00000E-002	9.91392E-004	5	..........a	-327.66
	1093	218.8	6.00979E-002	-2.20527E-008	0.00000E+000	6.00000E-002	9.58692E-004	5	..........a	-327.66
	1094	219	5.00614E-002	-2.17832E-008	0.00000E+000	5.00000E-002	9.79592E-004	5	..........a	-327.66
	1095	219.2	4.01759E-002	-2.16195E-008	0.00000E+000	4.00000E-002	9.78292E-004	5	..........a	-327.66
	1096	219.4	3.00782E-002	-2.15963E-008	0.00000E+000	3.00000E-002	9.64392E-004	5	..........a	-327.66
	1097	219.6	2.01494E-002	-2.16952E-008	0.00000E+000	2.00000E-002	9.77692E-004	5	..........a	-327.66
	1098	219.8	1.01101E-002	-2.19060E-008	0.00000E+000	1.00000E-002	9.69792E-004	5	..........a	-327.66
	1099	220	2.86916E-005	-2.22079E-008	0.00000E+000	7.45058E-009	9.86092E-004	5	..........a	-327.66
	1100	220.2	-9.88791E-003	-2.26385E-008	0.00000E+000	-1.00000E-002	9.77192E-004	5	..........a	-327.66
	1101	220.4	-1.99166E-002	-2.31440E-008	0.00000E+000	-2.00000E-002	9.75292E-004	5	..........a	-327.66
	1102	220.6	-2.99288E-002	-2.37284E-008	0.00000E+000	-3.00000E-002	9.81992E-004	5	..........a	-327.66
	1103	220.8	-3.99171E-002	-2.43747E-008	0.00000E+000	-4.00000E-002	9.64892E-004	5	..........a	-327.66
	1104	221	-4.98795E-002	-2.50902E-008	0.00000E+000	-5.00000E-002	9.78892E-004	5	..........a	-327.66
	1105	221.2	-5.99156E-002	-2.58459E-008	0.00000E+000	-6.00000E-002	9.76992E-004	5	..........a	-327.66
	1106	221.4	-6.99042E-002	-2.66562E-008	0.00000E+000	-7.00000E-002	9.71592E-004	5	..........a	-327.66
	1107	221.6	-7.99591E-002	-2.74790E-008	0.00000E+000	-8.00000E-002	9.78792E-004	5	..........a	-327.66
	1108	221.8	-8.99061E-002	-2.83273E-008	0.00000E+000	-9.00000E-002	9.74992E-004	5	..........a	-327.66
	1109	222	-9.98894E-002	-2.91773E-008	0.00000E+000	-1.00000E-001	9.62792E-004	5	..........a	-327.66
	1110	222.2	-1.09927E-001	-3.00427E-008	0.00000E+000	-1.10000E-001	9.77292E-004	5	..........a	-327.66
	1111	222.4	-1.19911E-001	-3.09018E-008	0.00000E+000	-1.20000E-001	9.77992E-004	5	..........a	-327.66
	1112	222.6	-1.29912E-001	-3.17319E-008	0.00000E+000	-1.30000E-001	9.77192E-004	5	..........a	-327.66
	1113	222.8	-1.39949E-001	-3.25762E-008	0.00000E+000	-1.40000E-001	9.60292E-004	5	..........a	-327.66
	1114	223	-1.49950E-001	-3.34061E-008	0.00000E+000	-1.50000E-001	9.65692E-004	5	..........a	-327.66
	1115	223.2	-1.59917E-001	-3.42412E-008	0.00000E+000	-1.60000E-001	9.76292E-004	5	..........a	-327.66
	1116	223.4	-1.69877E-001	-3.50409E-008	0.00000E+000	-1.70000E-001	9.71392E-004	5	..........a	-327.66
	1117	223.6	-1.79909E-001	-3.59225E-008	0.00000E+000	-1.80000E-001	9.79992E-004	5	..........a	-327.66
	1118	223.8	-1.89907E-001	-3.67461E-008	0.00000E+000	-1.90000E-001	9.79092E-004	5	..........a	-327.66
	1119	224	-1.99953E-001	-3.76106E-008	0.00000E+000	-2.00000E-001	9.82692E-004	5	..........a	-327.66
	1120	224.2	-2.09899E-001	-3.84691E-008	0.00000E+000	-2.10000E-001	9.85692E-004	5	..........a	-327.66