File: example_project/raw_outputs/20240321_G_GM0016_HL03_E02_CV50.DTA
EXPLAIN
TAG	CV
TITLE	LABEL	Cyclic Voltammetry	Test &Identifier
DATE	LABEL	3/21/2024	Date
TIME	LABEL	16:38:34	Time
NOTES	NOTES	1	&Notes...

PSTAT	PSTAT	REF600P-43058	Potentiostat
VINIT	POTEN	0.00000E+000	T	Initial &E (V)
VLIMIT1	POTEN	-6.00000E-001	F	Scan Limit &1 (V)
VLIMIT2	POTEN	8.00000E-001	F	Scan Limit &2 (V)
VFINAL	POTEN	0.00000E+000	T	Final &E (V)
SCANRATE	QUANT	4.99999E+001	&Scan Rate (mV/s)
STEPSIZE	QUANT	1.00000E+001	St&ep Size (mV)
CYCLES	IQUANT	4	C&ycles (#)
IMODE	SELECTOR	1	I/E Range &Mode
IRANGE	QUANT	1.00000E-005	&Max Current (mA)
AREA	QUANT	1.00000E+000	Electrode &Area (cm^2)
ELECTRODETYPE	SELECTOR	0	Electrode Type
STRIPPING	TOGGLE	F	Used for Stripping
POLARITY	TOGGLE	F	Signal Polarity
CONDIT	TWOPARAM	F	1.50000E+001	0.00000E+000	Conditionin&g	Time(s)	E(V)
DELAY	TWOPARAM	T	1.00000E+001	0.00000E+000	Init. De&lay	Time(s)	Stab.(mV/s)
EQDELAY	QUANT	1.00000E+001	Equil. &Time (s)
IRCOMP	SELECTOR	0	IRCom&p
PFCOR	QUANT	5.00000E+001	PF Corr. (ohm)
SAMPLINGMODE	SELECTOR	1	Sampling &Mode
OCVCURVE	TABLE	39
	Pt	T	Vf	Vm	Ach	Over	Temp
	#	s	V vs. Ref.	V	V	bits	deg C
	0	0.258333	1.77651E-001	1.77651E-001	2.19289E-004	..........a	-327.66
	1	0.516667	1.77660E-001	1.78149E-001	2.16689E-004	..........a	-327.66
	2	0.775	1.77720E-001	1.78681E-001	2.21089E-004	..........a	-327.66
	3	1.03333	1.77893E-001	1.79232E-001	2.21556E-004	..........a	-327.66
	4	1.29167	1.78214E-001	1.79797E-001	2.15822E-004	..........a	-327.66
	5	1.55	1.78662E-001	1.80374E-001	2.20622E-004	..........a	-327.66
	6	1.80833	1.79188E-001	1.80948E-001	2.23689E-004	..........a	-327.66
	7	2.06667	1.79750E-001	1.81535E-001	2.22556E-004	..........a	-327.66
	8	2.325	1.80326E-001	1.82118E-001	2.21756E-004	..........a	-327.66
	9	2.58333	1.80907E-001	1.82701E-001	2.10956E-004	..........a	-327.66
	10	2.84167	1.81489E-001	1.83279E-001	2.28022E-004	..........a	-327.66
	11	3.1	1.82072E-001	1.83866E-001	2.24822E-004	..........a	-327.66
	12	3.35833	1.82654E-001	1.84447E-001	2.18556E-004	..........a	-327.66
	13	3.61667	1.83236E-001	1.85029E-001	2.20756E-004	..........a	-327.66
	14	3.875	1.83819E-001	1.85611E-001	2.31489E-004	..........a	-327.66
	15	4.13333	1.84402E-001	1.86198E-001	2.29822E-004	..........a	-327.66
	16	4.39167	1.84984E-001	1.86770E-001	2.22489E-004	..........a	-327.66
	17	4.65	1.85566E-001	1.87351E-001	2.21956E-004	..........a	-327.66
	18	4.90833	1.86147E-001	1.87919E-001	2.22422E-004	..........a	-327.66
	19	5.16667	1.86726E-001	1.88493E-001	2.29556E-004	..........a	-327.66
	20	5.425	1.87302E-001	1.89068E-001	2.23756E-004	..........a	-327.66
	21	5.68333	1.87876E-001	1.89636E-001	2.25422E-004	..........a	-327.66
	22	5.94167	1.88449E-001	1.90205E-001	2.23222E-004	..........a	-327.66
	23	6.2	1.89021E-001	1.90766E-001	2.26222E-004	..........a	-327.66
	24	6.45833	1.89590E-001	1.91331E-001	2.30022E-004	..........a	-327.66
	25	6.71667	1.90158E-001	1.91902E-001	2.28222E-004	..........a	-327.66
	26	6.975	1.90724E-001	1.92461E-001	2.21889E-004	..........a	-327.66
	27	7.23333	1.91289E-001	1.93022E-001	2.22022E-004	..........a	-327.66
	28	7.49167	1.91853E-001	1.93576E-001	2.30156E-004	..........a	-327.66
	29	7.75	1.92416E-001	1.94129E-001	2.35489E-004	..........a	-327.66
	30	8.00833	1.92975E-001	1.94684E-001	2.27356E-004	..........a	-327.66
	31	8.26667	1.93532E-001	1.95231E-001	2.24622E-004	..........a	-327.66
	32	8.525	1.94086E-001	1.95788E-001	2.29289E-004	..........a	-327.66
	33	8.78333	1.94639E-001	1.96334E-001	2.29822E-004	..........a	-327.66
	34	9.04167	1.95191E-001	1.96881E-001	2.33689E-004	..........a	-327.66
	35	9.3	1.95741E-001	1.97417E-001	2.24756E-004	..........a	-327.66
	36	9.5583	1.96289E-001	1.97954E-001	2.24756E-004	..........a	-327.66
	37	9.8167	1.96833E-001	1.98478E-001	2.23022E-004	..........a	-327.66
	38	10.075	1.97373E-001	1.99014E-001	2.26956E-004	..........a	-327.66
EOC	QUANT	0.1973726	Open Circuit (V)
PSTATMODEL	IQUANT	7	Pstat Model
PSTATSECTION	LABEL	REF600P-43058	Pstat Section
PSTATSERIALNO	LABEL	43058	Pstat Serial Number
CTRLMODE	IQUANT	1	Control Mode
ELECTROMETER	IQUANT	0	RE=0 or CS=1
IESTAB	IQUANT	2	I/E Stability
CASPEED	IQUANT	4	Control Amp Speed
CONVENTION	IQUANT	1	Current Convention
ICHRANGE	IQUANT	2	Ich Range
ICHRANGEMODE	TOGGLE	F	Ich Auto Range
ICHOFFSETENABLE	TOGGLE	F	Ich Offset Enable
ICHOFFSET	QUANT	0	Ich Offset (V)
ICHFILTER	IQUANT	2	Ich Filter
VCHRANGE	IQUANT	2	Vch Range
VCHRANGEMODE	TOGGLE	F	Vch Auto Range
VCHOFFSETENABLE	TOGGLE	F	Vch Offset Enable
VCHOFFSET	QUANT	0	Vch Offset (V)
VCHFILTER	IQUANT	2	Vch Filter
ACHRANGE	IQUANT	2	Ach Range
ACHOFFSETENABLE	TOGGLE	F	Ach Offset Enable
ACHOFFSET	QUANT	0	Ach Offset (V)
ACHFILTER	IQUANT	1	Ach Filter
IERANGELOWERLIMIT	IQUANT	1	I/E Range Lower Limit
IERANGEMODE	TOGGLE	F	I/E AutoRange
IERANGE	IQUANT	4	I/E Range
POSFEEDENABLE	TOGGLE	F	Positive Feedback IR Comp
POSFEEDRESISTANCE	QUANT	0	Positive Feedback Resistance (ohm)
ACHSELECT	IQUANT	4	Ach Select
SENSECABLEID	IQUANT	7	Sense Cable ID
PWRCABLEID	IQUANT	7	Power Cable ID
DCCALDATE	LABEL	12/18/2023	DC Calibration Date
ACCALDATE	LABEL	12/18/2023	AC Calibration Date
THERMOSELECT	IQUANT	1	Thermo Select
FRAMEWORKVERSION	LABEL	7.8.4	Framework Version
INSTRUMENTVERSION	LABEL	4.42	Instrument Version
CURVE1	TABLE
	Pt	T	Vf	Im	Vu	Sig	Ach	IERange	Over	Temp
	#	s	V vs. Ref.	A	V	V	V	#	bits	deg C
	0	0.2	1.97411E-001	1.72415E-011	0.00000E+000	1.97350E-001	9.58822E-004	4	..........a	-327.66
	1	0.4	1.87375E-001	-1.07956E-011	0.00000E+000	1.87350E-001	9.64422E-004	4	..........a	-327.66
	2	0.6	1.77285E-001	-2.02660E-011	0.00000E+000	1.77350E-001	9.77422E-004	4	..........a	-327.66
	3	0.8	1.67397E-001	-2.45441E-011	0.00000E+000	1.67350E-001	9.69522E-004	4	..........a	-327.66
	4	1	1.57487E-001	-2.79913E-011	0.00000E+000	1.57350E-001	9.70022E-004	4	..........a	-327.66
	5	1.2	1.47344E-001	-3.16834E-011	0.00000E+000	1.47350E-001	9.69122E-004	4	..........a	-327.66
	6	1.4	1.37371E-001	-3.37865E-011	0.00000E+000	1.37350E-001	9.68422E-004	4	..........a	-327.66
	7	1.6	1.27348E-001	-3.63246E-011	0.00000E+000	1.27350E-001	9.72322E-004	4	..........a	-327.66
	8	1.8	1.17470E-001	-3.68486E-011	0.00000E+000	1.17350E-001	9.63422E-004	4	..........a	-327.66
	9	2	1.07398E-001	-3.88597E-011	0.00000E+000	1.07350E-001	9.64122E-004	4	..........a	-327.66
	10	2.2	9.73853E-002	-3.97647E-011	0.00000E+000	9.73500E-002	9.69322E-004	4	..........a	-327.66
	11	2.4	8.74051E-002	-4.11378E-011	0.00000E+000	8.73500E-002	9.66122E-004	4	..........a	-327.66
	12	2.6	7.74194E-002	-4.25018E-011	0.00000E+000	7.73500E-002	9.56922E-004	4	..........a	-327.66
	13	2.8	6.73860E-002	-4.43459E-011	0.00000E+000	6.73500E-002	9.72422E-004	4	..........a	-327.66
	14	3	5.73659E-002	-4.61470E-011	0.00000E+000	5.73500E-002	9.74822E-004	4	..........a	-327.66
	15	3.2	4.73691E-002	-4.84031E-011	0.00000E+000	4.73500E-002	9.76322E-004	4	..........a	-327.66
	16	3.4	3.74181E-002	-5.00701E-011	0.00000E+000	3.73500E-002	9.56722E-004	4	..........a	-327.66
	17	3.6	2.73765E-002	-5.14082E-011	0.00000E+000	2.73500E-002	9.76122E-004	4	..........a	-327.66
	18	3.8	1.73656E-002	-5.26712E-011	0.00000E+000	1.73500E-002	9.76922E-004	4	..........a	-327.66
	19	4	7.40999E-003	-5.51553E-011	0.00000E+000	7.35001E-003	9.65322E-004	4	..........a	-327.66
	20	4.2	-2.51281E-003	-5.63194E-011	0.00000E+000	-2.64999E-003	9.54822E-004	4	..........a	-327.66
	21	4.4	-1.26256E-002	-5.82864E-011	0.00000E+000	-1.26500E-002	9.61922E-004	4	..........a	-327.66
	22	4.6	-2.26640E-002	-5.99825E-011	0.00000E+000	-2.26500E-002	9.74822E-004	4	..........a	-327.66
	23	4.8	-3.26680E-002	-6.23926E-011	0.00000E+000	-3.26500E-002	9.69322E-004	4	..........a	-327.66
	24	5	-4.25948E-002	-6.53107E-011	0.00000E+000	-4.26500E-002	9.52222E-004	4	..........a	-327.66
	25	5.2	-5.26314E-002	-6.76558E-011	0.00000E+000	-5.26500E-002	9.52522E-004	4	..........a	-327.66
	26	5.4	-6.25535E-002	-6.98379E-011	0.00000E+000	-6.26500E-002	9.68022E-004	4	..........a	-327.66
	27	5.6	-7.26053E-002	-7.24630E-011	0.00000E+000	-7.26500E-002	9.57122E-004	4	..........a	-327.66
	28	5.8	-8.25618E-002	-7.55331E-011	0.00000E+000	-8.26500E-002	9.44222E-004	4	..........a	-327.66
	29	6	-9.26077E-002	-7.87802E-011	0.00000E+000	-9.26500E-002	9.52822E-004	4	..........a	-327.66
	30	6.2	-1.02674E-001	-8.15523E-011	0.00000E+000	-1.02650E-001	9.76822E-004	4	..........a	-327.66
	31	6.4	-1.12634E-001	-8.54935E-011	0.00000E+000	-1.12650E-001	9.75622E-004	4	..........a	-327.66
	32	6.6	-1.22578E-001	-8.94826E-011	0.00000E+000	-1.22650E-001	9.58922E-004	4	..........a	-327.66
	33	6.8	-1.32630E-001	-9.35088E-011	0.00000E+000	-1.32650E-001	9.63122E-004	4	..........a	-327.66
	34	7	-1.42628E-001	-9.75259E-011	0.00000E+000	-1.42650E-001	9.84222E-004	4	..........a	-327.66
	35	7.2	-1.52622E-001	-1.02760E-010	0.00000E+000	-1.52650E-001	9.63222E-004	4	..........a	-327.66
	36	7.4	-1.62558E-001	-1.07436E-010	0.00000E+000	-1.62650E-001	9.67322E-004	4	..........a	-327.66
	37	7.6	-1.72619E-001	-1.12652E-010	0.00000E+000	-1.72650E-001	9.63522E-004	4	..........a	-327.66
	38	7.8	-1.82678E-001	-1.18331E-010	0.00000E+000	-1.82650E-001	9.76722E-004	4	..........a	-327.66
	39	8	-1.92607E-001	-1.24473E-010	0.00000E+000	-1.92650E-001	9.82022E-004	4	..........a	-327.66
	40	8.2	-2.02558E-001	-1.31307E-010	0.00000E+000	-2.02650E-001	9.65722E-004	4	..........a	-327.66
	41	8.4	-2.12657E-001	-1.38942E-010	0.00000E+000	-2.12650E-001	9.61022E-004	4	..........a	-327.66
	42	8.6	-2.22615E-001	-1.45923E-010	0.00000E+000	-2.22650E-001	9.62722E-004	4	..........a	-327.66
	43	8.8	-2.32607E-001	-1.54009E-010	0.00000E+000	-2.32650E-001	9.63122E-004	4	..........a	-327.66
	44	9	-2.42454E-001	-1.62243E-010	0.00000E+000	-2.42650E-001	9.81722E-004	4	..........a	-327.66
	45	9.2	-2.52595E-001	-1.71329E-010	0.00000E+000	-2.52650E-001	9.47922E-004	4	..........a	-327.66
	46	9.4	-2.62639E-001	-1.80499E-010	0.00000E+000	-2.62650E-001	9.77022E-004	4	..........a	-327.66
	47	9.6	-2.72595E-001	-1.91163E-010	0.00000E+000	-2.72650E-001	9.73022E-004	4	..........a	-327.66
	48	9.8	-2.82553E-001	-2.01391E-010	0.00000E+000	-2.82650E-001	9.82222E-004	4	..........a	-327.66
	49	10	-2.92587E-001	-2.12473E-010	0.00000E+000	-2.92650E-001	9.78722E-004	4	..........a	-327.66
	50	10.2	-3.02596E-001	-2.24382E-010	0.00000E+000	-3.02650E-001	9.68922E-004	4	..........a	-327.66
	51	10.4	-3.12598E-001	-2.36685E-010	0.00000E+000	-3.12650E-001	9.61622E-004	4	..........a	-327.66
	52	10.6	-3.22565E-001	-2.48924E-010	0.00000E+000	-3.22650E-001	9.76922E-004	4	..........a	-327.66
	53	10.8	-3.32604E-001	-2.62050E-010	0.00000E+000	-3.32650E-001	9.64422E-004	4	..........a	-327.66
	54	11	-3.42579E-001	-2.75132E-010	0.00000E+000	-3.42650E-001	9.59722E-004	4	..........a	-327.66
	55	11.2	-3.52591E-001	-2.91909E-010	0.00000E+000	-3.52650E-001	9.68322E-004	4	..........a	-327.66
	56	11.4	-3.62508E-001	-3.04841E-010	0.00000E+000	-3.62650E-001	9.69622E-004	4	..........a	-327.66
	57	11.6	-3.72582E-001	-3.20752E-010	0.00000E+000	-3.72650E-001	9.71522E-004	4	..........a	-327.66
	58	11.8	-3.82561E-001	-3.34114E-010	0.00000E+000	-3.82650E-001	9.76222E-004	4	..........a	-327.66
	59	12	-3.92584E-001	-3.50305E-010	0.00000E+000	-3.92650E-001	9.75322E-004	4	..........a	-327.66
	60	12.2	-4.02557E-001	-3.66584E-010	0.00000E+000	-4.02650E-001	9.72122E-004	4	..........a	-327.66
	61	12.4	-4.12572E-001	-3.83529E-010	0.00000E+000	-4.12650E-001	9.72022E-004	4	..........a	-327.66
	62	12.6	-4.22496E-001	-4.01875E-010	0.00000E+000	-4.22650E-001	9.73922E-004	4	..........a	-327.66
	63	12.8	-4.32570E-001	-4.20710E-010	0.00000E+000	-4.32650E-001	9.66622E-004	4	..........a	-327.66
	64	13	-4.42450E-001	-4.38683E-010	0.00000E+000	-4.42650E-001	9.90022E-004	4	..........a	-327.66
	65	13.2	-4.52565E-001	-4.57726E-010	0.00000E+000	-4.52650E-001	9.60022E-004	4	..........a	-327.66
	66	13.4	-4.62483E-001	-4.76261E-010	0.00000E+000	-4.62650E-001	9.81522E-004	4	..........a	-327.66
	67	13.6	-4.72558E-001	-4.99057E-010	0.00000E+000	-4.72650E-001	9.71422E-004	4	..........a	-327.66
	68	13.8	-4.82512E-001	-5.22458E-010	0.00000E+000	-4.82650E-001	9.76022E-004	4	..........a	-327.66
	69	14	-4.92562E-001	-5.47755E-010	0.00000E+000	-4.92650E-001	9.52322E-004	4	..........a	-327.66
	70	14.2	-5.02549E-001	-5.73779E-010	0.00000E+000	-5.02650E-001	9.79722E-004	4	..........a	-327.66
	71	14.4	-5.12578E-001	-6.01904E-010	0.00000E+000	-5.12650E-001	9.72422E-004	4	..........a	-327.66
	72	14.6	-5.22478E-001	-6.33395E-010	0.00000E+000	-5.22650E-001	9.64122E-004	4	..........a	-327.66
	73	14.8	-5.32570E-001	-6.68797E-010	0.00000E+000	-5.32650E-001	9.77322E-004	4	..........a	-327.66
	74	15	-5.42566E-001	-7.06017E-010	0.00000E+000	-5.42650E-001	9.84622E-004	4	..........a	-327.66
	75	15.2	-5.52565E-001	-7.48668E-010	0.00000E+000	-5.52650E-001	9.69122E-004	4	..........a	-327.66
	76	15.4	-5.62479E-001	-7.96619E-010	0.00000E+000	-5.62650E-001	9.71722E-004	4	..........a	-327.66
	77	15.6	-5.72554E-001	-8.45880E-010	0.00000E+000	-5.72650E-001	9.62322E-004	4	..........a	-327.66
	78	15.8	-5.82582E-001	-9.04182E-010	0.00000E+000	-5.82650E-001	9.71122E-004	4	..........a	-327.66
	79	16	-5.92555E-001	-9.70620E-010	0.00000E+000	-5.92650E-001	9.65122E-004	4	..........a	-327.66
	80	16.2	-6.02533E-001	-1.04518E-009	0.00000E+000	-6.02650E-001	9.61422E-004	4	..........a	-327.66
	81	16.4	-5.92552E-001	-8.03207E-010	0.00000E+000	-5.92650E-001	9.77722E-004	4	..........a	-327.66
	82	16.6	-5.82595E-001	-6.45299E-010	0.00000E+000	-5.82650E-001	9.71722E-004	4	..........a	-327.66
	83	16.8	-5.72551E-001	-5.38105E-010	0.00000E+000	-5.72650E-001	9.68422E-004	4	..........a	-327.66
	84	17	-5.62528E-001	-4.56077E-010	0.00000E+000	-5.62650E-001	9.77622E-004	4	..........a	-327.66
	85	17.2	-5.52587E-001	-3.88428E-010	0.00000E+000	-5.52650E-001	9.80122E-004	4	..........a	-327.66
	86	17.4	-5.42530E-001	-3.31130E-010	0.00000E+000	-5.42650E-001	9.77622E-004	4	..........a	-327.66
	87	17.6	-5.32561E-001	-2.85825E-010	0.00000E+000	-5.32650E-001	9.54422E-004	4	..........a	-327.66
	88	17.8	-5.22471E-001	-2.39083E-010	0.00000E+000	-5.22650E-001	9.78422E-004	4	..........a	-327.66
	89	18	-5.12597E-001	-2.01776E-010	0.00000E+000	-5.12650E-001	9.69622E-004	4	..........a	-327.66
	90	18.2	-5.02576E-001	-1.67644E-010	0.00000E+000	-5.02650E-001	9.73522E-004	4	..........a	-327.66
	91	18.4	-4.92563E-001	-1.36537E-010	0.00000E+000	-4.92650E-001	9.64722E-004	4	..........a	-327.66
	92	18.6	-4.82490E-001	-1.08952E-010	0.00000E+000	-4.82650E-001	9.46722E-004	4	..........a	-327.66
	93	18.8	-4.72557E-001	-8.39374E-011	0.00000E+000	-4.72650E-001	9.54022E-004	4	..........a	-327.66
	94	19	-4.62572E-001	-6.21046E-011	0.00000E+000	-4.62650E-001	9.93622E-004	4	..........a	-327.66
	95	19.2	-4.52569E-001	-4.19378E-011	0.00000E+000	-4.52650E-001	9.61022E-004	4	..........a	-327.66
	96	19.4	-4.42431E-001	-2.27771E-011	0.00000E+000	-4.42650E-001	9.81422E-004	4	..........a	-327.66
	97	19.6	-4.32579E-001	-6.29044E-012	0.00000E+000	-4.32650E-001	9.85522E-004	4	..........a	-327.66
	98	19.8	-4.22568E-001	9.45516E-012	0.00000E+000	-4.22650E-001	9.67922E-004	4	..........a	-327.66
	99	20	-4.12576E-001	2.46767E-011	0.00000E+000	-4.12650E-001	9.60522E-004	4	..........a	-327.66
	100	20.2	-4.02559E-001	3.67612E-011	0.00000E+000	-4.02650E-001	9.62322E-004	4	..........a	-327.66
	101	20.4	-3.92601E-001	4.76276E-011	0.00000E+000	-3.92650E-001	9.83622E-004	4	..........a	-327.66
	102	20.6	-3.82610E-001	5.75730E-011	0.00000E+000	-3.82650E-001	9.79322E-004	4	..........a	-327.66
	103	20.8	-3.72588E-001	6.71574E-011	0.00000E+000	-3.72650E-001	9.69522E-004	4	..........a	-327.66
	104	21	-3.62479E-001	7.57127E-011	0.00000E+000	-3.62650E-001	9.68322E-004	4	..........a	-327.66
	105	21.2	-3.52590E-001	8.30280E-011	0.00000E+000	-3.52650E-001	9.74122E-004	4	..........a	-327.66
	106	21.4	-3.42563E-001	8.96952E-011	0.00000E+000	-3.42650E-001	9.74722E-004	4	..........a	-327.66
	107	21.6	-3.32619E-001	9.48004E-011	0.00000E+000	-3.32650E-001	9.77122E-004	4	..........a	-327.66
	108	21.8	-3.22554E-001	1.01058E-010	0.00000E+000	-3.22650E-001	9.58422E-004	4	..........a	-327.66
	109	22	-3.12584E-001	1.06784E-010	0.00000E+000	-3.12650E-001	9.66522E-004	4	..........a	-327.66
	110	22.2	-3.02655E-001	1.12426E-010	0.00000E+000	-3.02650E-001	9.71522E-004	4	..........a	-327.66
	111	22.4	-2.92948E-001	1.14622E-010	0.00000E+000	-2.92650E-001	9.73622E-004	4	..........a	-327.66
	112	22.6	-2.82478E-001	1.24655E-010	0.00000E+000	-2.82650E-001	9.56822E-004	4	..........a	-327.66
	113	22.8	-2.72573E-001	1.20826E-010	0.00000E+000	-2.72650E-001	9.62922E-004	4	..........a	-327.66
	114	23	-2.62626E-001	1.25201E-010	0.00000E+000	-2.62650E-001	9.61122E-004	4	..........a	-327.66
	115	23.2	-2.52600E-001	1.24549E-010	0.00000E+000	-2.52650E-001	9.78822E-004	4	..........a	-327.66
	116	23.4	-2.42459E-001	1.26289E-010	0.00000E+000	-2.42650E-001	9.74722E-004	4	..........a	-327.66
	117	23.6	-2.32618E-001	1.28617E-010	0.00000E+000	-2.32650E-001	9.66922E-004	4	..........a	-327.66
	118	23.8	-2.22602E-001	1.28767E-010	0.00000E+000	-2.22650E-001	9.65322E-004	4	..........a	-327.66
	119	24	-2.12596E-001	1.29647E-010	0.00000E+000	-2.12650E-001	9.64922E-004	4	..........a	-327.66
	120	24.2	-2.02552E-001	1.29856E-010	0.00000E+000	-2.02650E-001	9.67522E-004	4	..........a	-327.66
	121	24.4	-1.92603E-001	1.30261E-010	0.00000E+000	-1.92650E-001	9.76722E-004	4	..........a	-327.66
	122	24.6	-1.82656E-001	1.29821E-010	0.00000E+000	-1.82650E-001	9.71222E-004	4	..........a	-327.66
	123	24.8	-1.72607E-001	1.30051E-010	0.00000E+000	-1.72650E-001	9.71222E-004	4	..........a	-327.66
	124	25	-1.62467E-001	1.29804E-010	0.00000E+000	-1.62650E-001	9.88122E-004	4	..........a	-327.66
	125	25.2	-1.52630E-001	1.29416E-010	0.00000E+000	-1.52650E-001	9.80622E-004	4	..........a	-327.66
	126	25.4	-1.42618E-001	1.29461E-010	0.00000E+000	-1.42650E-001	9.44322E-004	4	..........a	-327.66
	127	25.6	-1.32649E-001	1.28237E-010	0.00000E+000	-1.32650E-001	9.75122E-004	4	..........a	-327.66
	128	25.8	-1.22577E-001	1.28704E-010	0.00000E+000	-1.22650E-001	9.60822E-004	4	..........a	-327.66
	129	26	-1.12607E-001	1.27906E-010	0.00000E+000	-1.12650E-001	9.62422E-004	4	..........a	-327.66
	130	26.2	-1.02639E-001	1.28446E-010	0.00000E+000	-1.02650E-001	9.65122E-004	4	..........a	-327.66
	131	26.4	-9.26097E-002	1.26113E-010	0.00000E+000	-9.26500E-002	9.59122E-004	4	..........a	-327.66
	132	26.6	-8.25119E-002	1.25828E-010	0.00000E+000	-8.26500E-002	9.58022E-004	4	..........a	-327.66
	133	26.8	-7.26217E-002	1.27021E-010	0.00000E+000	-7.26500E-002	9.58522E-004	4	..........a	-327.66
	134	27	-6.26489E-002	1.24817E-010	0.00000E+000	-6.26500E-002	9.75722E-004	4	..........a	-327.66
	135	27.2	-5.26166E-002	1.27296E-010	0.00000E+000	-5.26500E-002	9.71422E-004	4	..........a	-327.66
	136	27.4	-4.25868E-002	1.25308E-010	0.00000E+000	-4.26500E-002	9.68522E-004	4	..........a	-327.66
	137	27.6	-3.26264E-002	1.27066E-010	0.00000E+000	-3.26500E-002	9.75922E-004	4	..........a	-327.66
	138	27.8	-2.26625E-002	1.25400E-010	0.00000E+000	-2.26500E-002	9.70522E-004	4	..........a	-327.66
	139	28	-1.26223E-002	1.25721E-010	0.00000E+000	-1.26500E-002	9.69022E-004	4	..........a	-327.66
	140	28.2	-2.55566E-003	1.24778E-010	0.00000E+000	-2.64999E-003	9.74622E-004	4	..........a	-327.66
	141	28.4	7.39684E-003	1.25893E-010	0.00000E+000	7.35001E-003	9.72122E-004	4	..........a	-327.66
	142	28.6	1.73790E-002	1.28357E-010	0.00000E+000	1.73500E-002	9.84322E-004	4	..........a	-327.66
	143	28.8	2.73540E-002	1.26893E-010	0.00000E+000	2.73500E-002	9.90722E-004	4	..........a	-327.66
	144	29	3.74374E-002	1.29374E-010	0.00000E+000	3.73500E-002	9.58222E-004	4	..........a	-327.66
	145	29.2	4.73493E-002	1.28997E-010	0.00000E+000	4.73500E-002	9.76122E-004	4	..........a	-327.66
	146	29.4	5.73802E-002	1.30754E-010	0.00000E+000	5.73500E-002	9.75622E-004	4	..........a	-327.66
	147	29.6	6.73881E-002	1.31605E-010	0.00000E+000	6.73500E-002	9.78122E-004	4	..........a	-327.66
	148	29.8	7.75211E-002	1.33256E-010	0.00000E+000	7.73500E-002	9.86722E-004	4	..........a	-327.66
	149	30	8.73961E-002	1.34496E-010	0.00000E+000	8.73500E-002	9.74222E-004	4	..........a	-327.66
	150	30.2	9.73462E-002	1.36599E-010	0.00000E+000	9.73500E-002	9.81522E-004	4	..........a	-327.66
	151	30.4	1.07397E-001	1.37883E-010	0.00000E+000	1.07350E-001	9.95622E-004	4	..........a	-327.66
	152	30.6	1.17360E-001	1.40022E-010	0.00000E+000	1.17350E-001	9.83422E-004	4	..........a	-327.66
	153	30.8	1.27348E-001	1.41505E-010	0.00000E+000	1.27350E-001	1.01042E-003	4	..........a	-327.66
	154	31	1.37372E-001	1.44071E-010	0.00000E+000	1.37350E-001	9.79622E-004	4	..........a	-327.66
	155	31.2	1.47393E-001	1.47131E-010	0.00000E+000	1.47350E-001	9.76722E-004	4	..........a	-327.66
	156	31.4	1.57435E-001	1.49455E-010	0.00000E+000	1.57350E-001	9.69422E-004	4	..........a	-327.66
	157	31.6	1.67405E-001	1.58675E-010	0.00000E+000	1.67350E-001	9.57722E-004	4	..........a	-327.66
	158	31.8	1.77351E-001	1.58050E-010	0.00000E+000	1.77350E-001	9.74622E-004	4	..........a	-327.66
	159	32	1.87400E-001	1.60578E-010	0.00000E+000	1.87350E-001	9.79422E-004	4	..........a	-327.66
	160	32.2	1.97503E-001	1.61379E-010	0.00000E+000	1.97350E-001	9.82822E-004	4	..........a	-327.66
	161	32.4	2.07302E-001	1.64636E-010	0.00000E+000	2.07350E-001	9.75222E-004	4	..........a	-327.66
	162	32.6	2.17375E-001	1.69595E-010	0.00000E+000	2.17350E-001	9.72022E-004	4	..........a	-327.66
	163	32.8	2.27342E-001	1.72663E-010	0.00000E+000	2.27350E-001	9.84622E-004	4	..........a	-327.66
	164	33	2.37394E-001	1.76654E-010	0.00000E+000	2.37350E-001	9.67722E-004	4	..........a	-327.66
	165	33.2	2.47319E-001	1.81496E-010	0.00000E+000	2.47350E-001	9.75822E-004	4	..........a	-327.66
	166	33.4	2.57320E-001	1.85599E-010	0.00000E+000	2.57350E-001	9.74822E-004	4	..........a	-327.66
	167	33.6	2.67370E-001	1.90953E-010	0.00000E+000	2.67350E-001	9.80022E-004	4	..........a	-327.66
	168	33.8	2.77481E-001	1.95289E-010	0.00000E+000	2.77350E-001	9.80422E-004	4	..........a	-327.66
	169	34	2.87370E-001	2.00038E-010	0.00000E+000	2.87350E-001	9.70322E-004	4	..........a	-327.66
	170	34.2	2.97360E-001	2.05724E-010	0.00000E+000	2.97350E-001	9.82522E-004	4	..........a	-327.66
	171	34.4	3.07347E-001	2.10518E-010	0.00000E+000	3.07350E-001	9.81122E-004	4	..........a	-327.66
	172	34.6	3.17394E-001	2.16105E-010	0.00000E+000	3.17350E-001	9.66322E-004	4	..........a	-327.66
	173	34.8	3.27368E-001	2.20594E-010	0.00000E+000	3.27350E-001	9.65822E-004	4	..........a	-327.66
	174	35	3.37303E-001	2.28040E-010	0.00000E+000	3.37350E-001	9.94322E-004	4	..........a	-327.66
	175	35.2	3.47086E-001	2.34938E-010	0.00000E+000	3.47350E-001	9.69822E-004	4	..........a	-327.66
	176	35.4	3.57388E-001	2.41562E-010	0.00000E+000	3.57350E-001	9.71222E-004	4	..........a	-327.66
	177	35.6	3.67336E-001	2.48955E-010	0.00000E+000	3.67350E-001	9.85722E-004	4	..........a	-327.66
	178	35.8	3.77302E-001	2.56553E-010	0.00000E+000	3.77350E-001	9.81322E-004	4	..........a	-327.66
	179	36	3.87279E-001	2.63855E-010	0.00000E+000	3.87350E-001	9.77922E-004	4	..........a	-327.66
	180	36.2	3.97395E-001	2.71087E-010	0.00000E+000	3.97350E-001	9.84122E-004	4	..........a	-327.66
	181	36.4	4.07265E-001	2.79528E-010	0.00000E+000	4.07350E-001	9.87322E-004	4	..........a	-327.66
	182	36.6	4.17286E-001	2.88026E-010	0.00000E+000	4.17350E-001	9.74022E-004	4	..........a	-327.66
	183	36.8	4.27238E-001	2.95849E-010	0.00000E+000	4.27350E-001	9.75022E-004	4	..........a	-327.66
	184	37	4.37354E-001	3.04520E-010	0.00000E+000	4.37350E-001	9.79222E-004	4	..........a	-327.66
	185	37.2	4.47353E-001	3.13250E-010	0.00000E+000	4.47350E-001	9.66822E-004	4	..........a	-327.66
	186	37.4	4.57240E-001	3.22714E-010	0.00000E+000	4.57350E-001	9.74922E-004	4	..........a	-327.66
	187	37.6	4.67306E-001	3.31949E-010	0.00000E+000	4.67350E-001	9.70822E-004	4	..........a	-327.66
	188	37.8	4.77348E-001	3.40786E-010	0.00000E+000	4.77350E-001	9.80122E-004	4	..........a	-327.66
	189	38	4.87314E-001	3.50212E-010	0.00000E+000	4.87350E-001	9.65822E-004	4	..........a	-327.66
	190	38.2	4.97318E-001	3.59869E-010	0.00000E+000	4.97350E-001	9.88722E-004	4	..........a	-327.66
	191	38.4	5.07269E-001	3.69479E-010	0.00000E+000	5.07350E-001	9.84822E-004	4	..........a	-327.66
	192	38.6	5.17345E-001	3.79159E-010	0.00000E+000	5.17350E-001	9.79822E-004	4	..........a	-327.66
	193	38.8	5.27333E-001	3.87776E-010	0.00000E+000	5.27350E-001	9.73622E-004	4	..........a	-327.66
	194	39	5.37251E-001	3.96679E-010	0.00000E+000	5.37350E-001	9.77022E-004	4	..........a	-327.66
	195	39.2	5.47347E-001	4.05520E-010	0.00000E+000	5.47350E-001	9.97222E-004	4	..........a	-327.66
	196	39.4	5.57406E-001	4.14127E-010	0.00000E+000	5.57350E-001	9.72922E-004	4	..........a	-327.66
	197	39.6	5.67275E-001	4.22716E-010	0.00000E+000	5.67350E-001	9.89522E-004	4	..........a	-327.66
	198	39.8	5.77421E-001	4.31893E-010	0.00000E+000	5.77350E-001	9.80422E-004	4	..........a	-327.66
	199	40	5.87294E-001	4.40277E-010	0.00000E+000	5.87350E-001	9.89122E-004	4	..........a	-327.66
	200	40.2	5.97341E-001	4.49664E-010	0.00000E+000	5.97350E-001	9.71422E-004	4	..........a	-327.66
	201	40.4	6.07294E-001	4.58489E-010	0.00000E+000	6.07350E-001	9.98622E-004	4	..........a	-327.66
	202	40.6	6.17256E-001	4.67844E-010	0.00000E+000	6.17350E-001	9.84522E-004	4	..........a	-327.66
	203	40.8	6.27273E-001	4.76838E-010	0.00000E+000	6.27350E-001	9.70522E-004	4	..........a	-327.66
	204	41	6.37341E-001	4.86557E-010	0.00000E+000	6.37350E-001	9.75422E-004	4	..........a	-327.66
	205	41.2	6.47317E-001	4.97754E-010	0.00000E+000	6.47350E-001	9.79122E-004	4	..........a	-327.66
	206	41.4	6.57199E-001	5.08305E-010	0.00000E+000	6.57350E-001	9.93422E-004	4	..........a	-327.66
	207	41.6	6.67244E-001	5.18497E-010	0.00000E+000	6.67350E-001	9.94222E-004	4	..........a	-327.66
	208	41.8	6.77275E-001	5.30975E-010	0.00000E+000	6.77350E-001	9.73722E-004	4	..........a	-327.66
	209	42	6.87271E-001	5.43265E-010	0.00000E+000	6.87350E-001	9.83622E-004	4	..........a	-327.66
	210	42.2	6.97228E-001	5.54633E-010	0.00000E+000	6.97350E-001	9.87622E-004	4	..........a	-327.66
	211	42.4	7.07282E-001	5.67819E-010	0.00000E+000	7.07350E-001	9.83722E-004	4	..........a	-327.66
	212	42.6	7.17311E-001	5.82829E-010	0.00000E+000	7.17350E-001	9.65122E-004	4	..........a	-327.66
	213	42.8	7.27327E-001	5.98805E-010	0.00000E+000	7.27350E-001	9.85022E-004	4	..........a	-327.66
	214	43	7.37272E-001	6.15820E-010	0.00000E+000	7.37350E-001	9.67822E-004	4	..........a	-327.66
	215	43.2	7.47287E-001	6.37890E-010	0.00000E+000	7.47350E-001	9.80022E-004	4	..........a	-327.66
	216	43.4	7.57043E-001	6.55400E-010	0.00000E+000	7.57350E-001	9.69422E-004	4	..........a	-327.66
	217	43.6	7.67308E-001	6.77342E-010	0.00000E+000	7.67350E-001	9.95422E-004	4	..........a	-327.66
	218	43.8	7.77288E-001	6.99330E-010	0.00000E+000	7.77350E-001	9.68722E-004	4	..........a	-327.66
	219	44	7.87276E-001	7.22831E-010	0.00000E+000	7.87350E-001	9.90522E-004	4	..........a	-327.66
	220	44.2	7.97279E-001	7.49838E-010	0.00000E+000	7.97350E-001	9.98022E-004	4	..........a	-327.66
CURVE2	TABLE
	Pt	T	Vf	Im	Vu	Sig	Ach	IERange	Over	Temp
	#	s	V vs. Ref.	A	V	V	V	#	bits	deg C
	221	44.4	7.89917E-001	5.55364E-010	0.00000E+000	7.90000E-001	9.82122E-004	4	..........a	-327.66
	222	44.6	7.79957E-001	4.07541E-010	0.00000E+000	7.80000E-001	9.78322E-004	4	..........a	-327.66
	223	44.8	7.69839E-001	3.04800E-010	0.00000E+000	7.70000E-001	9.75822E-004	4	..........a	-327.66
	224	45	7.59956E-001	2.31243E-010	0.00000E+000	7.60000E-001	9.83522E-004	4	..........a	-327.66
	225	45.2	7.49915E-001	1.73362E-010	0.00000E+000	7.50000E-001	9.69122E-004	4	..........a	-327.66
	226	45.4	7.39993E-001	1.30545E-010	0.00000E+000	7.40000E-001	9.94722E-004	4	..........a	-327.66
	227	45.6	7.29949E-001	9.26664E-011	0.00000E+000	7.30000E-001	9.73322E-004	4	..........a	-327.66
	228	45.8	7.19883E-001	6.40993E-011	0.00000E+000	7.20000E-001	9.61422E-004	4	..........a	-327.66
	229	46	7.09931E-001	4.15474E-011	0.00000E+000	7.10000E-001	9.86822E-004	4	..........a	-327.66
	230	46.2	6.99961E-001	2.41807E-011	0.00000E+000	7.00000E-001	9.73722E-004	4	..........a	-327.66
	231	46.4	6.89901E-001	6.18104E-012	0.00000E+000	6.90000E-001	9.62622E-004	4	..........a	-327.66
	232	46.6	6.79813E-001	-7.91150E-012	0.00000E+000	6.80000E-001	9.75222E-004	4	..........a	-327.66
	233	46.8	6.69910E-001	-2.02700E-011	0.00000E+000	6.70000E-001	9.80722E-004	4	..........a	-327.66
	234	47	6.60001E-001	-3.15294E-011	0.00000E+000	6.60000E-001	9.78422E-004	4	..........a	-327.66
	235	47.2	6.49929E-001	-3.97627E-011	0.00000E+000	6.50000E-001	9.60422E-004	4	..........a	-327.66
	236	47.4	6.39918E-001	-4.82731E-011	0.00000E+000	6.40000E-001	9.83422E-004	4	..........a	-327.66
	237	47.6	6.29946E-001	-5.58663E-011	0.00000E+000	6.30000E-001	9.74322E-004	4	..........a	-327.66
	238	47.8	6.19997E-001	-6.20816E-011	0.00000E+000	6.20000E-001	9.79522E-004	4	..........a	-327.66
	239	48	6.09979E-001	-6.91069E-011	0.00000E+000	6.10000E-001	9.70322E-004	4	..........a	-327.66
	240	48.2	5.99959E-001	-7.43631E-011	0.00000E+000	6.00000E-001	9.55722E-004	4	..........a	-327.66
	241	48.4	5.89906E-001	-7.95683E-011	0.00000E+000	5.90000E-001	9.71922E-004	4	..........a	-327.66
	242	48.6	5.80006E-001	-8.44204E-011	0.00000E+000	5.80000E-001	9.84322E-004	4	..........a	-327.66
	243	48.8	5.69968E-001	-8.84026E-011	0.00000E+000	5.70000E-001	9.85022E-004	4	..........a	-327.66
	244	49	5.59929E-001	-9.22067E-011	0.00000E+000	5.60000E-001	9.84422E-004	4	..........a	-327.66
	245	49.2	5.49937E-001	-9.59139E-011	0.00000E+000	5.50000E-001	9.67522E-004	4	..........a	-327.66
	246	49.4	5.40015E-001	-1.00464E-010	0.00000E+000	5.40000E-001	9.73322E-004	4	..........a	-327.66
	247	49.6	5.29983E-001	-1.02725E-010	0.00000E+000	5.30000E-001	9.59322E-004	4	..........a	-327.66
	248	49.8	5.19953E-001	-1.06251E-010	0.00000E+000	5.20000E-001	9.76622E-004	4	..........a	-327.66
	249	50	5.09915E-001	-1.08761E-010	0.00000E+000	5.10000E-001	9.76022E-004	4	..........a	-327.66
	250	50.2	5.00018E-001	-1.10929E-010	0.00000E+000	5.00000E-001	9.72822E-004	4	..........a	-327.66
	251	50.4	4.89933E-001	-1.13601E-010	0.00000E+000	4.90000E-001	9.65222E-004	4	..........a	-327.66
	252	50.6	4.79958E-001	-1.15671E-010	0.00000E+000	4.80000E-001	9.78322E-004	4	..........a	-327.66
	253	50.8	4.69960E-001	-1.17249E-010	0.00000E+000	4.70000E-001	9.68222E-004	4	..........a	-327.66
	254	51	4.60013E-001	-1.18703E-010	0.00000E+000	4.60000E-001	9.92122E-004	4	..........a	-327.66
	255	51.2	4.50002E-001	-1.19968E-010	0.00000E+000	4.50000E-001	9.71822E-004	4	..........a	-327.66
	256	51.4	4.39959E-001	-1.21252E-010	0.00000E+000	4.40000E-001	9.75022E-004	4	..........a	-327.66
	257	51.6	4.29954E-001	-1.22159E-010	0.00000E+000	4.30000E-001	9.73722E-004	4	..........a	-327.66
	258	51.8	4.20015E-001	-1.23153E-010	0.00000E+000	4.20000E-001	9.68222E-004	4	..........a	-327.66
	259	52	4.09929E-001	-1.24630E-010	0.00000E+000	4.10000E-001	9.72922E-004	4	..........a	-327.66
	260	52.2	3.99984E-001	-1.25578E-010	0.00000E+000	4.00000E-001	9.73522E-004	4	..........a	-327.66
	261	52.4	3.89949E-001	-1.25967E-010	0.00000E+000	3.90000E-001	9.75822E-004	4	..........a	-327.66
	262	52.6	3.79996E-001	-1.27055E-010	0.00000E+000	3.80000E-001	9.78022E-004	4	..........a	-327.66
	263	52.8	3.69972E-001	-1.28066E-010	0.00000E+000	3.70000E-001	9.67222E-004	4	..........a	-327.66
	264	53	3.59935E-001	-1.28566E-010	0.00000E+000	3.60000E-001	9.77322E-004	4	..........a	-327.66
	265	53.2	3.49937E-001	-1.28945E-010	0.00000E+000	3.50000E-001	9.66422E-004	4	..........a	-327.66
	266	53.4	3.40027E-001	-1.30373E-010	0.00000E+000	3.40000E-001	9.70522E-004	4	..........a	-327.66
	267	53.6	3.30010E-001	-1.30547E-010	0.00000E+000	3.30000E-001	9.62322E-004	4	..........a	-327.66
	268	53.8	3.19931E-001	-1.30729E-010	0.00000E+000	3.20000E-001	9.75822E-004	4	..........a	-327.66
	269	54	3.09974E-001	-1.31353E-010	0.00000E+000	3.10000E-001	9.86122E-004	4	..........a	-327.66
	270	54.2	3.00009E-001	-1.30864E-010	0.00000E+000	3.00000E-001	9.75022E-004	4	..........a	-327.66
	271	54.4	2.89995E-001	-1.32345E-010	0.00000E+000	2.90000E-001	9.73722E-004	4	..........a	-327.66
	272	54.6	2.79958E-001	-1.31248E-010	0.00000E+000	2.80000E-001	9.83822E-004	4	..........a	-327.66
	273	54.8	2.69962E-001	-1.32307E-010	0.00000E+000	2.70000E-001	9.69922E-004	4	..........a	-327.66
	274	55	2.60005E-001	-1.31799E-010	0.00000E+000	2.60000E-001	9.71222E-004	4	..........a	-327.66
	275	55.2	2.49996E-001	-1.31544E-010	0.00000E+000	2.50000E-001	9.64122E-004	4	..........a	-327.66
	276	55.4	2.39927E-001	-1.31685E-010	0.00000E+000	2.40000E-001	9.57522E-004	4	..........a	-327.66
	277	55.6	2.29927E-001	-1.29973E-010	0.00000E+000	2.30000E-001	9.90622E-004	4	..........a	-327.66
	278	55.8	2.19988E-001	-1.30873E-010	0.00000E+000	2.20000E-001	9.75622E-004	4	..........a	-327.66
	279	56	2.09956E-001	-1.29149E-010	0.00000E+000	2.10000E-001	9.83922E-004	4	..........a	-327.66
	280	56.2	1.99973E-001	-1.30143E-010	0.00000E+000	2.00000E-001	9.74422E-004	4	..........a	-327.66
	281	56.4	1.90002E-001	-1.29136E-010	0.00000E+000	1.90000E-001	9.64822E-004	4	..........a	-327.66
	282	56.6	1.80018E-001	-1.28927E-010	0.00000E+000	1.80000E-001	9.92022E-004	4	..........a	-327.66
	283	56.8	1.70138E-001	-1.27568E-010	0.00000E+000	1.70000E-001	9.74022E-004	4	..........a	-327.66
	284	57	1.60013E-001	-1.27173E-010	0.00000E+000	1.60000E-001	9.82922E-004	4	..........a	-327.66
	285	57.2	1.49997E-001	-1.27100E-010	0.00000E+000	1.50000E-001	9.84422E-004	4	..........a	-327.66
	286	57.4	1.40084E-001	-1.25969E-010	0.00000E+000	1.40000E-001	9.81822E-004	4	..........a	-327.66
	287	57.6	1.30050E-001	-1.25840E-010	0.00000E+000	1.30000E-001	9.70922E-004	4	..........a	-327.66
	288	57.8	1.20030E-001	-1.25319E-010	0.00000E+000	1.20000E-001	9.77622E-004	4	..........a	-327.66
	289	58	1.10016E-001	-1.25148E-010	0.00000E+000	1.10000E-001	9.69322E-004	4	..........a	-327.66
	290	58.2	1.00004E-001	-1.24324E-010	0.00000E+000	1.00000E-001	9.77422E-004	4	..........a	-327.66
	291	58.4	9.02055E-002	-1.25127E-010	0.00000E+000	9.00000E-002	9.64122E-004	4	..........a	-327.66
	292	58.6	8.00042E-002	-1.25042E-010	0.00000E+000	8.00000E-002	9.76222E-004	4	..........a	-327.66
	293	58.8	6.99563E-002	-1.25799E-010	0.00000E+000	7.00000E-002	9.74922E-004	4	..........a	-327.66
	294	59	6.00439E-002	-1.26705E-010	0.00000E+000	6.00000E-002	9.65122E-004	4	..........a	-327.66
	295	59.2	5.00688E-002	-1.26911E-010	0.00000E+000	5.00000E-002	9.64722E-004	4	..........a	-327.66
	296	59.4	3.99919E-002	-1.29285E-010	0.00000E+000	4.00000E-002	9.62822E-004	4	..........a	-327.66
	297	59.6	3.00108E-002	-1.28337E-010	0.00000E+000	3.00000E-002	9.96022E-004	4	..........a	-327.66
	298	59.8	2.00205E-002	-1.31793E-010	0.00000E+000	2.00000E-002	9.78722E-004	4	..........a	-327.66
	299	60	1.00649E-002	-1.32714E-010	0.00000E+000	1.00000E-002	9.79322E-004	4	..........a	-327.66
	300	60.2	-5.53092E-005	-1.35813E-010	0.00000E+000	7.45058E-009	9.68022E-004	4	..........a	-327.66
	301	60.4	-1.00022E-002	-1.37444E-010	0.00000E+000	-1.00000E-002	9.63622E-004	4	..........a	-327.66
	302	60.6	-1.99591E-002	-1.40196E-010	0.00000E+000	-2.00000E-002	9.78522E-004	4	..........a	-327.66
	303	60.8	-3.00023E-002	-1.43695E-010	0.00000E+000	-3.00000E-002	9.69922E-004	4	..........a	-327.66
	304	61	-4.00114E-002	-1.47030E-010	0.00000E+000	-4.00000E-002	9.63222E-004	4	..........a	-327.66
	305	61.2	-4.99829E-002	-1.49912E-010	0.00000E+000	-5.00000E-002	9.78722E-004	4	..........a	-327.66
	306	61.4	-5.99502E-002	-1.53632E-010	0.00000E+000	-6.00000E-002	9.79122E-004	4	..........a	-327.66
	307	61.6	-6.99594E-002	-1.57187E-010	0.00000E+000	-7.00000E-002	9.61722E-004	4	..........a	-327.66
	308	61.8	-7.99747E-002	-1.62168E-010	0.00000E+000	-8.00000E-002	9.89922E-004	4	..........a	-327.66
	309	62	-8.99705E-002	-1.65960E-010	0.00000E+000	-9.00000E-002	9.87722E-004	4	..........a	-327.66
	310	62.2	-9.99467E-002	-1.70996E-010	0.00000E+000	-1.00000E-001	9.81122E-004	4	..........a	-327.66
	311	62.4	-1.10031E-001	-1.75898E-010	0.00000E+000	-1.10000E-001	9.75822E-004	4	..........a	-327.66
	312	62.6	-1.20003E-001	-1.81013E-010	0.00000E+000	-1.20000E-001	9.90722E-004	4	..........a	-327.66
	313	62.8	-1.30022E-001	-1.86836E-010	0.00000E+000	-1.30000E-001	9.67722E-004	4	..........a	-327.66
	314	63	-1.40003E-001	-1.92662E-010	0.00000E+000	-1.40000E-001	9.80022E-004	4	..........a	-327.66
	315	63.2	-1.49983E-001	-1.98138E-010	0.00000E+000	-1.50000E-001	9.76522E-004	4	..........a	-327.66
	316	63.4	-1.60063E-001	-2.05175E-010	0.00000E+000	-1.60000E-001	9.76122E-004	4	..........a	-327.66
	317	63.6	-1.69970E-001	-2.11943E-010	0.00000E+000	-1.70000E-001	9.64622E-004	4	..........a	-327.66
	318	63.8	-1.79982E-001	-2.19337E-010	0.00000E+000	-1.80000E-001	9.91222E-004	4	..........a	-327.66
	319	64	-1.90002E-001	-2.26237E-010	0.00000E+000	-1.90000E-001	9.67522E-004	4	..........a	-327.66
	320	64.2	-1.99951E-001	-2.33719E-010	0.00000E+000	-2.00000E-001	9.60022E-004	4	..........a	-327.66
	321	64.4	-2.09995E-001	-2.41524E-010	0.00000E+000	-2.10000E-001	9.65922E-004	4	..........a	-327.66
	322	64.6	-2.19897E-001	-2.49701E-010	0.00000E+000	-2.20000E-001	9.69722E-004	4	..........a	-327.66
	323	64.8	-2.29945E-001	-2.58218E-010	0.00000E+000	-2.30000E-001	9.45322E-004	4	..........a	-327.66
	324	65	-2.39997E-001	-2.65835E-010	0.00000E+000	-2.40000E-001	9.57522E-004	4	..........a	-327.66
	325	65.2	-2.49931E-001	-2.74711E-010	0.00000E+000	-2.50000E-001	9.62922E-004	4	..........a	-327.66
	326	65.4	-2.59901E-001	-2.87067E-010	0.00000E+000	-2.60000E-001	9.70322E-004	4	..........a	-327.66
	327	65.6	-2.69913E-001	-2.94381E-010	0.00000E+000	-2.70000E-001	9.72822E-004	4	..........a	-327.66
	328	65.8	-2.79874E-001	-3.01522E-010	0.00000E+000	-2.80000E-001	9.72822E-004	4	..........a	-327.66
	329	66	-2.89904E-001	-3.13084E-010	0.00000E+000	-2.90000E-001	9.73322E-004	4	..........a	-327.66
	330	66.2	-2.99867E-001	-3.20466E-010	0.00000E+000	-3.00000E-001	9.79622E-004	4	..........a	-327.66
	331	66.4	-3.09905E-001	-3.31911E-010	0.00000E+000	-3.10000E-001	9.62522E-004	4	..........a	-327.66
	332	66.6	-3.19866E-001	-3.43034E-010	0.00000E+000	-3.20000E-001	9.64722E-004	4	..........a	-327.66
	333	66.8	-3.29905E-001	-3.54361E-010	0.00000E+000	-3.30000E-001	9.67622E-004	4	..........a	-327.66
	334	67	-3.39867E-001	-3.65820E-010	0.00000E+000	-3.40000E-001	9.61922E-004	4	..........a	-327.66
	335	67.2	-3.49888E-001	-3.77919E-010	0.00000E+000	-3.50000E-001	9.75322E-004	4	..........a	-327.66
	336	67.4	-3.59919E-001	-3.91105E-010	0.00000E+000	-3.60000E-001	9.59622E-004	4	..........a	-327.66
	337	67.6	-3.69863E-001	-4.03931E-010	0.00000E+000	-3.70000E-001	9.59722E-004	4	..........a	-327.66
	338	67.8	-3.79886E-001	-4.19212E-010	0.00000E+000	-3.80000E-001	9.65622E-004	4	..........a	-327.66
	339	68	-3.89888E-001	-4.32068E-010	0.00000E+000	-3.90000E-001	9.74522E-004	4	..........a	-327.66
	340	68.2	-3.99888E-001	-4.46701E-010	0.00000E+000	-4.00000E-001	9.67522E-004	4	..........a	-327.66
	341	68.4	-4.09868E-001	-4.60607E-010	0.00000E+000	-4.10000E-001	9.69822E-004	4	..........a	-327.66
	342	68.6	-4.19840E-001	-4.76434E-010	0.00000E+000	-4.20000E-001	9.74022E-004	4	..........a	-327.66
	343	68.8	-4.29855E-001	-4.93029E-010	0.00000E+000	-4.30000E-001	9.70022E-004	4	..........a	-327.66
	344	69	-4.39899E-001	-5.10302E-010	0.00000E+000	-4.40000E-001	9.64822E-004	4	..........a	-327.66
	345	69.2	-4.49869E-001	-5.27828E-010	0.00000E+000	-4.50000E-001	9.68822E-004	4	..........a	-327.66
	346	69.4	-4.59858E-001	-5.47742E-010	0.00000E+000	-4.60000E-001	9.73822E-004	4	..........a	-327.66
	347	69.6	-4.69843E-001	-5.68289E-010	0.00000E+000	-4.70000E-001	9.61822E-004	4	..........a	-327.66
	348	69.8	-4.79850E-001	-5.89942E-010	0.00000E+000	-4.80000E-001	9.59122E-004	4	..........a	-327.66
	349	70	-4.89892E-001	-6.13697E-010	0.00000E+000	-4.90000E-001	9.56422E-004	4	..........a	-327.66
	350	70.2	-4.99867E-001	-6.39309E-010	0.00000E+000	-5.00000E-001	9.65322E-004	4	..........a	-327.66
	351	70.4	-5.09856E-001	-6.68517E-010	0.00000E+000	-5.10000E-001	9.64022E-004	4	..........a	-327.66
	352	70.6	-5.19912E-001	-6.99145E-010	0.00000E+000	-5.20000E-001	9.84122E-004	4	..........a	-327.66
	353	70.8	-5.29918E-001	-7.33210E-010	0.00000E+000	-5.30000E-001	9.70922E-004	4	..........a	-327.66
[...]
	921	184.4	-5.89841E-001	-9.53290E-010	0.00000E+000	-5.90000E-001	9.52422E-004	4	..........a	-327.66
	922	184.6	-5.79865E-001	-7.93635E-010	0.00000E+000	-5.80000E-001	9.62222E-004	4	..........a	-327.66
	923	184.8	-5.69914E-001	-6.81680E-010	0.00000E+000	-5.70000E-001	9.78922E-004	4	..........a	-327.66
	924	185	-5.59890E-001	-5.97366E-010	0.00000E+000	-5.60000E-001	9.74622E-004	4	..........a	-327.66
	925	185.2	-5.49907E-001	-5.26769E-010	0.00000E+000	-5.50000E-001	9.54322E-004	4	..........a	-327.66
	926	185.4	-5.39851E-001	-4.66861E-010	0.00000E+000	-5.40000E-001	9.80122E-004	4	..........a	-327.66
	927	185.6	-5.29879E-001	-4.16009E-010	0.00000E+000	-5.30000E-001	9.80522E-004	4	..........a	-327.66
	928	185.8	-5.19865E-001	-3.67536E-010	0.00000E+000	-5.20000E-001	9.78622E-004	4	..........a	-327.66
	929	186	-5.09854E-001	-3.25755E-010	0.00000E+000	-5.10000E-001	9.65922E-004	4	..........a	-327.66
	930	186.2	-4.99902E-001	-2.89052E-010	0.00000E+000	-5.00000E-001	9.63122E-004	4	..........a	-327.66
	931	186.4	-4.89921E-001	-2.52479E-010	0.00000E+000	-4.90000E-001	9.70622E-004	4	..........a	-327.66
	932	186.6	-4.79894E-001	-2.20119E-010	0.00000E+000	-4.80000E-001	9.67822E-004	4	..........a	-327.66
	933	186.8	-4.69799E-001	-1.89475E-010	0.00000E+000	-4.70000E-001	9.89022E-004	4	..........a	-327.66
	934	187	-4.59887E-001	-1.61908E-010	0.00000E+000	-4.60000E-001	9.55822E-004	4	..........a	-327.66
	935	187.2	-4.49924E-001	-1.36144E-010	0.00000E+000	-4.50000E-001	9.57122E-004	4	..........a	-327.66
	936	187.4	-4.39915E-001	-1.12197E-010	0.00000E+000	-4.40000E-001	9.72622E-004	4	..........a	-327.66
	937	187.6	-4.29908E-001	-9.09437E-011	0.00000E+000	-4.30000E-001	9.60322E-004	4	..........a	-327.66
	938	187.8	-4.19890E-001	-6.95599E-011	0.00000E+000	-4.20000E-001	9.84822E-004	4	..........a	-327.66
	939	188	-4.09935E-001	-4.99651E-011	0.00000E+000	-4.10000E-001	9.76022E-004	4	..........a	-327.66
	940	188.2	-3.99935E-001	-3.32555E-011	0.00000E+000	-4.00000E-001	9.64722E-004	4	..........a	-327.66
	941	188.4	-3.89924E-001	-1.60028E-011	0.00000E+000	-3.90000E-001	9.70422E-004	4	..........a	-327.66
	942	188.6	-3.79935E-001	-1.96208E-013	0.00000E+000	-3.80000E-001	9.90722E-004	4	..........a	-327.66
	943	188.8	-3.70005E-001	1.46624E-011	0.00000E+000	-3.70000E-001	9.73622E-004	4	..........a	-327.66
	944	189	-3.59940E-001	2.85339E-011	0.00000E+000	-3.60000E-001	9.63522E-004	4	..........a	-327.66
	945	189.2	-3.49911E-001	4.01053E-011	0.00000E+000	-3.50000E-001	9.58022E-004	4	..........a	-327.66
	946	189.4	-3.39951E-001	5.18488E-011	0.00000E+000	-3.40000E-001	9.83722E-004	4	..........a	-327.66
	947	189.6	-3.29968E-001	6.24592E-011	0.00000E+000	-3.30000E-001	9.79222E-004	4	..........a	-327.66
	948	189.8	-3.19931E-001	7.29536E-011	0.00000E+000	-3.20000E-001	9.77422E-004	4	..........a	-327.66
	949	190	-3.09936E-001	8.29670E-011	0.00000E+000	-3.10000E-001	9.75122E-004	4	..........a	-327.66
	950	190.2	-2.99903E-001	9.13303E-011	0.00000E+000	-3.00000E-001	9.64222E-004	4	..........a	-327.66
	951	190.4	-2.89952E-001	9.98096E-011	0.00000E+000	-2.90000E-001	9.81722E-004	4	..........a	-327.66
	952	190.6	-2.80019E-001	1.07372E-010	0.00000E+000	-2.80000E-001	9.82922E-004	4	..........a	-327.66
	953	190.8	-2.69919E-001	1.15224E-010	0.00000E+000	-2.70000E-001	9.56722E-004	4	..........a	-327.66
	954	191	-2.59925E-001	1.21558E-010	0.00000E+000	-2.60000E-001	9.72422E-004	4	..........a	-327.66
	955	191.2	-2.49967E-001	1.29599E-010	0.00000E+000	-2.50000E-001	9.85422E-004	4	..........a	-327.66
	956	191.4	-2.39879E-001	1.33268E-010	0.00000E+000	-2.40000E-001	9.53822E-004	4	..........a	-327.66
	957	191.6	-2.29959E-001	1.37619E-010	0.00000E+000	-2.30000E-001	9.55022E-004	4	..........a	-327.66
	958	191.8	-2.19920E-001	1.43407E-010	0.00000E+000	-2.20000E-001	9.63322E-004	4	..........a	-327.66
	959	192	-2.10030E-001	1.48708E-010	0.00000E+000	-2.10000E-001	9.68122E-004	4	..........a	-327.66
	960	192.2	-1.99965E-001	1.48449E-010	0.00000E+000	-2.00000E-001	9.74222E-004	4	..........a	-327.66
	961	192.4	-1.90209E-001	1.52929E-010	0.00000E+000	-1.90000E-001	9.49022E-004	4	..........a	-327.66
	962	192.6	-1.79969E-001	1.54504E-010	0.00000E+000	-1.80000E-001	9.70522E-004	4	..........a	-327.66
	963	192.8	-1.69997E-001	1.57572E-010	0.00000E+000	-1.70000E-001	9.80622E-004	4	..........a	-327.66
	964	193	-1.59976E-001	1.53787E-010	0.00000E+000	-1.60000E-001	9.77422E-004	4	..........a	-327.66
	965	193.2	-1.49964E-001	1.54632E-010	0.00000E+000	-1.50000E-001	9.61322E-004	4	..........a	-327.66
	966	193.4	-1.39859E-001	1.59796E-010	0.00000E+000	-1.40000E-001	9.74422E-004	4	..........a	-327.66
	967	193.6	-1.30097E-001	1.59158E-010	0.00000E+000	-1.30000E-001	9.67822E-004	4	..........a	-327.66
	968	193.8	-1.19953E-001	1.59520E-010	0.00000E+000	-1.20000E-001	9.75422E-004	4	..........a	-327.66
	969	194	-1.09950E-001	1.55257E-010	0.00000E+000	-1.10000E-001	9.66422E-004	4	..........a	-327.66
	970	194.2	-9.99398E-002	1.55070E-010	0.00000E+000	-1.00000E-001	9.75122E-004	4	..........a	-327.66
	971	194.4	-8.99834E-002	1.59439E-010	0.00000E+000	-9.00000E-002	9.73122E-004	4	..........a	-327.66
	972	194.6	-7.99494E-002	1.59198E-010	0.00000E+000	-8.00000E-002	9.71322E-004	4	..........a	-327.66
	973	194.8	-6.99435E-002	1.54484E-010	0.00000E+000	-7.00000E-002	9.69022E-004	4	..........a	-327.66
	974	195	-5.99449E-002	1.54392E-010	0.00000E+000	-6.00000E-002	9.94122E-004	4	..........a	-327.66
	975	195.2	-4.99691E-002	1.54744E-010	0.00000E+000	-5.00000E-002	9.69122E-004	4	..........a	-327.66
	976	195.4	-3.99408E-002	1.59168E-010	0.00000E+000	-4.00000E-002	9.75622E-004	4	..........a	-327.66
	977	195.6	-3.00558E-002	1.58390E-010	0.00000E+000	-3.00000E-002	9.63022E-004	4	..........a	-327.66
	978	195.8	-1.99377E-002	1.53278E-010	0.00000E+000	-2.00000E-002	9.55322E-004	4	..........a	-327.66
	979	196	-9.95141E-003	1.54156E-010	0.00000E+000	-1.00000E-002	9.62822E-004	4	..........a	-327.66
	980	196.2	5.47908E-005	1.58228E-010	0.00000E+000	7.45058E-009	9.69422E-004	4	..........a	-327.66
	981	196.4	1.00602E-002	1.58628E-010	0.00000E+000	1.00000E-002	9.76822E-004	4	..........a	-327.66
	982	196.6	2.00873E-002	1.57700E-010	0.00000E+000	2.00000E-002	9.74722E-004	4	..........a	-327.66
	983	196.8	3.00291E-002	1.53303E-010	0.00000E+000	3.00000E-002	9.77522E-004	4	..........a	-327.66
	984	197	3.98051E-002	1.58676E-010	0.00000E+000	4.00000E-002	9.70422E-004	4	..........a	-327.66
	985	197.2	5.00117E-002	1.55788E-010	0.00000E+000	5.00000E-002	9.81222E-004	4	..........a	-327.66
	986	197.4	6.00815E-002	1.57220E-010	0.00000E+000	6.00000E-002	9.72822E-004	4	..........a	-327.66
	987	197.6	7.00224E-002	1.54172E-010	0.00000E+000	7.00000E-002	9.80222E-004	4	..........a	-327.66
	988	197.8	8.00419E-002	1.54403E-010	0.00000E+000	8.00000E-002	9.80522E-004	4	..........a	-327.66
	989	198	8.99776E-002	1.59786E-010	0.00000E+000	9.00000E-002	9.67922E-004	4	..........a	-327.66
	990	198.2	1.00055E-001	1.59188E-010	0.00000E+000	1.00000E-001	9.71222E-004	4	..........a	-327.66
	991	198.4	1.10025E-001	1.60724E-010	0.00000E+000	1.10000E-001	9.76222E-004	4	..........a	-327.66
	992	198.6	1.19999E-001	1.58144E-010	0.00000E+000	1.20000E-001	9.67322E-004	4	..........a	-327.66
	993	198.8	1.30047E-001	1.59460E-010	0.00000E+000	1.30000E-001	9.66522E-004	4	..........a	-327.66
	994	199	1.40074E-001	1.64165E-010	0.00000E+000	1.40000E-001	9.72822E-004	4	..........a	-327.66
	995	199.2	1.50007E-001	1.65734E-010	0.00000E+000	1.50000E-001	9.82122E-004	4	..........a	-327.66
	996	199.4	1.59985E-001	1.67084E-010	0.00000E+000	1.60000E-001	9.72922E-004	4	..........a	-327.66
	997	199.6	1.70082E-001	1.70389E-010	0.00000E+000	1.70000E-001	9.62422E-004	4	..........a	-327.66
	998	199.8	1.80073E-001	1.73139E-010	0.00000E+000	1.80000E-001	9.80622E-004	4	..........a	-327.66
	999	200	1.90048E-001	1.76171E-010	0.00000E+000	1.90000E-001	9.59922E-004	4	..........a	-327.66
	1000	200.2	2.00035E-001	1.78965E-010	0.00000E+000	2.00000E-001	9.66622E-004	4	..........a	-327.66
	1001	200.4	2.09954E-001	1.86353E-010	0.00000E+000	2.10000E-001	9.63022E-004	4	..........a	-327.66
	1002	200.6	2.19637E-001	1.85218E-010	0.00000E+000	2.20000E-001	9.54922E-004	4	..........a	-327.66
	1003	200.8	2.29909E-001	1.91765E-010	0.00000E+000	2.30000E-001	9.74222E-004	4	..........a	-327.66
	1004	201	2.39994E-001	1.91748E-010	0.00000E+000	2.40000E-001	9.82422E-004	4	..........a	-327.66
	1005	201.2	2.50023E-001	1.94877E-010	0.00000E+000	2.50000E-001	9.62922E-004	4	..........a	-327.66
	1006	201.4	2.60032E-001	1.98240E-010	0.00000E+000	2.60000E-001	9.68722E-004	4	..........a	-327.66
	1007	201.6	2.69971E-001	2.00602E-010	0.00000E+000	2.70000E-001	9.77122E-004	4	..........a	-327.66
	1008	201.8	2.79999E-001	2.03547E-010	0.00000E+000	2.80000E-001	9.78722E-004	4	..........a	-327.66
	1009	202	2.90005E-001	2.06305E-010	0.00000E+000	2.90000E-001	9.57122E-004	4	..........a	-327.66
	1010	202.2	3.00035E-001	2.08566E-010	0.00000E+000	3.00000E-001	9.83522E-004	4	..........a	-327.66
	1011	202.4	3.09995E-001	2.10338E-010	0.00000E+000	3.10000E-001	9.77122E-004	4	..........a	-327.66
	1012	202.6	3.20008E-001	2.11270E-010	0.00000E+000	3.20000E-001	9.82922E-004	4	..........a	-327.66
	1013	202.8	3.30023E-001	2.12600E-010	0.00000E+000	3.30000E-001	9.69722E-004	4	..........a	-327.66
	1014	203	3.40051E-001	2.14532E-010	0.00000E+000	3.40000E-001	9.55322E-004	4	..........a	-327.66
	1015	203.2	3.50002E-001	2.15615E-010	0.00000E+000	3.50000E-001	9.90722E-004	4	..........a	-327.66
	1016	203.4	3.60011E-001	2.16162E-010	0.00000E+000	3.60000E-001	9.84822E-004	4	..........a	-327.66
	1017	203.6	3.70011E-001	2.16842E-010	0.00000E+000	3.70000E-001	9.83122E-004	4	..........a	-327.66
	1018	203.8	3.80033E-001	2.18015E-010	0.00000E+000	3.80000E-001	9.76022E-004	4	..........a	-327.66
	1019	204	3.90001E-001	2.18404E-010	0.00000E+000	3.90000E-001	9.77222E-004	4	..........a	-327.66
	1020	204.2	4.00039E-001	2.18088E-010	0.00000E+000	4.00000E-001	9.82722E-004	4	..........a	-327.66
	1021	204.4	4.09995E-001	2.18825E-010	0.00000E+000	4.10000E-001	9.88722E-004	4	..........a	-327.66
	1022	204.6	4.20023E-001	2.20313E-010	0.00000E+000	4.20000E-001	9.78422E-004	4	..........a	-327.66
	1023	204.8	4.29987E-001	2.19800E-010	0.00000E+000	4.30000E-001	9.85522E-004	4	..........a	-327.66
	1024	205	4.39977E-001	2.20041E-010	0.00000E+000	4.40000E-001	9.65322E-004	4	..........a	-327.66
	1025	205.2	4.49389E-001	2.21020E-010	0.00000E+000	4.50000E-001	9.78522E-004	4	..........a	-327.66
	1026	205.4	4.60009E-001	2.22319E-010	0.00000E+000	4.60000E-001	9.66022E-004	4	..........a	-327.66
	1027	205.6	4.69973E-001	2.22282E-010	0.00000E+000	4.70000E-001	9.89222E-004	4	..........a	-327.66
	1028	205.8	4.79964E-001	2.23504E-010	0.00000E+000	4.80000E-001	9.80322E-004	4	..........a	-327.66
	1029	206	4.89987E-001	2.24873E-010	0.00000E+000	4.90000E-001	9.76822E-004	4	..........a	-327.66
	1030	206.2	4.99988E-001	2.26971E-010	0.00000E+000	5.00000E-001	9.98222E-004	4	..........a	-327.66
	1031	206.4	5.09935E-001	2.28247E-010	0.00000E+000	5.10000E-001	9.80122E-004	4	..........a	-327.66
	1032	206.6	5.19938E-001	2.31237E-010	0.00000E+000	5.20000E-001	9.91222E-004	4	..........a	-327.66
	1033	206.8	5.30012E-001	2.34049E-010	0.00000E+000	5.30000E-001	9.70722E-004	4	..........a	-327.66
	1034	207	5.39964E-001	2.36882E-010	0.00000E+000	5.40000E-001	9.87822E-004	4	..........a	-327.66
	1035	207.2	5.49962E-001	2.39738E-010	0.00000E+000	5.50000E-001	9.66122E-004	4	..........a	-327.66
	1036	207.4	5.59866E-001	2.42819E-010	0.00000E+000	5.60000E-001	9.68722E-004	4	..........a	-327.66
	1037	207.6	5.69933E-001	2.47440E-010	0.00000E+000	5.70000E-001	9.89322E-004	4	..........a	-327.66
	1038	207.8	5.79938E-001	2.51539E-010	0.00000E+000	5.80000E-001	9.85222E-004	4	..........a	-327.66
	1039	208	5.89904E-001	2.56174E-010	0.00000E+000	5.90000E-001	9.70022E-004	4	..........a	-327.66
	1040	208.2	5.99891E-001	2.61352E-010	0.00000E+000	6.00000E-001	9.75722E-004	4	..........a	-327.66
	1041	208.4	6.09938E-001	2.67316E-010	0.00000E+000	6.10000E-001	9.69022E-004	4	..........a	-327.66
	1042	208.6	6.19979E-001	2.74307E-010	0.00000E+000	6.20000E-001	9.67222E-004	4	..........a	-327.66
	1043	208.8	6.29894E-001	2.81050E-010	0.00000E+000	6.30000E-001	9.77922E-004	4	..........a	-327.66
	1044	209	6.39897E-001	2.88933E-010	0.00000E+000	6.40000E-001	9.83722E-004	4	..........a	-327.66
	1045	209.2	6.49921E-001	2.97815E-010	0.00000E+000	6.50000E-001	9.81922E-004	4	..........a	-327.66
	1046	209.4	6.60010E-001	3.07703E-010	0.00000E+000	6.60000E-001	9.81622E-004	4	..........a	-327.66
	1047	209.6	6.69894E-001	3.17002E-010	0.00000E+000	6.70000E-001	9.77322E-004	4	..........a	-327.66
	1048	209.8	6.79987E-001	3.28743E-010	0.00000E+000	6.80000E-001	9.66822E-004	4	..........a	-327.66
	1049	210	6.89897E-001	3.40993E-010	0.00000E+000	6.90000E-001	9.78922E-004	4	..........a	-327.66
	1050	210.2	6.99971E-001	3.54322E-010	0.00000E+000	7.00000E-001	9.63922E-004	4	..........a	-327.66
	1051	210.4	7.09889E-001	3.69134E-010	0.00000E+000	7.10000E-001	9.61622E-004	4	..........a	-327.66
	1052	210.6	7.19869E-001	3.85386E-010	0.00000E+000	7.20000E-001	9.74622E-004	4	..........a	-327.66
	1053	210.8	7.29911E-001	4.02603E-010	0.00000E+000	7.30000E-001	9.73722E-004	4	..........a	-327.66
	1054	211	7.39999E-001	4.22584E-010	0.00000E+000	7.40000E-001	9.82522E-004	4	..........a	-327.66
	1055	211.2	7.49918E-001	4.42426E-010	0.00000E+000	7.50000E-001	9.77622E-004	4	..........a	-327.66
	1056	211.4	7.59974E-001	4.65859E-010	0.00000E+000	7.60000E-001	9.81222E-004	4	..........a	-327.66
	1057	211.6	7.69900E-001	4.90680E-010	0.00000E+000	7.70000E-001	9.67422E-004	4	..........a	-327.66
	1058	211.8	7.79938E-001	5.18312E-010	0.00000E+000	7.80000E-001	9.69222E-004	4	..........a	-327.66
	1059	212	7.89876E-001	5.49871E-010	0.00000E+000	7.90000E-001	9.70622E-004	4	..........a	-327.66
	1060	212.2	7.99914E-001	5.82565E-010	0.00000E+000	8.00000E-001	9.71322E-004	4	..........a	-327.66
CURVE5	TABLE
	Pt	T	Vf	Im	Vu	Sig	Ach	IERange	Over	Temp
	#	s	V vs. Ref.	A	V	V	V	#	bits	deg C
	1061	212.4	7.89846E-001	3.84132E-010	0.00000E+000	7.90000E-001	9.77722E-004	4	..........a	-327.66
	1062	212.6	7.79962E-001	2.69620E-010	0.00000E+000	7.80000E-001	9.71122E-004	4	..........a	-327.66
	1063	212.8	7.69872E-001	1.92828E-010	0.00000E+000	7.70000E-001	9.78322E-004	4	..........a	-327.66
	1064	213	7.59964E-001	1.40030E-010	0.00000E+000	7.60000E-001	9.78322E-004	4	..........a	-327.66
	1065	213.2	7.49938E-001	9.97736E-011	0.00000E+000	7.50000E-001	9.73222E-004	4	..........a	-327.66
	1066	213.4	7.39998E-001	6.95805E-011	0.00000E+000	7.40000E-001	9.83322E-004	4	..........a	-327.66
	1067	213.6	7.29911E-001	4.56426E-011	0.00000E+000	7.30000E-001	9.56422E-004	4	..........a	-327.66
	1068	213.8	7.19938E-001	2.74139E-011	0.00000E+000	7.20000E-001	9.65522E-004	4	..........a	-327.66
	1069	214	7.09886E-001	1.26783E-011	0.00000E+000	7.10000E-001	9.73822E-004	4	..........a	-327.66
	1070	214.2	6.99956E-001	1.00984E-012	0.00000E+000	7.00000E-001	9.68622E-004	4	..........a	-327.66
	1071	214.4	6.89909E-001	-8.38152E-012	0.00000E+000	6.90000E-001	9.65722E-004	4	..........a	-327.66
	1072	214.6	6.79797E-001	-1.90949E-011	0.00000E+000	6.80000E-001	9.70022E-004	4	..........a	-327.66
	1073	214.8	6.69907E-001	-2.74283E-011	0.00000E+000	6.70000E-001	9.73522E-004	4	..........a	-327.66
	1074	215	6.60003E-001	-3.42825E-011	0.00000E+000	6.60000E-001	9.76122E-004	4	..........a	-327.66
	1075	215.2	6.49927E-001	-3.95197E-011	0.00000E+000	6.50000E-001	9.68622E-004	4	..........a	-327.66
	1076	215.4	6.39931E-001	-4.44429E-011	0.00000E+000	6.40000E-001	9.89622E-004	4	..........a	-327.66
	1077	215.6	6.29899E-001	-5.01821E-011	0.00000E+000	6.30000E-001	9.68222E-004	4	..........a	-327.66
	1078	215.8	6.19992E-001	-5.41693E-011	0.00000E+000	6.20000E-001	9.77322E-004	4	..........a	-327.66
	1079	216	6.09970E-001	-5.82774E-011	0.00000E+000	6.10000E-001	9.69922E-004	4	..........a	-327.66
	1080	216.2	5.99939E-001	-6.18766E-011	0.00000E+000	6.00000E-001	9.79222E-004	4	..........a	-327.66
	1081	216.4	5.89932E-001	-6.59267E-011	0.00000E+000	5.90000E-001	9.74422E-004	4	..........a	-327.66
	1082	216.6	5.80014E-001	-6.87548E-011	0.00000E+000	5.80000E-001	9.75222E-004	4	..........a	-327.66
	1083	216.8	5.69972E-001	-7.10599E-011	0.00000E+000	5.70000E-001	9.79922E-004	4	..........a	-327.66
	1084	217	5.59945E-001	-7.38770E-011	0.00000E+000	5.60000E-001	9.79322E-004	4	..........a	-327.66
	1085	217.2	5.49956E-001	-7.55751E-011	0.00000E+000	5.50000E-001	9.68422E-004	4	..........a	-327.66
	1086	217.4	5.40014E-001	-7.81972E-011	0.00000E+000	5.40000E-001	9.82322E-004	4	..........a	-327.66
	1087	217.6	5.29946E-001	-8.13253E-011	0.00000E+000	5.30000E-001	9.57422E-004	4	..........a	-327.66
	1088	217.8	5.19957E-001	-8.31274E-011	0.00000E+000	5.20000E-001	9.83722E-004	4	..........a	-327.66
	1089	218	5.09936E-001	-8.50715E-011	0.00000E+000	5.10000E-001	9.71722E-004	4	..........a	-327.66
	1090	218.2	5.00042E-001	-8.67585E-011	0.00000E+000	5.00000E-001	9.61922E-004	4	..........a	-327.66
	1091	218.4	4.89965E-001	-8.86336E-011	0.00000E+000	4.90000E-001	9.80122E-004	4	..........a	-327.66
	1092	218.6	4.79950E-001	-9.16347E-011	0.00000E+000	4.80000E-001	9.86922E-004	4	..........a	-327.66
	1093	218.8	4.69951E-001	-9.38688E-011	0.00000E+000	4.70000E-001	9.79722E-004	4	..........a	-327.66
	1094	219	4.59998E-001	-9.64039E-011	0.00000E+000	4.60000E-001	9.76122E-004	4	..........a	-327.66
	1095	219.2	4.49984E-001	-9.84510E-011	0.00000E+000	4.50000E-001	9.73222E-004	4	..........a	-327.66
	1096	219.4	4.39976E-001	-1.00688E-010	0.00000E+000	4.40000E-001	9.82022E-004	4	..........a	-327.66
	1097	219.6	4.29961E-001	-1.02039E-010	0.00000E+000	4.30000E-001	9.85722E-004	4	..........a	-327.66
	1098	219.8	4.20014E-001	-1.03813E-010	0.00000E+000	4.20000E-001	9.82822E-004	4	..........a	-327.66
	1099	220	4.09941E-001	-1.06080E-010	0.00000E+000	4.10000E-001	9.74022E-004	4	..........a	-327.66
	1100	220.2	4.00073E-001	-1.08679E-010	0.00000E+000	4.00000E-001	9.67122E-004	4	..........a	-327.66
	1101	220.4	3.89971E-001	-1.10784E-010	0.00000E+000	3.90000E-001	9.63522E-004	4	..........a	-327.66
	1102	220.6	3.80024E-001	-1.12115E-010	0.00000E+000	3.80000E-001	9.79722E-004	4	..........a	-327.66
	1103	220.8	3.69989E-001	-1.14667E-010	0.00000E+000	3.70000E-001	9.62422E-004	4	..........a	-327.66
	1104	221	3.59997E-001	-1.16733E-010	0.00000E+000	3.60000E-001	9.81122E-004	4	..........a	-327.66
	1105	221.2	3.49963E-001	-1.18033E-010	0.00000E+000	3.50000E-001	9.78622E-004	4	..........a	-327.66
	1106	221.4	3.40037E-001	-1.20099E-010	0.00000E+000	3.40000E-001	9.76622E-004	4	..........a	-327.66
	1107	221.6	3.30047E-001	-1.21355E-010	0.00000E+000	3.30000E-001	9.81322E-004	4	..........a	-327.66
	1108	221.8	3.19995E-001	-1.23482E-010	0.00000E+000	3.20000E-001	9.78922E-004	4	..........a	-327.66
	1109	222	3.09985E-001	-1.24606E-010	0.00000E+000	3.10000E-001	9.94722E-004	4	..........a	-327.66
	1110	222.2	3.00025E-001	-1.24848E-010	0.00000E+000	3.00000E-001	9.91922E-004	4	..........a	-327.66
	1111	222.4	2.90012E-001	-1.26060E-010	0.00000E+000	2.90000E-001	9.83322E-004	4	..........a	-327.66
	1112	222.6	2.79983E-001	-1.26852E-010	0.00000E+000	2.80000E-001	9.94422E-004	4	..........a	-327.66
	1113	222.8	2.69965E-001	-1.27779E-010	0.00000E+000	2.70000E-001	9.86022E-004	4	..........a	-327.66
	1114	223	2.60011E-001	-1.28329E-010	0.00000E+000	2.60000E-001	9.93722E-004	4	..........a	-327.66
	1115	223.2	2.50013E-001	-1.28204E-010	0.00000E+000	2.50000E-001	9.64922E-004	4	..........a	-327.66
	1116	223.4	2.39959E-001	-1.28320E-010	0.00000E+000	2.40000E-001	9.86722E-004	4	..........a	-327.66
	1117	223.6	2.29940E-001	-1.27459E-010	0.00000E+000	2.30000E-001	9.71922E-004	4	..........a	-327.66
	1118	223.8	2.20004E-001	-1.28501E-010	0.00000E+000	2.20000E-001	9.80122E-004	4	..........a	-327.66
	1119	224	2.09985E-001	-1.26874E-010	0.00000E+000	2.10000E-001	9.80222E-004	4	..........a	-327.66
	1120	224.2	2.00000E-001	-1.27286E-010	0.00000E+000	2.00000E-001	9.87422E-004	4	..........a	-327.66