File: example_project/raw_outputs/20240424_ZZG_GM0016_HL03_E15_CV50.DTA
EXPLAIN
TAG	CV
TITLE	LABEL	Cyclic Voltammetry	Test &Identifier
DATE	LABEL	4/24/2024	Date
TIME	LABEL	19:57:56	Time
NOTES	NOTES	1	&Notes...

PSTAT	PSTAT	REF600P-43058	Potentiostat
VINIT	POTEN	0.00000E+000	T	Initial &E (V)
VLIMIT1	POTEN	-6.00000E-001	F	Scan Limit &1 (V)
VLIMIT2	POTEN	8.00000E-001	F	Scan Limit &2 (V)
VFINAL	POTEN	0.00000E+000	T	Final &E (V)
SCANRATE	QUANT	4.99999E+001	&Scan Rate (mV/s)
STEPSIZE	QUANT	1.00000E+001	St&ep Size (mV)
CYCLES	IQUANT	4	C&ycles (#)
IMODE	SELECTOR	0	I/E Range &Mode
IRANGE	QUANT	1.00000E-005	&Max Current (mA)
AREA	QUANT	1.00000E+000	Electrode &Area (cm^2)
ELECTRODETYPE	SELECTOR	0	Electrode Type
STRIPPING	TOGGLE	F	Used for Stripping
POLARITY	TOGGLE	F	Signal Polarity
CONDIT	TWOPARAM	F	1.50000E+001	0.00000E+000	Conditionin&g	Time(s)	E(V)
DELAY	TWOPARAM	T	1.00000E+001	0.00000E+000	Init. De&lay	Time(s)	Stab.(mV/s)
EQDELAY	QUANT	1.00000E+001	Equil. &Time (s)
IRCOMP	SELECTOR	0	IRCom&p
PFCOR	QUANT	5.00000E+001	PF Corr. (ohm)
SAMPLINGMODE	SELECTOR	1	Sampling &Mode
OCVCURVE	TABLE	39
	Pt	T	Vf	Vm	Ach	Over	Temp
	#	s	V vs. Ref.	V	V	bits	deg C
	0	0.258333	2.15551E-002	2.15551E-002	2.38992E-004	..........a	-327.66
	1	0.516667	2.15561E-002	2.16074E-002	2.44126E-004	..........a	-327.66
	2	0.775	2.15623E-002	2.16610E-002	2.39726E-004	..........a	-327.66
	3	1.03333	2.15801E-002	2.17103E-002	2.32926E-004	..........a	-327.66
	4	1.29167	2.16123E-002	2.17594E-002	2.29726E-004	..........a	-327.66
	5	1.55	2.16556E-002	2.18109E-002	2.44392E-004	..........a	-327.66
	6	1.80833	2.17045E-002	2.18595E-002	2.37259E-004	..........a	-327.66
	7	2.06667	2.17551E-002	2.19074E-002	2.33992E-004	..........a	-327.66
	8	2.325	2.18054E-002	2.19544E-002	2.43859E-004	..........a	-327.66
	9	2.58333	2.18547E-002	2.20007E-002	2.29326E-004	..........a	-327.66
	10	2.84167	2.19030E-002	2.20456E-002	2.29326E-004	..........a	-327.66
	11	3.1	2.19502E-002	2.20925E-002	2.29192E-004	..........a	-327.66
	12	3.35833	2.19967E-002	2.21397E-002	2.38059E-004	..........a	-327.66
	13	3.61667	2.20429E-002	2.21837E-002	2.22326E-004	..........a	-327.66
	14	3.875	2.20890E-002	2.22295E-002	2.37392E-004	..........a	-327.66
	15	4.13333	2.21349E-002	2.22739E-002	2.21526E-004	..........a	-327.66
	16	4.39167	2.21804E-002	2.23171E-002	2.29392E-004	..........a	-327.66
	17	4.65	2.22254E-002	2.23630E-002	2.50526E-004	..........a	-327.66
	18	4.90833	2.22701E-002	2.24071E-002	2.32926E-004	..........a	-327.66
	19	5.16667	2.23145E-002	2.24496E-002	2.30659E-004	..........a	-327.66
	20	5.425	2.23588E-002	2.24935E-002	2.24259E-004	..........a	-327.66
	21	5.68333	2.24028E-002	2.25345E-002	2.27126E-004	..........a	-327.66
	22	5.94167	2.24462E-002	2.25745E-002	2.18126E-004	..........a	-327.66
	23	6.2	2.24889E-002	2.26188E-002	2.38459E-004	..........a	-327.66
	24	6.45833	2.25310E-002	2.26611E-002	2.29859E-004	..........a	-327.66
	25	6.71667	2.25728E-002	2.26977E-002	2.34326E-004	..........a	-327.66
	26	6.975	2.26144E-002	2.27340E-002	2.37659E-004	..........a	-327.66
	27	7.23333	2.26549E-002	2.27732E-002	2.26526E-004	..........a	-327.66
	28	7.49167	2.26941E-002	2.28132E-002	2.24126E-004	..........a	-327.66
	29	7.75	2.27326E-002	2.28536E-002	2.37526E-004	..........a	-327.66
	30	8.00833	2.27712E-002	2.28914E-002	2.21926E-004	..........a	-327.66
	31	8.26667	2.28103E-002	2.29322E-002	2.13992E-004	..........a	-327.66
	32	8.525	2.28497E-002	2.29722E-002	2.40392E-004	..........a	-327.66
	33	8.78333	2.28892E-002	2.30099E-002	2.29326E-004	..........a	-327.66
	34	9.04167	2.29287E-002	2.30477E-002	2.33792E-004	..........a	-327.66
	35	9.3	2.29680E-002	2.30867E-002	2.19459E-004	..........a	-327.66
	36	9.5583	2.30068E-002	2.31262E-002	2.39059E-004	..........a	-327.66
	37	9.8167	2.30453E-002	2.31637E-002	2.21726E-004	..........a	-327.66
	38	10.075	2.30839E-002	2.32028E-002	2.32392E-004	..........a	-327.66
EOC	QUANT	0.0230839	Open Circuit (V)
PSTATMODEL	IQUANT	7	Pstat Model
PSTATSECTION	LABEL	REF600P-43058	Pstat Section
PSTATSERIALNO	LABEL	43058	Pstat Serial Number
CTRLMODE	IQUANT	1	Control Mode
ELECTROMETER	IQUANT	0	RE=0 or CS=1
IESTAB	IQUANT	2	I/E Stability
CASPEED	IQUANT	4	Control Amp Speed
CONVENTION	IQUANT	1	Current Convention
ICHRANGE	IQUANT	2	Ich Range
ICHRANGEMODE	TOGGLE	F	Ich Auto Range
ICHOFFSETENABLE	TOGGLE	F	Ich Offset Enable
ICHOFFSET	QUANT	0	Ich Offset (V)
ICHFILTER	IQUANT	2	Ich Filter
VCHRANGE	IQUANT	2	Vch Range
VCHRANGEMODE	TOGGLE	F	Vch Auto Range
VCHOFFSETENABLE	TOGGLE	F	Vch Offset Enable
VCHOFFSET	QUANT	0	Vch Offset (V)
VCHFILTER	IQUANT	2	Vch Filter
ACHRANGE	IQUANT	2	Ach Range
ACHOFFSETENABLE	TOGGLE	F	Ach Offset Enable
ACHOFFSET	QUANT	0	Ach Offset (V)
ACHFILTER	IQUANT	1	Ach Filter
IERANGELOWERLIMIT	IQUANT	1	I/E Range Lower Limit
IERANGEMODE	TOGGLE	T	I/E AutoRange
IERANGE	IQUANT	4	I/E Range
POSFEEDENABLE	TOGGLE	F	Positive Feedback IR Comp
POSFEEDRESISTANCE	QUANT	0	Positive Feedback Resistance (ohm)
ACHSELECT	IQUANT	4	Ach Select
SENSECABLEID	IQUANT	7	Sense Cable ID
PWRCABLEID	IQUANT	7	Power Cable ID
DCCALDATE	LABEL	3/22/2024	DC Calibration Date
ACCALDATE	LABEL	3/22/2024	AC Calibration Date
THERMOSELECT	IQUANT	1	Thermo Select
FRAMEWORKVERSION	LABEL	7.8.4	Framework Version
INSTRUMENTVERSION	LABEL	4.42	Instrument Version
CURVE1	TABLE
	Pt	T	Vf	Im	Vu	Sig	Ach	IERange	Over	Temp
	#	s	V vs. Ref.	A	V	V	V	#	bits	deg C
	0	0.2	2.31569E-002	-7.35163E-011	0.00000E+000	2.31000E-002	1.02379E-003	5	..........a	-327.66
	1	0.4	1.32277E-002	-4.89547E-009	0.00000E+000	1.31000E-002	1.01209E-003	5	..........a	-327.66
	2	0.6	3.16789E-003	-8.33384E-009	0.00000E+000	3.10000E-003	1.01309E-003	5	..........a	-327.66
	3	0.8	-6.78986E-003	-1.12826E-008	0.00000E+000	-6.90000E-003	1.03509E-003	5	..........a	-327.66
	4	1	-1.68561E-002	-1.38800E-008	0.00000E+000	-1.69000E-002	9.92292E-004	5	..........a	-327.66
	5	1.2	-2.68593E-002	-1.63248E-008	0.00000E+000	-2.69000E-002	1.00709E-003	5	..........a	-327.66
	6	1.4	-3.68122E-002	-1.85695E-008	0.00000E+000	-3.69000E-002	1.02339E-003	5	..........a	-327.66
	7	1.6	-4.68063E-002	-2.07603E-008	0.00000E+000	-4.69000E-002	1.02289E-003	5	..........a	-327.66
	8	1.8	-5.68286E-002	-2.28894E-008	0.00000E+000	-5.69000E-002	1.00569E-003	5	..........a	-327.66
	9	2	-6.67990E-002	-2.50318E-008	0.00000E+000	-6.69000E-002	1.01719E-003	5	..........a	-327.66
	10	2.2	-7.68671E-002	-2.70130E-008	0.00000E+000	-7.69000E-002	1.01679E-003	5	..........a	-327.66
	11	2.4	-8.67225E-002	-2.89786E-008	0.00000E+000	-8.69000E-002	1.01719E-003	5	..........a	-327.66
	12	2.6	-9.68436E-002	-3.09312E-008	0.00000E+000	-9.69000E-002	1.03099E-003	5	..........a	-327.66
	13	2.8	-1.06883E-001	-3.28613E-008	0.00000E+000	-1.06900E-001	9.90492E-004	5	..........a	-327.66
	14	3	-1.16858E-001	-3.48198E-008	0.00000E+000	-1.16900E-001	1.02859E-003	5	..........a	-327.66
	15	3.2	-1.26800E-001	-3.68033E-008	0.00000E+000	-1.26900E-001	1.01469E-003	5	..........a	-327.66
	16	3.4	-1.36833E-001	-3.88033E-008	0.00000E+000	-1.36900E-001	1.03179E-003	5	..........a	-327.66
	17	3.6	-1.46847E-001	-4.07939E-008	0.00000E+000	-1.46900E-001	1.03539E-003	5	..........a	-327.66
	18	3.8	-1.56876E-001	-4.28437E-008	0.00000E+000	-1.56900E-001	9.93492E-004	5	..........a	-327.66
	19	4	-1.66817E-001	-4.48383E-008	0.00000E+000	-1.66900E-001	1.03159E-003	5	..........a	-327.66
	20	4.2	-1.76847E-001	-4.68987E-008	0.00000E+000	-1.76900E-001	1.02759E-003	5	..........a	-327.66
	21	4.4	-1.86883E-001	-4.89503E-008	0.00000E+000	-1.86900E-001	1.03379E-003	5	..........a	-327.66
	22	4.6	-1.96844E-001	-5.10037E-008	0.00000E+000	-1.96900E-001	1.02879E-003	5	..........a	-327.66
	23	4.8	-2.06816E-001	-5.31180E-008	0.00000E+000	-2.06900E-001	1.02579E-003	5	..........a	-327.66
	24	5	-2.16809E-001	-5.52386E-008	0.00000E+000	-2.16900E-001	1.00439E-003	5	..........a	-327.66
	25	5.2	-2.26811E-001	-5.73748E-008	0.00000E+000	-2.26900E-001	1.01309E-003	5	..........a	-327.66
	26	5.4	-2.36842E-001	-5.95621E-008	0.00000E+000	-2.36900E-001	1.04459E-003	5	..........a	-327.66
	27	5.6	-2.46756E-001	-6.18050E-008	0.00000E+000	-2.46900E-001	1.01999E-003	5	..........a	-327.66
	28	5.8	-2.56799E-001	-6.40586E-008	0.00000E+000	-2.56900E-001	1.00409E-003	5	..........a	-327.66
	29	6	-2.66746E-001	-6.63652E-008	0.00000E+000	-2.66900E-001	1.01549E-003	5	..........a	-327.66
	30	6.2	-2.76824E-001	-6.87231E-008	0.00000E+000	-2.76900E-001	1.00619E-003	5	..........a	-327.66
	31	6.4	-2.86783E-001	-7.11264E-008	0.00000E+000	-2.86900E-001	1.00199E-003	5	..........a	-327.66
	32	6.6	-2.96780E-001	-7.36063E-008	0.00000E+000	-2.96900E-001	1.00769E-003	5	..........a	-327.66
	33	6.8	-3.06839E-001	-7.61776E-008	0.00000E+000	-3.06900E-001	9.97492E-004	5	..........a	-327.66
	34	7	-3.16846E-001	-7.87970E-008	0.00000E+000	-3.16900E-001	1.00689E-003	5	..........a	-327.66
	35	7.2	-3.26763E-001	-8.15332E-008	0.00000E+000	-3.26900E-001	1.01339E-003	5	..........a	-327.66
	36	7.4	-3.36768E-001	-8.43632E-008	0.00000E+000	-3.36900E-001	1.01199E-003	5	..........a	-327.66
	37	7.6	-3.46753E-001	-8.72517E-008	0.00000E+000	-3.46900E-001	1.00809E-003	5	..........a	-327.66
	38	7.8	-3.56800E-001	-9.01819E-008	0.00000E+000	-3.56900E-001	1.00549E-003	5	..........a	-327.66
	39	8	-3.66768E-001	-9.32184E-008	0.00000E+000	-3.66900E-001	1.00459E-003	5	..........a	-327.66
	40	8.2	-3.76741E-001	-9.62637E-008	0.00000E+000	-3.76900E-001	1.00699E-003	5	..........a	-327.66
	41	8.4	-3.86834E-001	-9.93546E-008	0.00000E+000	-3.86900E-001	1.02279E-003	5	..........a	-327.66
	42	8.6	-3.96754E-001	-1.02450E-007	0.00000E+000	-3.96900E-001	1.01979E-003	5	..........a	-327.66
	43	8.8	-4.06751E-001	-1.05519E-007	0.00000E+000	-4.06900E-001	1.01519E-003	5	..........a	-327.66
	44	9	-4.16690E-001	-1.08553E-007	0.00000E+000	-4.16900E-001	9.97192E-004	5	..........a	-327.66
	45	9.2	-4.26708E-001	-1.11475E-007	0.00000E+000	-4.26900E-001	1.00139E-003	5	..........a	-327.66
	46	9.4	-4.36799E-001	-1.14339E-007	0.00000E+000	-4.36900E-001	1.01139E-003	5	..........a	-327.66
	47	9.6	-4.46706E-001	-1.17113E-007	0.00000E+000	-4.46900E-001	1.01229E-003	5	..........a	-327.66
	48	9.8	-4.56717E-001	-1.19753E-007	0.00000E+000	-4.56900E-001	1.00099E-003	5	..........a	-327.66
	49	10	-4.66763E-001	-1.22358E-007	0.00000E+000	-4.66900E-001	1.01479E-003	5	..........a	-327.66
	50	10.2	-4.76720E-001	-1.24852E-007	0.00000E+000	-4.76900E-001	1.01369E-003	5	..........a	-327.66
	51	10.4	-4.86719E-001	-1.27270E-007	0.00000E+000	-4.86900E-001	1.02769E-003	5	..........a	-327.66
	52	10.6	-4.96652E-001	-1.29649E-007	0.00000E+000	-4.96900E-001	1.02569E-003	5	..........a	-327.66
	53	10.8	-5.06718E-001	-1.32000E-007	0.00000E+000	-5.06900E-001	1.00089E-003	5	..........a	-327.66
	54	11	-5.16766E-001	-1.34344E-007	0.00000E+000	-5.16900E-001	1.01359E-003	5	..........a	-327.66
	55	11.2	-5.26695E-001	-1.36698E-007	0.00000E+000	-5.26900E-001	1.00869E-003	5	..........a	-327.66
	56	11.4	-5.36741E-001	-1.39094E-007	0.00000E+000	-5.36900E-001	1.02249E-003	5	..........a	-327.66
	57	11.6	-5.46762E-001	-1.41514E-007	0.00000E+000	-5.46900E-001	1.02009E-003	5	..........a	-327.66
	58	11.8	-5.56753E-001	-1.43972E-007	0.00000E+000	-5.56900E-001	1.01839E-003	5	..........a	-327.66
	59	12	-5.66755E-001	-1.46292E-007	0.00000E+000	-5.66900E-001	1.01899E-003	5	..........a	-327.66
	60	12.2	-5.76693E-001	-1.48879E-007	0.00000E+000	-5.76900E-001	9.92892E-004	5	..........a	-327.66
	61	12.4	-5.86778E-001	-1.51545E-007	0.00000E+000	-5.86900E-001	1.00499E-003	5	..........a	-327.66
	62	12.6	-5.96793E-001	-1.54278E-007	0.00000E+000	-5.96900E-001	1.03319E-003	5	..........a	-327.66
	63	12.8	-5.86791E-001	-1.38456E-007	0.00000E+000	-5.86900E-001	1.00409E-003	5	..........a	-327.66
	64	13	-5.76690E-001	-1.27589E-007	0.00000E+000	-5.76900E-001	1.01689E-003	5	..........a	-327.66
	65	13.2	-5.66770E-001	-1.18935E-007	0.00000E+000	-5.66900E-001	1.01059E-003	5	..........a	-327.66
	66	13.4	-5.56787E-001	-1.11597E-007	0.00000E+000	-5.56900E-001	1.02719E-003	5	..........a	-327.66
	67	13.6	-5.46832E-001	-1.05189E-007	0.00000E+000	-5.46900E-001	1.01589E-003	5	..........a	-327.66
	68	13.8	-5.36776E-001	-9.93508E-008	0.00000E+000	-5.36900E-001	1.01219E-003	5	..........a	-327.66
	69	14	-5.26720E-001	-9.40288E-008	0.00000E+000	-5.26900E-001	1.00729E-003	5	..........a	-327.66
	70	14.2	-5.16814E-001	-8.90780E-008	0.00000E+000	-5.16900E-001	9.95592E-004	5	..........a	-327.66
	71	14.4	-5.06783E-001	-8.44685E-008	0.00000E+000	-5.06900E-001	1.01779E-003	5	..........a	-327.66
	72	14.6	-4.96744E-001	-8.00827E-008	0.00000E+000	-4.96900E-001	9.89892E-004	5	..........a	-327.66
	73	14.8	-4.86741E-001	-7.59525E-008	0.00000E+000	-4.86900E-001	1.03459E-003	5	..........a	-327.66
	74	15	-4.76741E-001	-7.20002E-008	0.00000E+000	-4.76900E-001	1.01729E-003	5	..........a	-327.66
	75	15.2	-4.66780E-001	-6.81683E-008	0.00000E+000	-4.66900E-001	1.03139E-003	5	..........a	-327.66
	76	15.4	-4.56747E-001	-6.44887E-008	0.00000E+000	-4.56900E-001	1.01509E-003	5	..........a	-327.66
	77	15.6	-4.46700E-001	-6.09057E-008	0.00000E+000	-4.46900E-001	1.03239E-003	5	..........a	-327.66
	78	15.8	-4.36824E-001	-5.74416E-008	0.00000E+000	-4.36900E-001	1.02299E-003	5	..........a	-327.66
	79	16	-4.26767E-001	-5.41132E-008	0.00000E+000	-4.26900E-001	9.99192E-004	5	..........a	-327.66
	80	16.2	-4.16776E-001	-5.08103E-008	0.00000E+000	-4.16900E-001	1.00389E-003	5	..........a	-327.66
	81	16.4	-4.06782E-001	-4.76425E-008	0.00000E+000	-4.06900E-001	1.01219E-003	5	..........a	-327.66
	82	16.6	-3.96804E-001	-4.45426E-008	0.00000E+000	-3.96900E-001	1.01799E-003	5	..........a	-327.66
	83	16.8	-3.86818E-001	-4.15738E-008	0.00000E+000	-3.86900E-001	1.01799E-003	5	..........a	-327.66
	84	17	-3.76798E-001	-3.86112E-008	0.00000E+000	-3.76900E-001	1.01829E-003	5	..........a	-327.66
	85	17.2	-3.66807E-001	-3.57664E-008	0.00000E+000	-3.66900E-001	1.01499E-003	5	..........a	-327.66
	86	17.4	-3.56876E-001	-3.29845E-008	0.00000E+000	-3.56900E-001	1.01849E-003	5	..........a	-327.66
	87	17.6	-3.46779E-001	-3.02707E-008	0.00000E+000	-3.46900E-001	1.00989E-003	5	..........a	-327.66
	88	17.8	-3.36822E-001	-2.76428E-008	0.00000E+000	-3.36900E-001	1.01789E-003	5	..........a	-327.66
	89	18	-3.26768E-001	-2.51091E-008	0.00000E+000	-3.26900E-001	1.01249E-003	5	..........a	-327.66
	90	18.2	-3.16889E-001	-2.26480E-008	0.00000E+000	-3.16900E-001	1.00709E-003	5	..........a	-327.66
	91	18.4	-3.06842E-001	-2.02532E-008	0.00000E+000	-3.06900E-001	1.00499E-003	5	..........a	-327.66
	92	18.6	-2.96813E-001	-1.79174E-008	0.00000E+000	-2.96900E-001	1.00689E-003	5	..........a	-327.66
	93	18.8	-2.86796E-001	-1.56359E-008	0.00000E+000	-2.86900E-001	1.02059E-003	5	..........a	-327.66
	94	19	-2.76818E-001	-1.34215E-008	0.00000E+000	-2.76900E-001	9.87592E-004	5	..........a	-327.66
	95	19.2	-2.66769E-001	-1.12796E-008	0.00000E+000	-2.66900E-001	1.01639E-003	5	..........a	-327.66
	96	19.4	-2.56826E-001	-9.18163E-009	0.00000E+000	-2.56900E-001	1.00869E-003	5	..........a	-327.66
	97	19.6	-2.46791E-001	-7.13012E-009	0.00000E+000	-2.46900E-001	1.02099E-003	5	..........a	-327.66
	98	19.8	-2.36857E-001	-5.17737E-009	0.00000E+000	-2.36900E-001	1.01209E-003	5	..........a	-327.66
	99	20	-2.26791E-001	-3.20873E-009	0.00000E+000	-2.26900E-001	1.02519E-003	5	..........a	-327.66
	100	20.2	-2.16765E-001	-1.33076E-009	0.00000E+000	-2.16900E-001	9.98392E-004	5	..........a	-327.66
	101	20.4	-2.06817E-001	5.42177E-010	0.00000E+000	-2.06900E-001	9.99692E-004	5	..........a	-327.66
	102	20.6	-1.96881E-001	2.38613E-009	0.00000E+000	-1.96900E-001	1.01039E-003	5	..........a	-327.66
	103	20.8	-1.86902E-001	4.18991E-009	0.00000E+000	-1.86900E-001	1.02229E-003	5	..........a	-327.66
	104	21	-1.76865E-001	5.93963E-009	0.00000E+000	-1.76900E-001	1.00959E-003	5	..........a	-327.66
	105	21.2	-1.66826E-001	7.64675E-009	0.00000E+000	-1.66900E-001	1.01069E-003	5	..........a	-327.66
	106	21.4	-1.56911E-001	9.34031E-009	0.00000E+000	-1.56900E-001	1.00989E-003	5	..........a	-327.66
	107	21.6	-1.46876E-001	1.09974E-008	0.00000E+000	-1.46900E-001	1.00529E-003	5	..........a	-327.66
	108	21.8	-1.36861E-001	1.26313E-008	0.00000E+000	-1.36900E-001	1.00769E-003	5	..........a	-327.66
	109	22	-1.26821E-001	1.42533E-008	0.00000E+000	-1.26900E-001	1.01479E-003	5	..........a	-327.66
	110	22.2	-1.16899E-001	1.58474E-008	0.00000E+000	-1.16900E-001	1.00819E-003	5	..........a	-327.66
	111	22.4	-1.06907E-001	1.74267E-008	0.00000E+000	-1.06900E-001	1.01469E-003	5	..........a	-327.66
	112	22.6	-9.68946E-002	1.89898E-008	0.00000E+000	-9.69000E-002	1.02749E-003	5	..........a	-327.66
	113	22.8	-8.67719E-002	2.05139E-008	0.00000E+000	-8.69000E-002	1.01859E-003	5	..........a	-327.66
	114	23	-7.69098E-002	2.20572E-008	0.00000E+000	-7.69000E-002	1.01059E-003	5	..........a	-327.66
	115	23.2	-6.68705E-002	2.35827E-008	0.00000E+000	-6.69000E-002	1.02989E-003	5	..........a	-327.66
	116	23.4	-5.68864E-002	2.50735E-008	0.00000E+000	-5.69000E-002	1.00269E-003	5	..........a	-327.66
	117	23.6	-4.68243E-002	2.65631E-008	0.00000E+000	-4.69000E-002	1.03149E-003	5	..........a	-327.66
	118	23.8	-3.68774E-002	2.80362E-008	0.00000E+000	-3.69000E-002	9.95292E-004	5	..........a	-327.66
	119	24	-2.69029E-002	2.95237E-008	0.00000E+000	-2.69000E-002	9.99092E-004	5	..........a	-327.66
	120	24.2	-1.69065E-002	3.09806E-008	0.00000E+000	-1.69000E-002	1.01719E-003	5	..........a	-327.66
	121	24.4	-6.81526E-003	3.24561E-008	0.00000E+000	-6.90000E-003	1.01679E-003	5	..........a	-327.66
	122	24.6	3.10219E-003	3.39015E-008	0.00000E+000	3.10000E-003	1.02299E-003	5	..........a	-327.66
	123	24.8	1.31764E-002	3.53497E-008	0.00000E+000	1.31000E-002	1.00839E-003	5	..........a	-327.66
	124	25	2.31371E-002	3.68214E-008	0.00000E+000	2.31000E-002	1.00329E-003	5	..........a	-327.66
	125	25.2	3.31551E-002	3.82782E-008	0.00000E+000	3.31000E-002	1.01559E-003	5	..........a	-327.66
	126	25.4	4.31004E-002	3.97496E-008	0.00000E+000	4.31000E-002	1.01749E-003	5	..........a	-327.66
	127	25.6	5.30727E-002	4.12443E-008	0.00000E+000	5.31000E-002	1.02669E-003	5	..........a	-327.66
	128	25.8	6.31109E-002	4.27769E-008	0.00000E+000	6.31000E-002	9.88492E-004	5	..........a	-327.66
	129	26	7.31425E-002	4.43112E-008	0.00000E+000	7.31000E-002	1.00509E-003	5	..........a	-327.66
	130	26.2	8.31048E-002	4.58532E-008	0.00000E+000	8.31000E-002	1.01799E-003	5	..........a	-327.66
	131	26.4	9.31433E-002	4.74126E-008	0.00000E+000	9.31000E-002	1.00079E-003	5	..........a	-327.66
	132	26.6	1.03079E-001	4.89648E-008	0.00000E+000	1.03100E-001	1.01149E-003	5	..........a	-327.66
	133	26.8	1.13185E-001	5.06055E-008	0.00000E+000	1.13100E-001	1.01879E-003	5	..........a	-327.66
	134	27	1.23106E-001	5.22004E-008	0.00000E+000	1.23100E-001	1.01529E-003	5	..........a	-327.66
	135	27.2	1.33058E-001	5.38064E-008	0.00000E+000	1.33100E-001	1.02039E-003	5	..........a	-327.66
	136	27.4	1.43127E-001	5.54239E-008	0.00000E+000	1.43100E-001	1.00329E-003	5	..........a	-327.66
	137	27.6	1.53179E-001	5.70044E-008	0.00000E+000	1.53100E-001	1.01559E-003	5	..........a	-327.66
	138	27.8	1.63111E-001	5.85762E-008	0.00000E+000	1.63100E-001	1.01689E-003	5	..........a	-327.66
	139	28	1.73081E-001	6.01618E-008	0.00000E+000	1.73100E-001	1.01379E-003	5	..........a	-327.66
	140	28.2	1.83094E-001	6.16613E-008	0.00000E+000	1.83100E-001	9.99792E-004	5	..........a	-327.66
	141	28.4	1.93181E-001	6.32323E-008	0.00000E+000	1.93100E-001	1.01749E-003	5	..........a	-327.66
	142	28.6	2.03079E-001	6.47629E-008	0.00000E+000	2.03100E-001	1.01139E-003	5	..........a	-327.66
	143	28.8	2.13069E-001	6.62594E-008	0.00000E+000	2.13100E-001	1.00429E-003	5	..........a	-327.66
	144	29	2.23076E-001	6.77763E-008	0.00000E+000	2.23100E-001	1.01429E-003	5	..........a	-327.66
	145	29.2	2.33125E-001	6.92748E-008	0.00000E+000	2.33100E-001	1.01449E-003	5	..........a	-327.66
	146	29.4	2.43061E-001	7.07809E-008	0.00000E+000	2.43100E-001	9.88992E-004	5	..........a	-327.66
	147	29.6	2.53079E-001	7.23313E-008	0.00000E+000	2.53100E-001	1.03789E-003	5	..........a	-327.66
	148	29.8	2.63077E-001	7.38165E-008	0.00000E+000	2.63100E-001	9.97892E-004	5	..........a	-327.66
	149	30	2.73146E-001	7.53937E-008	0.00000E+000	2.73100E-001	1.02549E-003	5	..........a	-327.66
	150	30.2	2.83048E-001	7.69550E-008	0.00000E+000	2.83100E-001	1.01699E-003	5	..........a	-327.66
	151	30.4	2.93104E-001	7.85748E-008	0.00000E+000	2.93100E-001	1.01639E-003	5	..........a	-327.66
	152	30.6	3.03060E-001	8.02483E-008	0.00000E+000	3.03100E-001	1.02829E-003	5	..........a	-327.66
	153	30.8	3.13148E-001	8.19389E-008	0.00000E+000	3.13100E-001	1.02449E-003	5	..........a	-327.66
	154	31	3.23074E-001	8.38200E-008	0.00000E+000	3.23100E-001	1.01129E-003	5	..........a	-327.66
	155	31.2	3.33048E-001	8.56833E-008	0.00000E+000	3.33100E-001	1.02179E-003	5	..........a	-327.66
	156	31.4	3.43077E-001	8.77270E-008	0.00000E+000	3.43100E-001	1.00329E-003	5	..........a	-327.66
	157	31.6	3.53134E-001	8.97876E-008	0.00000E+000	3.53100E-001	1.03269E-003	5	..........a	-327.66
	158	31.8	3.63055E-001	9.18426E-008	0.00000E+000	3.63100E-001	1.01689E-003	5	..........a	-327.66
	159	32	3.72962E-001	9.39849E-008	0.00000E+000	3.73100E-001	1.00389E-003	5	..........a	-327.66
	160	32.2	3.83054E-001	9.61899E-008	0.00000E+000	3.83100E-001	1.00979E-003	5	..........a	-327.66
	161	32.4	3.93135E-001	9.85115E-008	0.00000E+000	3.93100E-001	1.00869E-003	5	..........a	-327.66
	162	32.6	4.03040E-001	1.00910E-007	0.00000E+000	4.03100E-001	1.00939E-003	5	..........a	-327.66
	163	32.8	4.13013E-001	1.03459E-007	0.00000E+000	4.13100E-001	1.00329E-003	5	..........a	-327.66
	164	33	4.23020E-001	1.06156E-007	0.00000E+000	4.23100E-001	1.00389E-003	5	..........a	-327.66
	165	33.2	4.33131E-001	1.09002E-007	0.00000E+000	4.33100E-001	1.02539E-003	5	..........a	-327.66
	166	33.4	4.43032E-001	1.11980E-007	0.00000E+000	4.43100E-001	1.01949E-003	5	..........a	-327.66
	167	33.6	4.52989E-001	1.15107E-007	0.00000E+000	4.53100E-001	1.00479E-003	5	..........a	-327.66
	168	33.8	4.63021E-001	1.18245E-007	0.00000E+000	4.63100E-001	1.00229E-003	5	..........a	-327.66
	169	34	4.73078E-001	1.21509E-007	0.00000E+000	4.73100E-001	1.01329E-003	5	..........a	-327.66
	170	34.2	4.83005E-001	1.24788E-007	0.00000E+000	4.83100E-001	1.00119E-003	5	..........a	-327.66
	171	34.4	4.93003E-001	1.28036E-007	0.00000E+000	4.93100E-001	1.03329E-003	5	..........a	-327.66
	172	34.6	5.03017E-001	1.31290E-007	0.00000E+000	5.03100E-001	9.89292E-004	5	..........a	-327.66
	173	34.8	5.13118E-001	1.34548E-007	0.00000E+000	5.13100E-001	1.00609E-003	5	..........a	-327.66
	174	35	5.23015E-001	1.37757E-007	0.00000E+000	5.23100E-001	1.02559E-003	5	..........a	-327.66
	175	35.2	5.33005E-001	1.41002E-007	0.00000E+000	5.33100E-001	1.01949E-003	5	..........a	-327.66
	176	35.4	5.43015E-001	1.44200E-007	0.00000E+000	5.43100E-001	9.83492E-004	5	..........a	-327.66
	177	35.6	5.53136E-001	1.47515E-007	0.00000E+000	5.53100E-001	1.02629E-003	5	..........a	-327.66
	178	35.8	5.62998E-001	1.50775E-007	0.00000E+000	5.63100E-001	1.01239E-003	5	..........a	-327.66
	179	36	5.73021E-001	1.53935E-007	0.00000E+000	5.73100E-001	1.00999E-003	5	..........a	-327.66
	180	36.2	5.82980E-001	1.57174E-007	0.00000E+000	5.83100E-001	1.01659E-003	5	..........a	-327.66
	181	36.4	5.93088E-001	1.60434E-007	0.00000E+000	5.93100E-001	1.00599E-003	5	..........a	-327.66
	182	36.6	6.02987E-001	1.63663E-007	0.00000E+000	6.03100E-001	1.01569E-003	5	..........a	-327.66
	183	36.8	6.12948E-001	1.67008E-007	0.00000E+000	6.13100E-001	9.96792E-004	5	..........a	-327.66
	184	37	6.22976E-001	1.70386E-007	0.00000E+000	6.23100E-001	1.00809E-003	5	..........a	-327.66
	185	37.2	6.33087E-001	1.73757E-007	0.00000E+000	6.33100E-001	1.01919E-003	5	..........a	-327.66
	186	37.4	6.42929E-001	1.77154E-007	0.00000E+000	6.43100E-001	1.00449E-003	5	..........a	-327.66
	187	37.6	6.52985E-001	1.80595E-007	0.00000E+000	6.53100E-001	9.92492E-004	5	..........a	-327.66
	188	37.8	6.62949E-001	1.83939E-007	0.00000E+000	6.63100E-001	1.00449E-003	5	..........a	-327.66
	189	38	6.73014E-001	1.87451E-007	0.00000E+000	6.73100E-001	1.00709E-003	5	..........a	-327.66
	190	38.2	6.82909E-001	1.91041E-007	0.00000E+000	6.83100E-001	1.02169E-003	5	..........a	-327.66
	191	38.4	6.92925E-001	1.94662E-007	0.00000E+000	6.93100E-001	1.00279E-003	5	..........a	-327.66
	192	38.6	7.02955E-001	1.98367E-007	0.00000E+000	7.03100E-001	1.00439E-003	5	..........a	-327.66
	193	38.8	7.13059E-001	2.02247E-007	0.00000E+000	7.13100E-001	1.01109E-003	5	..........a	-327.66
	194	39	7.22947E-001	2.06296E-007	0.00000E+000	7.23100E-001	9.92792E-004	5	..........a	-327.66
	195	39.2	7.32981E-001	2.10535E-007	0.00000E+000	7.33100E-001	1.00969E-003	5	..........a	-327.66
	196	39.4	7.42926E-001	2.15042E-007	0.00000E+000	7.43100E-001	9.89192E-004	5	..........a	-327.66
	197	39.6	7.53000E-001	2.20189E-007	0.00000E+000	7.53100E-001	1.01829E-003	5	..........a	-327.66
	198	39.8	7.62932E-001	2.26458E-007	0.00000E+000	7.63100E-001	1.00749E-003	5	..........a	-327.66
	199	40	7.72913E-001	2.33315E-007	0.00000E+000	7.73100E-001	9.97792E-004	5	..........a	-327.66
	200	40.2	7.82856E-001	2.38695E-007	0.00000E+000	7.83100E-001	1.01179E-003	5	..........a	-327.66
	201	40.4	7.93014E-001	2.43252E-007	0.00000E+000	7.93100E-001	1.00329E-003	5	..........a	-327.66
	202	40.6	8.02937E-001	2.48679E-007	0.00000E+000	8.03100E-001	9.98592E-004	5	..........a	-327.66
CURVE2	TABLE
	Pt	T	Vf	Im	Vu	Sig	Ach	IERange	Over	Temp
	#	s	V vs. Ref.	A	V	V	V	#	bits	deg C
	203	40.8	7.89961E-001	2.01578E-007	0.00000E+000	7.90000E-001	1.00339E-003	5	..........a	-327.66
	204	41	7.79841E-001	1.77218E-007	0.00000E+000	7.80000E-001	9.90492E-004	5	..........a	-327.66
	205	41.2	7.69867E-001	1.58882E-007	0.00000E+000	7.70000E-001	1.01969E-003	5	..........a	-327.66
	206	41.4	7.59873E-001	1.44277E-007	0.00000E+000	7.60000E-001	1.01419E-003	5	..........a	-327.66
	207	41.6	7.49962E-001	1.32232E-007	0.00000E+000	7.50000E-001	1.00889E-003	5	..........a	-327.66
	208	41.8	7.39876E-001	1.21964E-007	0.00000E+000	7.40000E-001	1.01839E-003	5	..........a	-327.66
	209	42	7.29899E-001	1.13085E-007	0.00000E+000	7.30000E-001	1.01239E-003	5	..........a	-327.66
	210	42.2	7.19867E-001	1.05235E-007	0.00000E+000	7.20000E-001	1.02359E-003	5	..........a	-327.66
	211	42.4	7.09966E-001	9.81500E-008	0.00000E+000	7.10000E-001	1.02199E-003	5	..........a	-327.66
	212	42.6	6.99898E-001	9.16639E-008	0.00000E+000	7.00000E-001	9.93392E-004	5	..........a	-327.66
	213	42.8	6.89877E-001	8.57716E-008	0.00000E+000	6.90000E-001	1.01599E-003	5	..........a	-327.66
	214	43	6.79912E-001	8.02192E-008	0.00000E+000	6.80000E-001	1.02599E-003	5	..........a	-327.66
	215	43.2	6.69957E-001	7.50857E-008	0.00000E+000	6.70000E-001	1.00209E-003	5	..........a	-327.66
	216	43.4	6.59914E-001	7.02519E-008	0.00000E+000	6.60000E-001	1.01129E-003	5	..........a	-327.66
	217	43.6	6.49926E-001	6.56937E-008	0.00000E+000	6.50000E-001	1.02799E-003	5	..........a	-327.66
	218	43.8	6.39883E-001	6.13704E-008	0.00000E+000	6.40000E-001	1.01669E-003	5	..........a	-327.66
	219	44	6.30029E-001	5.72989E-008	0.00000E+000	6.30000E-001	1.01379E-003	5	..........a	-327.66
	220	44.2	6.19919E-001	5.33824E-008	0.00000E+000	6.20000E-001	1.01789E-003	5	..........a	-327.66
	221	44.4	6.09923E-001	4.96657E-008	0.00000E+000	6.10000E-001	1.01439E-003	5	..........a	-327.66
	222	44.6	5.99957E-001	4.60657E-008	0.00000E+000	6.00000E-001	1.01499E-003	5	..........a	-327.66
	223	44.8	5.89994E-001	4.26903E-008	0.00000E+000	5.90000E-001	1.01249E-003	5	..........a	-327.66
	224	45	5.80004E-001	3.93936E-008	0.00000E+000	5.80000E-001	1.01139E-003	5	..........a	-327.66
	225	45.2	5.69961E-001	3.62113E-008	0.00000E+000	5.70000E-001	1.01959E-003	5	..........a	-327.66
	226	45.4	5.59940E-001	3.31941E-008	0.00000E+000	5.60000E-001	1.00639E-003	5	..........a	-327.66
	227	45.6	5.50026E-001	3.02078E-008	0.00000E+000	5.50000E-001	1.02909E-003	5	..........a	-327.66
	228	45.8	5.40000E-001	2.73209E-008	0.00000E+000	5.40000E-001	1.00919E-003	5	..........a	-327.66
	229	46	5.29955E-001	2.45149E-008	0.00000E+000	5.30000E-001	1.02499E-003	5	..........a	-327.66
	230	46.2	5.19969E-001	2.17494E-008	0.00000E+000	5.20000E-001	1.01339E-003	5	..........a	-327.66
	231	46.4	5.09972E-001	1.90666E-008	0.00000E+000	5.10000E-001	1.02809E-003	5	..........a	-327.66
	232	46.6	5.00044E-001	1.64307E-008	0.00000E+000	5.00000E-001	1.01759E-003	5	..........a	-327.66
	233	46.8	4.89932E-001	1.38603E-008	0.00000E+000	4.90000E-001	1.02309E-003	5	..........a	-327.66
	234	47	4.79911E-001	1.13031E-008	0.00000E+000	4.80000E-001	1.02059E-003	5	..........a	-327.66
	235	47.2	4.70013E-001	8.78246E-009	0.00000E+000	4.70000E-001	1.02139E-003	5	..........a	-327.66
	236	47.4	4.60001E-001	6.27908E-009	0.00000E+000	4.60000E-001	1.01179E-003	5	..........a	-327.66
	237	47.6	4.50006E-001	3.77627E-009	0.00000E+000	4.50000E-001	1.02619E-003	5	..........a	-327.66
	238	47.8	4.39944E-001	1.26422E-009	0.00000E+000	4.40000E-001	1.02069E-003	5	..........a	-327.66
	239	48	4.29962E-001	-1.30286E-009	0.00000E+000	4.30000E-001	1.01549E-003	5	..........a	-327.66
	240	48.2	4.20029E-001	-3.75646E-009	0.00000E+000	4.20000E-001	9.91492E-004	5	..........a	-327.66
	241	48.4	4.09995E-001	-6.25119E-009	0.00000E+000	4.10000E-001	9.89092E-004	5	..........a	-327.66
	242	48.6	4.00049E-001	-8.66682E-009	0.00000E+000	4.00000E-001	9.98192E-004	5	..........a	-327.66
	243	48.8	3.90045E-001	-1.11457E-008	0.00000E+000	3.90000E-001	1.00639E-003	5	..........a	-327.66
	244	49	3.80064E-001	-1.35484E-008	0.00000E+000	3.80000E-001	9.96592E-004	5	..........a	-327.66
	245	49.2	3.70050E-001	-1.59717E-008	0.00000E+000	3.70000E-001	1.02699E-003	5	..........a	-327.66
	246	49.4	3.59996E-001	-1.82856E-008	0.00000E+000	3.60000E-001	1.00429E-003	5	..........a	-327.66
	247	49.6	3.50037E-001	-2.06708E-008	0.00000E+000	3.50000E-001	1.01179E-003	5	..........a	-327.66
	248	49.8	3.40076E-001	-2.29587E-008	0.00000E+000	3.40000E-001	1.01279E-003	5	..........a	-327.66
	249	50	3.30029E-001	-2.52012E-008	0.00000E+000	3.30000E-001	1.01269E-003	5	..........a	-327.66
	250	50.2	3.20043E-001	-2.73500E-008	0.00000E+000	3.20000E-001	1.01859E-003	5	..........a	-327.66
	251	50.4	3.10053E-001	-2.95099E-008	0.00000E+000	3.10000E-001	1.01559E-003	5	..........a	-327.66
	252	50.6	3.00092E-001	-3.15974E-008	0.00000E+000	3.00000E-001	9.88992E-004	5	..........a	-327.66
	253	50.8	2.90036E-001	-3.35754E-008	0.00000E+000	2.90000E-001	1.00979E-003	5	..........a	-327.66
	254	51	2.79999E-001	-3.54642E-008	0.00000E+000	2.80000E-001	1.00189E-003	5	..........a	-327.66
	255	51.2	2.70079E-001	-3.72716E-008	0.00000E+000	2.70000E-001	1.00809E-003	5	..........a	-327.66
	256	51.4	2.60069E-001	-3.89771E-008	0.00000E+000	2.60000E-001	1.02259E-003	5	..........a	-327.66
	257	51.6	2.49995E-001	-4.06440E-008	0.00000E+000	2.50000E-001	1.02969E-003	5	..........a	-327.66
	258	51.8	2.40047E-001	-4.21593E-008	0.00000E+000	2.40000E-001	9.98492E-004	5	..........a	-327.66
	259	52	2.30016E-001	-4.35254E-008	0.00000E+000	2.30000E-001	1.00949E-003	5	..........a	-327.66
	260	52.2	2.20070E-001	-4.47857E-008	0.00000E+000	2.20000E-001	9.83792E-004	5	..........a	-327.66
	261	52.4	2.10044E-001	-4.59812E-008	0.00000E+000	2.10000E-001	9.97092E-004	5	..........a	-327.66
	262	52.6	2.00054E-001	-4.70781E-008	0.00000E+000	2.00000E-001	9.96992E-004	5	..........a	-327.66
	263	52.8	1.90110E-001	-4.80532E-008	0.00000E+000	1.90000E-001	1.01429E-003	5	..........a	-327.66
	264	53	1.80111E-001	-4.89767E-008	0.00000E+000	1.80000E-001	1.00049E-003	5	..........a	-327.66
	265	53.2	1.70099E-001	-4.98658E-008	0.00000E+000	1.70000E-001	1.01369E-003	5	..........a	-327.66
	266	53.4	1.60082E-001	-5.07153E-008	0.00000E+000	1.60000E-001	1.00919E-003	5	..........a	-327.66
	267	53.6	1.50082E-001	-5.15939E-008	0.00000E+000	1.50000E-001	1.01409E-003	5	..........a	-327.66
	268	53.8	1.40127E-001	-5.24719E-008	0.00000E+000	1.40000E-001	1.01429E-003	5	..........a	-327.66
	269	54	1.30044E-001	-5.33766E-008	0.00000E+000	1.30000E-001	1.01619E-003	5	..........a	-327.66
	270	54.2	1.20045E-001	-5.43000E-008	0.00000E+000	1.20000E-001	1.02889E-003	5	..........a	-327.66
	271	54.4	1.10132E-001	-5.52061E-008	0.00000E+000	1.10000E-001	1.01419E-003	5	..........a	-327.66
	272	54.6	1.00138E-001	-5.61636E-008	0.00000E+000	1.00000E-001	9.86892E-004	5	..........a	-327.66
	273	54.8	9.00833E-002	-5.70616E-008	0.00000E+000	9.00000E-002	9.95792E-004	5	..........a	-327.66
	274	55	8.00127E-002	-5.79473E-008	0.00000E+000	8.00000E-002	1.02879E-003	5	..........a	-327.66
	275	55.2	6.99986E-002	-5.89374E-008	0.00000E+000	7.00000E-002	1.01499E-003	5	..........a	-327.66
	276	55.4	6.01337E-002	-5.98860E-008	0.00000E+000	6.00000E-002	1.01939E-003	5	..........a	-327.66
	277	55.6	5.00589E-002	-6.08835E-008	0.00000E+000	5.00000E-002	1.01319E-003	5	..........a	-327.66
	278	55.8	4.01012E-002	-6.19821E-008	0.00000E+000	4.00000E-002	1.02269E-003	5	..........a	-327.66
	279	56	3.00511E-002	-6.30619E-008	0.00000E+000	3.00000E-002	1.02689E-003	5	..........a	-327.66
	280	56.2	2.01365E-002	-6.41119E-008	0.00000E+000	2.00000E-002	1.02589E-003	5	..........a	-327.66
	281	56.4	1.01271E-002	-6.52053E-008	0.00000E+000	1.00000E-002	9.85092E-004	5	..........a	-327.66
	282	56.6	5.03417E-005	-6.61763E-008	0.00000E+000	7.45058E-009	9.96192E-004	5	..........a	-327.66
	283	56.8	-9.89991E-003	-6.72191E-008	0.00000E+000	-1.00000E-002	9.94492E-004	5	..........a	-327.66
	284	57	-1.98962E-002	-6.79999E-008	0.00000E+000	-2.00000E-002	1.00749E-003	5	..........a	-327.66
	285	57.2	-2.99600E-002	-6.90314E-008	0.00000E+000	-3.00000E-002	1.02739E-003	5	..........a	-327.66
	286	57.4	-3.98977E-002	-7.00812E-008	0.00000E+000	-4.00000E-002	9.99892E-004	5	..........a	-327.66
	287	57.6	-4.98949E-002	-7.11035E-008	0.00000E+000	-5.00000E-002	9.91292E-004	5	..........a	-327.66
	288	57.8	-5.98308E-002	-7.23766E-008	0.00000E+000	-6.00000E-002	1.00249E-003	5	..........a	-327.66
	289	58	-6.99240E-002	-7.35784E-008	0.00000E+000	-7.00000E-002	1.02319E-003	5	..........a	-327.66
	290	58.2	-7.99642E-002	-7.46629E-008	0.00000E+000	-8.00000E-002	1.02649E-003	5	..........a	-327.66
	291	58.4	-8.98731E-002	-7.57022E-008	0.00000E+000	-9.00000E-002	1.02149E-003	5	..........a	-327.66
	292	58.6	-9.98689E-002	-7.69630E-008	0.00000E+000	-1.00000E-001	9.94692E-004	5	..........a	-327.66
	293	58.8	-1.09962E-001	-7.81267E-008	0.00000E+000	-1.10000E-001	9.98592E-004	5	..........a	-327.66
	294	59	-1.19939E-001	-7.93946E-008	0.00000E+000	-1.20000E-001	1.01349E-003	5	..........a	-327.66
	295	59.2	-1.29924E-001	-8.07215E-008	0.00000E+000	-1.30000E-001	1.04059E-003	5	..........a	-327.66
	296	59.4	-1.39853E-001	-8.22267E-008	0.00000E+000	-1.40000E-001	1.01549E-003	5	..........a	-327.66
	297	59.6	-1.49963E-001	-8.37451E-008	0.00000E+000	-1.50000E-001	1.00589E-003	5	..........a	-327.66
	298	59.8	-1.59919E-001	-8.49251E-008	0.00000E+000	-1.60000E-001	1.00459E-003	5	..........a	-327.66
	299	60	-1.69869E-001	-8.60778E-008	0.00000E+000	-1.70000E-001	1.01519E-003	5	..........a	-327.66
	300	60.2	-1.79879E-001	-8.74291E-008	0.00000E+000	-1.80000E-001	1.02289E-003	5	..........a	-327.66
	301	60.4	-1.89938E-001	-8.89318E-008	0.00000E+000	-1.90000E-001	1.01389E-003	5	..........a	-327.66
	302	60.6	-1.99930E-001	-9.02637E-008	0.00000E+000	-2.00000E-001	1.01309E-003	5	..........a	-327.66
	303	60.8	-2.09878E-001	-9.16293E-008	0.00000E+000	-2.10000E-001	1.00449E-003	5	..........a	-327.66
	304	61	-2.19848E-001	-9.32509E-008	0.00000E+000	-2.20000E-001	1.00009E-003	5	..........a	-327.66
	305	61.2	-2.29918E-001	-9.48450E-008	0.00000E+000	-2.30000E-001	9.90392E-004	5	..........a	-327.66
	306	61.4	-2.39866E-001	-9.65108E-008	0.00000E+000	-2.40000E-001	1.00459E-003	5	..........a	-327.66
	307	61.6	-2.49862E-001	-9.82788E-008	0.00000E+000	-2.50000E-001	9.92592E-004	5	..........a	-327.66
	308	61.8	-2.59769E-001	-9.99711E-008	0.00000E+000	-2.60000E-001	9.84592E-004	5	..........a	-327.66
	309	62	-2.69843E-001	-1.01820E-007	0.00000E+000	-2.70000E-001	1.00129E-003	5	..........a	-327.66
	310	62.2	-2.79892E-001	-1.03776E-007	0.00000E+000	-2.80000E-001	1.00869E-003	5	..........a	-327.66
	311	62.4	-2.89882E-001	-1.05720E-007	0.00000E+000	-2.90000E-001	1.00249E-003	5	..........a	-327.66
	312	62.6	-2.99823E-001	-1.07776E-007	0.00000E+000	-3.00000E-001	1.00009E-003	5	..........a	-327.66
	313	62.8	-3.09896E-001	-1.10110E-007	0.00000E+000	-3.10000E-001	1.02259E-003	5	..........a	-327.66
	314	63	-3.19842E-001	-1.12095E-007	0.00000E+000	-3.20000E-001	9.97692E-004	5	..........a	-327.66
	315	63.2	-3.29905E-001	-1.14332E-007	0.00000E+000	-3.30000E-001	9.98692E-004	5	..........a	-327.66
	316	63.4	-3.39769E-001	-1.16618E-007	0.00000E+000	-3.40000E-001	1.00899E-003	5	..........a	-327.66
	317	63.6	-3.49855E-001	-1.18915E-007	0.00000E+000	-3.50000E-001	1.01449E-003	5	..........a	-327.66
	318	63.8	-3.59895E-001	-1.21313E-007	0.00000E+000	-3.60000E-001	1.00969E-003	5	..........a	-327.66
	319	64	-3.69854E-001	-1.23568E-007	0.00000E+000	-3.70000E-001	1.01149E-003	5	..........a	-327.66
	320	64.2	-3.79801E-001	-1.25830E-007	0.00000E+000	-3.80000E-001	9.87792E-004	5	..........a	-327.66
	321	64.4	-3.89885E-001	-1.28071E-007	0.00000E+000	-3.90000E-001	1.01729E-003	5	..........a	-327.66
	322	64.6	-3.99858E-001	-1.30229E-007	0.00000E+000	-4.00000E-001	1.01569E-003	5	..........a	-327.66
	323	64.8	-4.09844E-001	-1.32344E-007	0.00000E+000	-4.10000E-001	1.00619E-003	5	..........a	-327.66
	324	65	-4.19724E-001	-1.34387E-007	0.00000E+000	-4.20000E-001	1.01869E-003	5	..........a	-327.66
	325	65.2	-4.29836E-001	-1.36429E-007	0.00000E+000	-4.30000E-001	1.01109E-003	5	..........a	-327.66
	326	65.4	-4.39839E-001	-1.38411E-007	0.00000E+000	-4.40000E-001	1.01249E-003	5	..........a	-327.66
	327	65.6	-4.49829E-001	-1.40362E-007	0.00000E+000	-4.50000E-001	1.00269E-003	5	..........a	-327.66
	328	65.8	-4.59764E-001	-1.42232E-007	0.00000E+000	-4.60000E-001	1.01749E-003	5	..........a	-327.66
	329	66	-4.69838E-001	-1.44064E-007	0.00000E+000	-4.70000E-001	9.94792E-004	5	..........a	-327.66
	330	66.2	-4.79835E-001	-1.45879E-007	0.00000E+000	-4.80000E-001	1.00659E-003	5	..........a	-327.66
	331	66.4	-4.89830E-001	-1.47668E-007	0.00000E+000	-4.90000E-001	1.01629E-003	5	..........a	-327.66
	332	66.6	-4.99791E-001	-1.49502E-007	0.00000E+000	-5.00000E-001	1.00149E-003	5	..........a	-327.66
	333	66.8	-5.09840E-001	-1.51391E-007	0.00000E+000	-5.10000E-001	1.00309E-003	5	..........a	-327.66
	334	67	-5.19853E-001	-1.53418E-007	0.00000E+000	-5.20000E-001	1.01919E-003	5	..........a	-327.66
	335	67.2	-5.29832E-001	-1.55184E-007	0.00000E+000	-5.30000E-001	9.98192E-004	5	..........a	-327.66
	336	67.4	-5.39746E-001	-1.57194E-007	0.00000E+000	-5.40000E-001	1.00549E-003	5	..........a	-327.66
	337	67.6	-5.49855E-001	-1.59320E-007	0.00000E+000	-5.50000E-001	1.00659E-003	5	..........a	-327.66
	338	67.8	-5.59874E-001	-1.61488E-007	0.00000E+000	-5.60000E-001	1.01809E-003	5	..........a	-327.66
	339	68	-5.69860E-001	-1.63671E-007	0.00000E+000	-5.70000E-001	1.01099E-003	5	..........a	-327.66
	340	68.2	-5.79774E-001	-1.65767E-007	0.00000E+000	-5.80000E-001	9.94992E-004	5	..........a	-327.66
	341	68.4	-5.89828E-001	-1.67870E-007	0.00000E+000	-5.90000E-001	1.01539E-003	5	..........a	-327.66
	342	68.6	-5.99762E-001	-1.70195E-007	0.00000E+000	-6.00000E-001	1.02369E-003	5	..........a	-327.66
	343	68.8	-5.89850E-001	-1.53536E-007	0.00000E+000	-5.90000E-001	1.01019E-003	5	..........a	-327.66
	344	69	-5.79776E-001	-1.41708E-007	0.00000E+000	-5.80000E-001	1.00269E-003	5	..........a	-327.66
	345	69.2	-5.69860E-001	-1.32280E-007	0.00000E+000	-5.70000E-001	1.00259E-003	5	..........a	-327.66
	346	69.4	-5.59863E-001	-1.24522E-007	0.00000E+000	-5.60000E-001	1.01919E-003	5	..........a	-327.66
	347	69.6	-5.49872E-001	-1.17804E-007	0.00000E+000	-5.50000E-001	1.01659E-003	5	..........a	-327.66
	348	69.8	-5.39758E-001	-1.11543E-007	0.00000E+000	-5.40000E-001	9.92392E-004	5	..........a	-327.66
	349	70	-5.29826E-001	-1.05783E-007	0.00000E+000	-5.30000E-001	1.01209E-003	5	..........a	-327.66
	350	70.2	-5.19856E-001	-1.00737E-007	0.00000E+000	-5.20000E-001	1.01819E-003	5	..........a	-327.66
	351	70.4	-5.09842E-001	-9.56322E-008	0.00000E+000	-5.10000E-001	1.00669E-003	5	..........a	-327.66
	352	70.6	-4.99819E-001	-9.11632E-008	0.00000E+000	-5.00000E-001	9.88592E-004	5	..........a	-327.66
	353	70.8	-4.89836E-001	-8.66232E-008	0.00000E+000	-4.90000E-001	1.00659E-003	5	..........a	-327.66
[...]
	920	184.2	-4.19806E-001	-6.20505E-008	0.00000E+000	-4.20000E-001	9.98192E-004	5	..........a	-327.66
	921	184.4	-4.09961E-001	-5.86698E-008	0.00000E+000	-4.10000E-001	1.02119E-003	5	..........a	-327.66
	922	184.6	-3.99872E-001	-5.53940E-008	0.00000E+000	-4.00000E-001	1.01099E-003	5	..........a	-327.66
	923	184.8	-3.89941E-001	-5.22185E-008	0.00000E+000	-3.90000E-001	1.02709E-003	5	..........a	-327.66
	924	185	-3.79849E-001	-4.90668E-008	0.00000E+000	-3.80000E-001	1.00059E-003	5	..........a	-327.66
	925	185.2	-3.69892E-001	-4.60387E-008	0.00000E+000	-3.70000E-001	1.01719E-003	5	..........a	-327.66
	926	185.4	-3.59942E-001	-4.29857E-008	0.00000E+000	-3.60000E-001	1.01729E-003	5	..........a	-327.66
	927	185.6	-3.49893E-001	-4.00126E-008	0.00000E+000	-3.50000E-001	1.00369E-003	5	..........a	-327.66
	928	185.8	-3.39844E-001	-3.71273E-008	0.00000E+000	-3.40000E-001	1.00289E-003	5	..........a	-327.66
	929	186	-3.29899E-001	-3.43004E-008	0.00000E+000	-3.30000E-001	9.99492E-004	5	..........a	-327.66
	930	186.2	-3.19878E-001	-3.15185E-008	0.00000E+000	-3.20000E-001	9.79992E-004	5	..........a	-327.66
	931	186.4	-3.09912E-001	-2.87928E-008	0.00000E+000	-3.10000E-001	1.00919E-003	5	..........a	-327.66
	932	186.6	-2.99874E-001	-2.61519E-008	0.00000E+000	-3.00000E-001	9.97992E-004	5	..........a	-327.66
	933	186.8	-2.89894E-001	-2.35558E-008	0.00000E+000	-2.90000E-001	9.99692E-004	5	..........a	-327.66
	934	187	-2.79906E-001	-2.10174E-008	0.00000E+000	-2.80000E-001	1.01529E-003	5	..........a	-327.66
	935	187.2	-2.69876E-001	-1.84826E-008	0.00000E+000	-2.70000E-001	9.83492E-004	5	..........a	-327.66
	936	187.4	-2.59855E-001	-1.60599E-008	0.00000E+000	-2.60000E-001	9.88692E-004	5	..........a	-327.66
	937	187.6	-2.49875E-001	-1.36636E-008	0.00000E+000	-2.50000E-001	9.99092E-004	5	..........a	-327.66
	938	187.8	-2.39941E-001	-1.13471E-008	0.00000E+000	-2.40000E-001	1.01389E-003	5	..........a	-327.66
	939	188	-2.29934E-001	-9.08089E-009	0.00000E+000	-2.30000E-001	1.00489E-003	5	..........a	-327.66
	940	188.2	-2.19904E-001	-6.85872E-009	0.00000E+000	-2.20000E-001	1.00219E-003	5	..........a	-327.66
	941	188.4	-2.09902E-001	-4.66144E-009	0.00000E+000	-2.10000E-001	1.01309E-003	5	..........a	-327.66
	942	188.6	-1.99969E-001	-2.59326E-009	0.00000E+000	-2.00000E-001	1.00959E-003	5	..........a	-327.66
	943	188.8	-1.89932E-001	-5.15423E-010	0.00000E+000	-1.90000E-001	1.02539E-003	5	..........a	-327.66
	944	189	-1.79961E-001	1.57835E-009	0.00000E+000	-1.80000E-001	1.02259E-003	5	..........a	-327.66
	945	189.2	-1.69943E-001	3.58937E-009	0.00000E+000	-1.70000E-001	1.00589E-003	5	..........a	-327.66
	946	189.4	-1.60032E-001	5.52661E-009	0.00000E+000	-1.60000E-001	1.01859E-003	5	..........a	-327.66
	947	189.6	-1.50069E-001	7.46588E-009	0.00000E+000	-1.50000E-001	9.89592E-004	5	..........a	-327.66
	948	189.8	-1.39947E-001	9.34077E-009	0.00000E+000	-1.40000E-001	9.97192E-004	5	..........a	-327.66
	949	190	-1.29998E-001	1.12033E-008	0.00000E+000	-1.30000E-001	1.01129E-003	5	..........a	-327.66
	950	190.2	-1.20016E-001	1.30455E-008	0.00000E+000	-1.20000E-001	1.01049E-003	5	..........a	-327.66
	951	190.4	-1.09992E-001	1.48753E-008	0.00000E+000	-1.10000E-001	1.02149E-003	5	..........a	-327.66
	952	190.6	-9.99551E-002	1.66452E-008	0.00000E+000	-1.00000E-001	1.02059E-003	5	..........a	-327.66
	953	190.8	-8.99377E-002	1.84492E-008	0.00000E+000	-9.00000E-002	1.03119E-003	5	..........a	-327.66
	954	191	-8.00027E-002	2.02165E-008	0.00000E+000	-8.00000E-002	1.02769E-003	5	..........a	-327.66
	955	191.2	-6.99666E-002	2.19517E-008	0.00000E+000	-7.00000E-002	1.00969E-003	5	..........a	-327.66
	956	191.4	-5.99334E-002	2.37187E-008	0.00000E+000	-6.00000E-002	9.99892E-004	5	..........a	-327.66
	957	191.6	-4.99353E-002	2.54417E-008	0.00000E+000	-5.00000E-002	1.01609E-003	5	..........a	-327.66
	958	191.8	-3.99596E-002	2.71933E-008	0.00000E+000	-4.00000E-002	1.02299E-003	5	..........a	-327.66
	959	192	-3.00063E-002	2.88885E-008	0.00000E+000	-3.00000E-002	1.01629E-003	5	..........a	-327.66
	960	192.2	-1.99672E-002	3.05876E-008	0.00000E+000	-2.00000E-002	9.98592E-004	5	..........a	-327.66
	961	192.4	-9.90141E-003	3.22891E-008	0.00000E+000	-1.00000E-002	1.01049E-003	5	..........a	-327.66
	962	192.6	-3.49584E-005	3.40133E-008	0.00000E+000	7.45058E-009	1.01749E-003	5	..........a	-327.66
	963	192.8	1.00584E-002	3.57049E-008	0.00000E+000	1.00000E-002	9.90792E-004	5	..........a	-327.66
	964	193	2.01060E-002	3.73958E-008	0.00000E+000	2.00000E-002	9.99692E-004	5	..........a	-327.66
	965	193.2	2.99970E-002	3.90943E-008	0.00000E+000	3.00000E-002	1.01339E-003	5	..........a	-327.66
	966	193.4	3.99790E-002	4.07511E-008	0.00000E+000	4.00000E-002	1.01939E-003	5	..........a	-327.66
	967	193.6	4.99886E-002	4.25080E-008	0.00000E+000	5.00000E-002	1.02409E-003	5	..........a	-327.66
	968	193.8	6.00337E-002	4.42507E-008	0.00000E+000	6.00000E-002	1.00529E-003	5	..........a	-327.66
	969	194	6.99745E-002	4.59739E-008	0.00000E+000	7.00000E-002	1.01869E-003	5	..........a	-327.66
	970	194.2	7.99753E-002	4.77203E-008	0.00000E+000	8.00000E-002	1.02829E-003	5	..........a	-327.66
	971	194.4	9.00101E-002	4.94647E-008	0.00000E+000	9.00000E-002	1.01399E-003	5	..........a	-327.66
	972	194.6	1.00035E-001	5.11916E-008	0.00000E+000	1.00000E-001	1.02459E-003	5	..........a	-327.66
	973	194.8	1.10054E-001	5.30111E-008	0.00000E+000	1.10000E-001	1.02599E-003	5	..........a	-327.66
	974	195	1.19959E-001	5.48730E-008	0.00000E+000	1.20000E-001	1.00809E-003	5	..........a	-327.66
	975	195.2	1.29994E-001	5.65890E-008	0.00000E+000	1.30000E-001	1.00459E-003	5	..........a	-327.66
	976	195.4	1.40071E-001	5.82917E-008	0.00000E+000	1.40000E-001	9.98292E-004	5	..........a	-327.66
	977	195.6	1.49997E-001	6.00589E-008	0.00000E+000	1.50000E-001	1.02039E-003	5	..........a	-327.66
	978	195.8	1.59992E-001	6.17410E-008	0.00000E+000	1.60000E-001	1.03729E-003	5	..........a	-327.66
	979	196	1.70014E-001	6.35060E-008	0.00000E+000	1.70000E-001	1.01439E-003	5	..........a	-327.66
	980	196.2	1.79996E-001	6.51545E-008	0.00000E+000	1.80000E-001	1.00889E-003	5	..........a	-327.66
	981	196.4	1.90061E-001	6.68062E-008	0.00000E+000	1.90000E-001	1.00619E-003	5	..........a	-327.66
	982	196.6	1.99971E-001	6.84567E-008	0.00000E+000	2.00000E-001	1.03189E-003	5	..........a	-327.66
	983	196.8	2.09936E-001	7.00387E-008	0.00000E+000	2.10000E-001	1.00299E-003	5	..........a	-327.66
	984	197	2.19825E-001	7.16180E-008	0.00000E+000	2.20000E-001	9.88292E-004	5	..........a	-327.66
	985	197.2	2.29976E-001	7.31978E-008	0.00000E+000	2.30000E-001	1.00989E-003	5	..........a	-327.66
	986	197.4	2.39961E-001	7.47421E-008	0.00000E+000	2.40000E-001	1.01159E-003	5	..........a	-327.66
	987	197.6	2.49976E-001	7.62178E-008	0.00000E+000	2.50000E-001	1.01309E-003	5	..........a	-327.66
	988	197.8	2.59976E-001	7.77451E-008	0.00000E+000	2.60000E-001	1.00839E-003	5	..........a	-327.66
	989	198	2.70000E-001	7.92196E-008	0.00000E+000	2.70000E-001	1.00799E-003	5	..........a	-327.66
	990	198.2	2.79923E-001	8.06965E-008	0.00000E+000	2.80000E-001	9.96592E-004	5	..........a	-327.66
	991	198.4	2.89948E-001	8.23904E-008	0.00000E+000	2.90000E-001	1.01889E-003	5	..........a	-327.66
	992	198.6	2.99975E-001	8.38245E-008	0.00000E+000	3.00000E-001	9.98292E-004	5	..........a	-327.66
	993	198.8	3.09954E-001	8.52946E-008	0.00000E+000	3.10000E-001	1.00049E-003	5	..........a	-327.66
	994	199	3.19969E-001	8.67879E-008	0.00000E+000	3.20000E-001	1.00779E-003	5	..........a	-327.66
	995	199.2	3.29956E-001	8.82726E-008	0.00000E+000	3.30000E-001	1.02449E-003	5	..........a	-327.66
	996	199.4	3.39964E-001	8.97997E-008	0.00000E+000	3.40000E-001	1.01849E-003	5	..........a	-327.66
	997	199.6	3.49969E-001	9.13434E-008	0.00000E+000	3.50000E-001	1.00619E-003	5	..........a	-327.66
	998	199.8	3.59934E-001	9.28807E-008	0.00000E+000	3.60000E-001	1.00489E-003	5	..........a	-327.66
	999	200	3.69948E-001	9.44171E-008	0.00000E+000	3.70000E-001	1.02039E-003	5	..........a	-327.66
	1000	200.2	3.79971E-001	9.59659E-008	0.00000E+000	3.80000E-001	9.86892E-004	5	..........a	-327.66
	1001	200.4	3.90000E-001	9.74676E-008	0.00000E+000	3.90000E-001	1.01759E-003	5	..........a	-327.66
	1002	200.6	3.99943E-001	9.90549E-008	0.00000E+000	4.00000E-001	1.01099E-003	5	..........a	-327.66
	1003	200.8	4.09918E-001	1.00638E-007	0.00000E+000	4.10000E-001	1.02959E-003	5	..........a	-327.66
	1004	201	4.19934E-001	1.02209E-007	0.00000E+000	4.20000E-001	1.01799E-003	5	..........a	-327.66
	1005	201.2	4.29965E-001	1.03818E-007	0.00000E+000	4.30000E-001	1.00279E-003	5	..........a	-327.66
	1006	201.4	4.39889E-001	1.05423E-007	0.00000E+000	4.40000E-001	1.00939E-003	5	..........a	-327.66
	1007	201.6	4.49945E-001	1.07056E-007	0.00000E+000	4.50000E-001	1.01609E-003	5	..........a	-327.66
	1008	201.8	4.59914E-001	1.08683E-007	0.00000E+000	4.60000E-001	1.02419E-003	5	..........a	-327.66
	1009	202	4.69970E-001	1.10307E-007	0.00000E+000	4.70000E-001	1.01929E-003	5	..........a	-327.66
	1010	202.2	4.79881E-001	1.12010E-007	0.00000E+000	4.80000E-001	1.01549E-003	5	..........a	-327.66
	1011	202.4	4.89916E-001	1.13727E-007	0.00000E+000	4.90000E-001	1.00059E-003	5	..........a	-327.66
	1012	202.6	4.99954E-001	1.15224E-007	0.00000E+000	5.00000E-001	9.98192E-004	5	..........a	-327.66
	1013	202.8	5.09971E-001	1.16987E-007	0.00000E+000	5.10000E-001	1.01389E-003	5	..........a	-327.66
	1014	203	5.19911E-001	1.18917E-007	0.00000E+000	5.20000E-001	1.00729E-003	5	..........a	-327.66
	1015	203.2	5.29894E-001	1.20873E-007	0.00000E+000	5.30000E-001	1.02799E-003	5	..........a	-327.66
	1016	203.4	5.39904E-001	1.22769E-007	0.00000E+000	5.40000E-001	1.00349E-003	5	..........a	-327.66
	1017	203.6	5.49973E-001	1.24841E-007	0.00000E+000	5.50000E-001	1.00659E-003	5	..........a	-327.66
	1018	203.8	5.59900E-001	1.26950E-007	0.00000E+000	5.60000E-001	1.01129E-003	5	..........a	-327.66
	1019	204	5.69906E-001	1.29118E-007	0.00000E+000	5.70000E-001	1.01209E-003	5	..........a	-327.66
	1020	204.2	5.79883E-001	1.31392E-007	0.00000E+000	5.80000E-001	1.00869E-003	5	..........a	-327.66
	1021	204.4	5.89974E-001	1.33703E-007	0.00000E+000	5.90000E-001	1.02949E-003	5	..........a	-327.66
	1022	204.6	5.99900E-001	1.36096E-007	0.00000E+000	6.00000E-001	1.01549E-003	5	..........a	-327.66
	1023	204.8	6.09911E-001	1.38519E-007	0.00000E+000	6.10000E-001	1.01089E-003	5	..........a	-327.66
	1024	205	6.19862E-001	1.41042E-007	0.00000E+000	6.20000E-001	1.01519E-003	5	..........a	-327.66
	1025	205.2	6.29982E-001	1.43582E-007	0.00000E+000	6.30000E-001	1.01739E-003	5	..........a	-327.66
	1026	205.4	6.39847E-001	1.46199E-007	0.00000E+000	6.40000E-001	1.00909E-003	5	..........a	-327.66
	1027	205.6	6.49883E-001	1.48886E-007	0.00000E+000	6.50000E-001	1.00439E-003	5	..........a	-327.66
	1028	205.8	6.59860E-001	1.51603E-007	0.00000E+000	6.60000E-001	1.00479E-003	5	..........a	-327.66
	1029	206	6.69939E-001	1.54445E-007	0.00000E+000	6.70000E-001	1.00669E-003	5	..........a	-327.66
	1030	206.2	6.79869E-001	1.57388E-007	0.00000E+000	6.80000E-001	9.85892E-004	5	..........a	-327.66
	1031	206.4	6.89871E-001	1.60443E-007	0.00000E+000	6.90000E-001	1.01019E-003	5	..........a	-327.66
	1032	206.6	6.99839E-001	1.63711E-007	0.00000E+000	7.00000E-001	9.82892E-004	5	..........a	-327.66
	1033	206.8	7.09923E-001	1.67212E-007	0.00000E+000	7.10000E-001	9.96192E-004	5	..........a	-327.66
	1034	207	7.19848E-001	1.70972E-007	0.00000E+000	7.20000E-001	9.99292E-004	5	..........a	-327.66
	1035	207.2	7.29852E-001	1.75037E-007	0.00000E+000	7.30000E-001	1.01969E-003	5	..........a	-327.66
	1036	207.4	7.39853E-001	1.79470E-007	0.00000E+000	7.40000E-001	1.00209E-003	5	..........a	-327.66
	1037	207.6	7.49937E-001	1.84366E-007	0.00000E+000	7.50000E-001	1.01139E-003	5	..........a	-327.66
	1038	207.8	7.59838E-001	1.89896E-007	0.00000E+000	7.60000E-001	1.00509E-003	5	..........a	-327.66
	1039	208	7.69845E-001	1.95688E-007	0.00000E+000	7.70000E-001	1.01349E-003	5	..........a	-327.66
	1040	208.2	7.79831E-001	2.02025E-007	0.00000E+000	7.80000E-001	9.97992E-004	5	..........a	-327.66
	1041	208.4	7.89947E-001	2.09313E-007	0.00000E+000	7.90000E-001	1.00559E-003	5	..........a	-327.66
	1042	208.6	7.99830E-001	2.16603E-007	0.00000E+000	8.00000E-001	9.96292E-004	5	..........a	-327.66
CURVE5	TABLE
	Pt	T	Vf	Im	Vu	Sig	Ach	IERange	Over	Temp
	#	s	V vs. Ref.	A	V	V	V	#	bits	deg C
	1043	208.8	7.89940E-001	1.82152E-007	0.00000E+000	7.90000E-001	1.01019E-003	5	..........a	-327.66
	1044	209	7.79858E-001	1.59716E-007	0.00000E+000	7.80000E-001	1.02549E-003	5	..........a	-327.66
	1045	209.2	7.69851E-001	1.43082E-007	0.00000E+000	7.70000E-001	1.01409E-003	5	..........a	-327.66
	1046	209.4	7.59888E-001	1.29973E-007	0.00000E+000	7.60000E-001	1.01029E-003	5	..........a	-327.66
	1047	209.6	7.49969E-001	1.19140E-007	0.00000E+000	7.50000E-001	1.00219E-003	5	..........a	-327.66
	1048	209.8	7.39901E-001	1.09906E-007	0.00000E+000	7.40000E-001	1.01229E-003	5	..........a	-327.66
	1049	210	7.29900E-001	1.01844E-007	0.00000E+000	7.30000E-001	1.02239E-003	5	..........a	-327.66
	1050	210.2	7.19879E-001	9.47510E-008	0.00000E+000	7.20000E-001	1.03599E-003	5	..........a	-327.66
	1051	210.4	7.09965E-001	8.83304E-008	0.00000E+000	7.10000E-001	1.01069E-003	5	..........a	-327.66
	1052	210.6	6.99904E-001	8.24700E-008	0.00000E+000	7.00000E-001	1.00789E-003	5	..........a	-327.66
	1053	210.8	6.89902E-001	7.70340E-008	0.00000E+000	6.90000E-001	1.00769E-003	5	..........a	-327.66
	1054	211	6.79896E-001	7.20231E-008	0.00000E+000	6.80000E-001	1.00079E-003	5	..........a	-327.66
	1055	211.2	6.69964E-001	6.73601E-008	0.00000E+000	6.70000E-001	9.95492E-004	5	..........a	-327.66
	1056	211.4	6.59923E-001	6.29434E-008	0.00000E+000	6.60000E-001	1.01639E-003	5	..........a	-327.66
	1057	211.6	6.49900E-001	5.87864E-008	0.00000E+000	6.50000E-001	1.01609E-003	5	..........a	-327.66
	1058	211.8	6.39888E-001	5.48552E-008	0.00000E+000	6.40000E-001	1.03139E-003	5	..........a	-327.66
	1059	212	6.30017E-001	5.10694E-008	0.00000E+000	6.30000E-001	9.96592E-004	5	..........a	-327.66
	1060	212.2	6.19923E-001	4.74771E-008	0.00000E+000	6.20000E-001	1.02069E-003	5	..........a	-327.66
	1061	212.4	6.09888E-001	4.40277E-008	0.00000E+000	6.10000E-001	1.00209E-003	5	..........a	-327.66
	1062	212.6	5.99949E-001	4.06939E-008	0.00000E+000	6.00000E-001	1.00829E-003	5	..........a	-327.66
	1063	212.8	5.90003E-001	3.75449E-008	0.00000E+000	5.90000E-001	1.03039E-003	5	..........a	-327.66
	1064	213	5.79989E-001	3.45190E-008	0.00000E+000	5.80000E-001	9.90292E-004	5	..........a	-327.66
	1065	213.2	5.69961E-001	3.15824E-008	0.00000E+000	5.70000E-001	1.01959E-003	5	..........a	-327.66
	1066	213.4	5.59913E-001	2.87230E-008	0.00000E+000	5.60000E-001	1.01959E-003	5	..........a	-327.66
	1067	213.6	5.50033E-001	2.58748E-008	0.00000E+000	5.50000E-001	1.01579E-003	5	..........a	-327.66
	1068	213.8	5.39973E-001	2.31277E-008	0.00000E+000	5.40000E-001	1.00499E-003	5	..........a	-327.66
	1069	214	5.29932E-001	2.04215E-008	0.00000E+000	5.30000E-001	1.00229E-003	5	..........a	-327.66
	1070	214.2	5.19949E-001	1.77169E-008	0.00000E+000	5.20000E-001	1.03069E-003	5	..........a	-327.66
	1071	214.4	5.09969E-001	1.50465E-008	0.00000E+000	5.10000E-001	1.00909E-003	5	..........a	-327.66
	1072	214.6	5.00037E-001	1.25409E-008	0.00000E+000	5.00000E-001	1.02099E-003	5	..........a	-327.66
	1073	214.8	4.89933E-001	1.00519E-008	0.00000E+000	4.90000E-001	9.97892E-004	5	..........a	-327.66
	1074	215	4.79895E-001	7.60967E-009	0.00000E+000	4.80000E-001	1.01339E-003	5	..........a	-327.66
	1075	215.2	4.70013E-001	5.11819E-009	0.00000E+000	4.70000E-001	1.00909E-003	5	..........a	-327.66
	1076	215.4	4.59971E-001	2.66071E-009	0.00000E+000	4.60000E-001	1.02009E-003	5	..........a	-327.66
	1077	215.6	4.49854E-001	1.30481E-010	0.00000E+000	4.50000E-001	1.02979E-003	5	..........a	-327.66
	1078	215.8	4.39970E-001	-2.37151E-009	0.00000E+000	4.40000E-001	1.01809E-003	5	..........a	-327.66
	1079	216	4.30007E-001	-4.83037E-009	0.00000E+000	4.30000E-001	1.02439E-003	5	..........a	-327.66
	1080	216.2	4.20007E-001	-7.27644E-009	0.00000E+000	4.20000E-001	1.00259E-003	5	..........a	-327.66
	1081	216.4	4.09991E-001	-9.68897E-009	0.00000E+000	4.10000E-001	1.02479E-003	5	..........a	-327.66
	1082	216.6	3.99968E-001	-1.21221E-008	0.00000E+000	4.00000E-001	9.96192E-004	5	..........a	-327.66
	1083	216.8	3.90058E-001	-1.44895E-008	0.00000E+000	3.90000E-001	1.01049E-003	5	..........a	-327.66
	1084	217	3.80049E-001	-1.68922E-008	0.00000E+000	3.80000E-001	1.00649E-003	5	..........a	-327.66
	1085	217.2	3.70062E-001	-1.92217E-008	0.00000E+000	3.70000E-001	1.02149E-003	5	..........a	-327.66
	1086	217.4	3.59990E-001	-2.16208E-008	0.00000E+000	3.60000E-001	1.01309E-003	5	..........a	-327.66
	1087	217.6	3.50026E-001	-2.39225E-008	0.00000E+000	3.50000E-001	1.01679E-003	5	..........a	-327.66
	1088	217.8	3.40074E-001	-2.61955E-008	0.00000E+000	3.40000E-001	1.00619E-003	5	..........a	-327.66
	1089	218	3.30008E-001	-2.83355E-008	0.00000E+000	3.30000E-001	1.00609E-003	5	..........a	-327.66
	1090	218.2	3.20049E-001	-3.04889E-008	0.00000E+000	3.20000E-001	1.00839E-003	5	..........a	-327.66
	1091	218.4	3.10017E-001	-3.25706E-008	0.00000E+000	3.10000E-001	1.01129E-003	5	..........a	-327.66
	1092	218.6	3.00071E-001	-3.45756E-008	0.00000E+000	3.00000E-001	9.87392E-004	5	..........a	-327.66
	1093	218.8	2.90040E-001	-3.65422E-008	0.00000E+000	2.90000E-001	1.01999E-003	5	..........a	-327.66
	1094	219	2.79973E-001	-3.83673E-008	0.00000E+000	2.80000E-001	1.01629E-003	5	..........a	-327.66
	1095	219.2	2.70071E-001	-4.01552E-008	0.00000E+000	2.70000E-001	9.96692E-004	5	..........a	-327.66
	1096	219.4	2.60051E-001	-4.18589E-008	0.00000E+000	2.60000E-001	1.00209E-003	5	..........a	-327.66
	1097	219.6	2.49993E-001	-4.33889E-008	0.00000E+000	2.50000E-001	1.01539E-003	5	..........a	-327.66
	1098	219.8	2.40089E-001	-4.48355E-008	0.00000E+000	2.40000E-001	1.01419E-003	5	..........a	-327.66
	1099	220	2.30027E-001	-4.62174E-008	0.00000E+000	2.30000E-001	1.01479E-003	5	..........a	-327.66
	1100	220.2	2.20077E-001	-4.74842E-008	0.00000E+000	2.20000E-001	9.85292E-004	5	..........a	-327.66
	1101	220.4	2.10014E-001	-4.86322E-008	0.00000E+000	2.10000E-001	1.00489E-003	5	..........a	-327.66
	1102	220.6	2.00059E-001	-4.97138E-008	0.00000E+000	2.00000E-001	1.02299E-003	5	..........a	-327.66
	1103	220.8	1.90115E-001	-5.06948E-008	0.00000E+000	1.90000E-001	9.96192E-004	5	..........a	-327.66
	1104	221	1.80087E-001	-5.16674E-008	0.00000E+000	1.80000E-001	1.00549E-003	5	..........a	-327.66
	1105	221.2	1.70051E-001	-5.25232E-008	0.00000E+000	1.70000E-001	1.01479E-003	5	..........a	-327.66
	1106	221.4	1.60037E-001	-5.34074E-008	0.00000E+000	1.60000E-001	1.01399E-003	5	..........a	-327.66
	1107	221.6	1.50048E-001	-5.43080E-008	0.00000E+000	1.50000E-001	1.00349E-003	5	..........a	-327.66
	1108	221.8	1.40133E-001	-5.52132E-008	0.00000E+000	1.40000E-001	1.01369E-003	5	..........a	-327.66
	1109	222	1.30066E-001	-5.61600E-008	0.00000E+000	1.30000E-001	1.01389E-003	5	..........a	-327.66
	1110	222.2	1.20050E-001	-5.71751E-008	0.00000E+000	1.20000E-001	1.01869E-003	5	..........a	-327.66
	1111	222.4	1.10091E-001	-5.81062E-008	0.00000E+000	1.10000E-001	1.01939E-003	5	..........a	-327.66
	1112	222.6	1.00135E-001	-5.91308E-008	0.00000E+000	1.00000E-001	1.01259E-003	5	..........a	-327.66
	1113	222.8	9.00964E-002	-6.01692E-008	0.00000E+000	9.00000E-002	1.01379E-003	5	..........a	-327.66
	1114	223	8.00309E-002	-6.12137E-008	0.00000E+000	8.00000E-002	1.00849E-003	5	..........a	-327.66
	1115	223.2	7.00188E-002	-6.22989E-008	0.00000E+000	7.00000E-002	1.01409E-003	5	..........a	-327.66
	1116	223.4	6.01052E-002	-6.33912E-008	0.00000E+000	6.00000E-002	9.92292E-004	5	..........a	-327.66
	1117	223.6	5.00514E-002	-6.44569E-008	0.00000E+000	5.00000E-002	1.03089E-003	5	..........a	-327.66
	1118	223.8	3.99830E-002	-6.57015E-008	0.00000E+000	4.00000E-002	1.00989E-003	5	..........a	-327.66
	1119	224	3.00743E-002	-6.68417E-008	0.00000E+000	3.00000E-002	1.01139E-003	5	..........a	-327.66
	1120	224.2	2.01366E-002	-6.79852E-008	0.00000E+000	2.00000E-002	1.01979E-003	5	..........a	-327.66