File: example_project/raw_outputs/20240321_ZB_GM0016_HL03_E07_CV50k.DTA
EXPLAIN
TAG	CV
TITLE	LABEL	Cyclic Voltammetry	Test &Identifier
DATE	LABEL	3/21/2024	Date
TIME	LABEL	18:06:08	Time
NOTES	NOTES	1	&Notes...

PSTAT	PSTAT	REF600P-43058	Potentiostat
VINIT	POTEN	0.00000E+000	T	Initial &E (V)
VLIMIT1	POTEN	-6.00000E-001	F	Scan Limit &1 (V)
VLIMIT2	POTEN	8.00000E-001	F	Scan Limit &2 (V)
VFINAL	POTEN	0.00000E+000	T	Final &E (V)
SCANRATE	QUANT	4.99999E+004	&Scan Rate (mV/s)
STEPSIZE	QUANT	1.00000E+001	St&ep Size (mV)
CYCLES	IQUANT	10	C&ycles (#)
IMODE	SELECTOR	1	I/E Range &Mode
IRANGE	QUANT	1.00000E-005	&Max Current (mA)
AREA	QUANT	1.00000E+000	Electrode &Area (cm^2)
ELECTRODETYPE	SELECTOR	0	Electrode Type
STRIPPING	TOGGLE	F	Used for Stripping
POLARITY	TOGGLE	F	Signal Polarity
CONDIT	TWOPARAM	F	1.50000E+001	0.00000E+000	Conditionin&g	Time(s)	E(V)
DELAY	TWOPARAM	T	1.00000E+001	0.00000E+000	Init. De&lay	Time(s)	Stab.(mV/s)
EQDELAY	QUANT	1.00000E+001	Equil. &Time (s)
IRCOMP	SELECTOR	0	IRCom&p
PFCOR	QUANT	5.00000E+001	PF Corr. (ohm)
SAMPLINGMODE	SELECTOR	1	Sampling &Mode
OCVCURVE	TABLE	39
	Pt	T	Vf	Vm	Ach	Over	Temp
	#	s	V vs. Ref.	V	V	bits	deg C
	0	0.258333	4.25787E-001	4.25787E-001	2.31222E-004	..........a	-327.66
	1	0.516667	4.25790E-001	4.25913E-001	2.33756E-004	..........a	-327.66
	2	0.775	4.25806E-001	4.26120E-001	2.44222E-004	..........a	-327.66
	3	1.03333	4.25858E-001	4.26318E-001	2.39022E-004	..........a	-327.66
	4	1.29167	4.25959E-001	4.26375E-001	2.56222E-004	..........a	-327.66
	5	1.55	4.26094E-001	4.26376E-001	2.50289E-004	..........a	-327.66
	6	1.80833	4.26224E-001	4.26400E-001	2.39956E-004	..........a	-327.66
	7	2.06667	4.26319E-001	4.26466E-001	2.51622E-004	..........a	-327.66
	8	2.325	4.26380E-001	4.26597E-001	2.28022E-004	..........a	-327.66
	9	2.58333	4.26433E-001	4.26712E-001	2.26689E-004	..........a	-327.66
	10	2.84167	4.26501E-001	4.26803E-001	2.37356E-004	..........a	-327.66
	11	3.1	4.26590E-001	4.26932E-001	2.27356E-004	..........a	-327.66
	12	3.35833	4.26694E-001	4.27073E-001	2.37422E-004	..........a	-327.66
	13	3.61667	4.26808E-001	4.27170E-001	2.54489E-004	..........a	-327.66
	14	3.875	4.26927E-001	4.27284E-001	2.42556E-004	..........a	-327.66
	15	4.13333	4.27046E-001	4.27381E-001	2.36156E-004	..........a	-327.66
	16	4.39167	4.27160E-001	4.27483E-001	2.34156E-004	..........a	-327.66
	17	4.65	4.27269E-001	4.27597E-001	2.31556E-004	..........a	-327.66
	18	4.90833	4.27377E-001	4.27794E-001	2.33289E-004	..........a	-327.66
	19	5.16667	4.27492E-001	4.27954E-001	2.45289E-004	..........a	-327.66
	20	5.425	4.27623E-001	4.28012E-001	2.44356E-004	..........a	-327.66
	21	5.68333	4.27761E-001	4.28037E-001	2.43289E-004	..........a	-327.66
	22	5.94167	4.27883E-001	4.28086E-001	2.49489E-004	..........a	-327.66
	23	6.2	4.27976E-001	4.28199E-001	2.40356E-004	..........a	-327.66
	24	6.45833	4.28047E-001	4.28286E-001	2.27356E-004	..........a	-327.66
	25	6.71667	4.28115E-001	4.28361E-001	2.45489E-004	..........a	-327.66
	26	6.975	4.28191E-001	4.28478E-001	2.48756E-004	..........a	-327.66
	27	7.23333	4.28277E-001	4.28602E-001	2.38422E-004	..........a	-327.66
	28	7.49167	4.28372E-001	4.28717E-001	2.39756E-004	..........a	-327.66
	29	7.75	4.28477E-001	4.28807E-001	2.42022E-004	..........a	-327.66
	30	8.00833	4.28586E-001	4.28899E-001	2.46556E-004	..........a	-327.66
	31	8.26667	4.28694E-001	4.29002E-001	2.34089E-004	..........a	-327.66
	32	8.525	4.28797E-001	4.29091E-001	2.28556E-004	..........a	-327.66
	33	8.78333	4.28897E-001	4.29279E-001	2.36022E-004	..........a	-327.66
	34	9.04167	4.29004E-001	4.29496E-001	2.34556E-004	..........a	-327.66
	35	9.3	4.29131E-001	4.29585E-001	2.38889E-004	..........a	-327.66
	36	9.5583	4.29277E-001	4.29614E-001	2.43889E-004	..........a	-327.66
	37	9.8167	4.29417E-001	4.29652E-001	2.41556E-004	..........a	-327.66
	38	10.075	4.29528E-001	4.29731E-001	2.32956E-004	..........a	-327.66
EOC	QUANT	0.4295278	Open Circuit (V)
PSTATMODEL	IQUANT	7	Pstat Model
PSTATSECTION	LABEL	REF600P-43058	Pstat Section
PSTATSERIALNO	LABEL	43058	Pstat Serial Number
CTRLMODE	IQUANT	1	Control Mode
ELECTROMETER	IQUANT	0	RE=0 or CS=1
IESTAB	IQUANT	2	I/E Stability
CASPEED	IQUANT	4	Control Amp Speed
CONVENTION	IQUANT	1	Current Convention
ICHRANGE	IQUANT	2	Ich Range
ICHRANGEMODE	TOGGLE	F	Ich Auto Range
ICHOFFSETENABLE	TOGGLE	F	Ich Offset Enable
ICHOFFSET	QUANT	0	Ich Offset (V)
ICHFILTER	IQUANT	1	Ich Filter
VCHRANGE	IQUANT	2	Vch Range
VCHRANGEMODE	TOGGLE	F	Vch Auto Range
VCHOFFSETENABLE	TOGGLE	F	Vch Offset Enable
VCHOFFSET	QUANT	0	Vch Offset (V)
VCHFILTER	IQUANT	1	Vch Filter
ACHRANGE	IQUANT	2	Ach Range
ACHOFFSETENABLE	TOGGLE	F	Ach Offset Enable
ACHOFFSET	QUANT	0	Ach Offset (V)
ACHFILTER	IQUANT	1	Ach Filter
IERANGELOWERLIMIT	IQUANT	1	I/E Range Lower Limit
IERANGEMODE	TOGGLE	F	I/E AutoRange
IERANGE	IQUANT	4	I/E Range
POSFEEDENABLE	TOGGLE	F	Positive Feedback IR Comp
POSFEEDRESISTANCE	QUANT	0	Positive Feedback Resistance (ohm)
ACHSELECT	IQUANT	4	Ach Select
SENSECABLEID	IQUANT	7	Sense Cable ID
PWRCABLEID	IQUANT	7	Power Cable ID
DCCALDATE	LABEL	12/18/2023	DC Calibration Date
ACCALDATE	LABEL	12/18/2023	AC Calibration Date
THERMOSELECT	IQUANT	1	Thermo Select
FRAMEWORKVERSION	LABEL	7.8.4	Framework Version
INSTRUMENTVERSION	LABEL	4.42	Instrument Version
CURVE1	TABLE
	Pt	T	Vf	Im	Vu	Sig	Ach	IERange	Over	Temp
	#	s	V vs. Ref.	A	V	V	V	#	bits	deg C
	0	0.0002	4.29570E-001	2.37885E-011	0.00000E+000	4.29550E-001	8.00223E-005	4	..........a	-327.66
	1	0.0004	4.19470E-001	-2.12132E-011	0.00000E+000	4.19550E-001	8.00223E-005	4	..........a	-327.66
	2	0.0006	4.09470E-001	-6.42148E-011	0.00000E+000	4.09550E-001	8.00223E-005	4	..........a	-327.66
	3	0.0008	3.99470E-001	-1.10217E-010	0.00000E+000	3.99550E-001	8.00223E-005	4	..........a	-327.66
	4	0.001	3.89570E-001	-1.62219E-010	0.00000E+000	3.89550E-001	-3.19978E-004	4	..........a	-327.66
	5	0.0012	3.79570E-001	-2.12221E-010	0.00000E+000	3.79550E-001	8.00223E-005	4	..........a	-327.66
	6	0.0014	3.69620E-001	-2.62222E-010	0.00000E+000	3.69550E-001	8.00223E-005	4	..........a	-327.66
	7	0.0016	3.59570E-001	-3.20225E-010	0.00000E+000	3.59550E-001	8.00223E-005	4	..........a	-327.66
	8	0.0018	3.49770E-001	-3.75227E-010	0.00000E+000	3.49550E-001	-3.19978E-004	4	..........a	-327.66
	9	0.002	3.39470E-001	-4.32229E-010	0.00000E+000	3.39550E-001	8.00223E-005	4	..........a	-327.66
	10	0.0022	3.29370E-001	-4.93231E-010	0.00000E+000	3.29550E-001	-3.19978E-004	4	..........a	-327.66
	11	0.0024	3.19620E-001	-5.50233E-010	0.00000E+000	3.19550E-001	8.00223E-005	4	..........a	-327.66
	12	0.0026	3.09670E-001	-6.16236E-010	0.00000E+000	3.09550E-001	8.00223E-005	4	..........a	-327.66
	13	0.0028	2.99670E-001	-6.78238E-010	0.00000E+000	2.99550E-001	8.00223E-005	4	..........a	-327.66
	14	0.003	2.89570E-001	-7.47241E-010	0.00000E+000	2.89550E-001	-3.19978E-004	4	..........a	-327.66
	15	0.0032	2.79670E-001	-8.14244E-010	0.00000E+000	2.79550E-001	8.00223E-005	4	..........a	-327.66
	16	0.0034	2.69870E-001	-8.86246E-010	0.00000E+000	2.69550E-001	8.00223E-005	4	..........a	-327.66
	17	0.0036	2.59270E-001	-9.59249E-010	0.00000E+000	2.59550E-001	8.00223E-005	4	..........a	-327.66
	18	0.0038	2.49570E-001	-1.03125E-009	0.00000E+000	2.49550E-001	8.00223E-005	4	..........a	-327.66
	19	0.004	2.39470E-001	-1.11126E-009	0.00000E+000	2.39550E-001	-3.19978E-004	4	..........a	-327.66
	20	0.0042	2.29770E-001	-1.18826E-009	0.00000E+000	2.29550E-001	8.00223E-005	4	..........a	-327.66
	21	0.0044	2.19570E-001	-1.26726E-009	0.00000E+000	2.19550E-001	8.00223E-005	4	..........a	-327.66
	22	0.0046	2.09570E-001	-1.35326E-009	0.00000E+000	2.09550E-001	8.00223E-005	4	..........a	-327.66
	23	0.0048	1.99570E-001	-1.44427E-009	0.00000E+000	1.99550E-001	8.00223E-005	4	..........a	-327.66
	24	0.005	1.89570E-001	-1.53827E-009	0.00000E+000	1.89550E-001	8.00223E-005	4	..........a	-327.66
	25	0.0052	1.79420E-001	-1.62727E-009	0.00000E+000	1.79550E-001	8.00223E-005	4	..........a	-327.66
	26	0.0054	1.69370E-001	-1.72928E-009	0.00000E+000	1.69550E-001	8.00223E-005	4	..........a	-327.66
	27	0.0056	1.59570E-001	-1.82128E-009	0.00000E+000	1.59550E-001	-1.19978E-004	4	..........a	-327.66
	28	0.0058	1.49670E-001	-1.92629E-009	0.00000E+000	1.49550E-001	8.00223E-005	4	..........a	-327.66
	29	0.006	1.39670E-001	-2.03429E-009	0.00000E+000	1.39550E-001	-2.19978E-004	4	..........a	-327.66
	30	0.0062	1.29670E-001	-2.14629E-009	0.00000E+000	1.29550E-001	8.00223E-005	4	..........a	-327.66
	31	0.0064	1.19570E-001	-2.26230E-009	0.00000E+000	1.19550E-001	8.00223E-005	4	..........a	-327.66
	32	0.0066	1.09670E-001	-2.38230E-009	0.00000E+000	1.09550E-001	8.00223E-005	4	..........a	-327.66
	33	0.0068	9.95695E-002	-2.50231E-009	0.00000E+000	9.95500E-002	8.00223E-005	4	..........a	-327.66
	34	0.007	8.96695E-002	-2.63031E-009	0.00000E+000	8.95500E-002	8.00223E-005	4	..........a	-327.66
	35	0.0072	7.95695E-002	-2.76032E-009	0.00000E+000	7.95500E-002	8.00223E-005	4	..........a	-327.66
	36	0.0074	6.95695E-002	-2.89832E-009	0.00000E+000	6.95500E-002	8.00223E-005	4	..........a	-327.66
	37	0.0076	5.95695E-002	-3.03733E-009	0.00000E+000	5.95500E-002	-4.19978E-004	4	..........a	-327.66
	38	0.0078	4.95695E-002	-3.18433E-009	0.00000E+000	4.95500E-002	8.00223E-005	4	..........a	-327.66
	39	0.008	3.96195E-002	-3.33134E-009	0.00000E+000	3.95500E-002	8.00223E-005	4	..........a	-327.66
	40	0.0082	2.96695E-002	-3.49235E-009	0.00000E+000	2.95500E-002	8.00223E-005	4	..........a	-327.66
	41	0.0084	1.94695E-002	-3.64935E-009	0.00000E+000	1.95500E-002	8.00223E-005	4	..........a	-327.66
	42	0.0086	9.66952E-003	-3.81336E-009	0.00000E+000	9.55001E-003	8.00223E-005	4	..........a	-327.66
	43	0.0088	-5.30481E-004	-3.97837E-009	0.00000E+000	-4.49993E-004	8.00223E-005	4	..........a	-327.66
	44	0.009	-1.03305E-002	-4.16037E-009	0.00000E+000	-1.04500E-002	8.00223E-005	4	..........a	-327.66
	45	0.0092	-2.04305E-002	-4.33238E-009	0.00000E+000	-2.04500E-002	8.00223E-005	4	..........a	-327.66
	46	0.0094	-3.04305E-002	-4.52239E-009	0.00000E+000	-3.04500E-002	8.00223E-005	4	..........a	-327.66
	47	0.0096	-4.06305E-002	-4.70039E-009	0.00000E+000	-4.04500E-002	8.00223E-005	4	..........a	-327.66
	48	0.0098	-5.05305E-002	-4.89140E-009	0.00000E+000	-5.04500E-002	8.00223E-005	4	..........a	-327.66
	49	0.01	-6.03305E-002	-5.07841E-009	0.00000E+000	-6.04500E-002	8.00223E-005	4	..........a	-327.66
	50	0.0102	-7.02305E-002	-5.27741E-009	0.00000E+000	-7.04500E-002	8.00223E-005	4	..........a	-327.66
	51	0.0104	-8.03305E-002	-5.46942E-009	0.00000E+000	-8.04500E-002	8.00223E-005	4	..........a	-327.66
	52	0.0106	-9.02305E-002	-5.67943E-009	0.00000E+000	-9.04500E-002	8.00223E-005	4	..........a	-327.66
	53	0.0108	-1.00330E-001	-5.88044E-009	0.00000E+000	-1.00450E-001	8.00223E-005	4	..........a	-327.66
	54	0.011	-1.10330E-001	-6.09045E-009	0.00000E+000	-1.10450E-001	-3.19978E-004	4	..........a	-327.66
	55	0.0112	-1.20430E-001	-6.29745E-009	0.00000E+000	-1.20450E-001	8.00223E-005	4	..........a	-327.66
	56	0.0114	-1.30230E-001	-6.50546E-009	0.00000E+000	-1.30450E-001	8.00223E-005	4	..........a	-327.66
	57	0.0116	-1.40330E-001	-6.71647E-009	0.00000E+000	-1.40450E-001	8.00223E-005	4	..........a	-327.66
	58	0.0118	-1.50430E-001	-6.93248E-009	0.00000E+000	-1.50450E-001	-2.19978E-004	4	..........a	-327.66
	59	0.012	-1.60430E-001	-7.14449E-009	0.00000E+000	-1.60450E-001	8.00223E-005	4	..........a	-327.66
	60	0.0122	-1.70230E-001	-7.35850E-009	0.00000E+000	-1.70450E-001	8.00223E-005	4	..........a	-327.66
	61	0.0124	-1.80330E-001	-7.57750E-009	0.00000E+000	-1.80450E-001	8.00223E-005	4	..........a	-327.66
	62	0.0126	-1.90230E-001	-7.79051E-009	0.00000E+000	-1.90450E-001	8.00223E-005	4	..........a	-327.66
	63	0.0128	-2.00330E-001	-8.00552E-009	0.00000E+000	-2.00450E-001	8.00223E-005	4	..........a	-327.66
	64	0.013	-2.10480E-001	-8.22353E-009	0.00000E+000	-2.10450E-001	8.00223E-005	4	..........a	-327.66
	65	0.0132	-2.20330E-001	-8.44354E-009	0.00000E+000	-2.20450E-001	8.00223E-005	4	..........a	-327.66
	66	0.0134	-2.30230E-001	-8.65654E-009	0.00000E+000	-2.30450E-001	8.00223E-005	4	..........a	-327.66
	67	0.0136	-2.40430E-001	-8.87255E-009	0.00000E+000	-2.40450E-001	8.00223E-005	4	..........a	-327.66
	68	0.0138	-2.50330E-001	-9.08856E-009	0.00000E+000	-2.50450E-001	-3.19978E-004	4	..........a	-327.66
	69	0.014	-2.60330E-001	-9.30557E-009	0.00000E+000	-2.60450E-001	8.00223E-005	4	..........a	-327.66
	70	0.0142	-2.70230E-001	-9.51858E-009	0.00000E+000	-2.70450E-001	8.00223E-005	4	..........a	-327.66
	71	0.0144	-2.80330E-001	-9.73859E-009	0.00000E+000	-2.80450E-001	8.00223E-005	4	..........a	-327.66
	72	0.0146	-2.90130E-001	-9.95060E-009	0.00000E+000	-2.90450E-001	8.00223E-005	4	..........a	-327.66
	73	0.0148	-3.00430E-001	-1.01706E-008	0.00000E+000	-3.00450E-001	8.00223E-005	4	..........a	-327.66
	74	0.015	-3.10430E-001	-1.03826E-008	0.00000E+000	-3.10450E-001	8.00223E-005	4	..........a	-327.66
	75	0.0152	-3.20380E-001	-1.05876E-008	0.00000E+000	-3.20450E-001	8.00223E-005	4	..........a	-327.66
	76	0.0154	-3.30130E-001	-1.08026E-008	0.00000E+000	-3.30450E-001	8.00223E-005	4	..........a	-327.66
	77	0.0156	-3.40630E-001	-1.10116E-008	0.00000E+000	-3.40450E-001	8.00223E-005	4	..........a	-327.66
	78	0.0158	-3.50330E-001	-1.12266E-008	0.00000E+000	-3.50450E-001	8.00223E-005	4	..........a	-327.66
	79	0.016	-3.60130E-001	-1.14357E-008	0.00000E+000	-3.60450E-001	8.00223E-005	4	..........a	-327.66
	80	0.0162	-3.70130E-001	-1.16447E-008	0.00000E+000	-3.70450E-001	8.00223E-005	4	..........a	-327.66
	81	0.0164	-3.80330E-001	-1.18517E-008	0.00000E+000	-3.80450E-001	8.00223E-005	4	..........a	-327.66
	82	0.0166	-3.90380E-001	-1.20637E-008	0.00000E+000	-3.90450E-001	8.00223E-005	4	..........a	-327.66
	83	0.0168	-4.00230E-001	-1.22677E-008	0.00000E+000	-4.00450E-001	8.00223E-005	4	..........a	-327.66
	84	0.017	-4.10130E-001	-1.24777E-008	0.00000E+000	-4.10450E-001	8.00223E-005	4	..........a	-327.66
	85	0.0172	-4.20330E-001	-1.26817E-008	0.00000E+000	-4.20450E-001	8.00223E-005	4	..........a	-327.66
	86	0.0174	-4.30230E-001	-1.28927E-008	0.00000E+000	-4.30450E-001	8.00223E-005	4	..........a	-327.66
	87	0.0176	-4.40330E-001	-1.31027E-008	0.00000E+000	-4.40450E-001	8.00223E-005	4	..........a	-327.66
	88	0.0178	-4.50230E-001	-1.33027E-008	0.00000E+000	-4.50450E-001	8.00223E-005	4	..........a	-327.66
	89	0.018	-4.60430E-001	-1.35107E-008	0.00000E+000	-4.60450E-001	8.00223E-005	4	..........a	-327.66
	90	0.0182	-4.70130E-001	-1.37187E-008	0.00000E+000	-4.70450E-001	-4.19978E-004	4	..........a	-327.66
	91	0.0184	-4.80230E-001	-1.39207E-008	0.00000E+000	-4.80450E-001	8.00223E-005	4	..........a	-327.66
	92	0.0186	-4.90230E-001	-1.41268E-008	0.00000E+000	-4.90450E-001	8.00223E-005	4	..........a	-327.66
	93	0.0188	-5.00331E-001	-1.43348E-008	0.00000E+000	-5.00450E-001	8.00223E-005	4	..........a	-327.66
	94	0.019	-5.10330E-001	-1.45478E-008	0.00000E+000	-5.10450E-001	8.00223E-005	4	..........a	-327.66
	95	0.0192	-5.20330E-001	-1.47568E-008	0.00000E+000	-5.20450E-001	8.00223E-005	4	..........a	-327.66
	96	0.0194	-5.30330E-001	-1.49638E-008	0.00000E+000	-5.30450E-001	8.00223E-005	4	..........a	-327.66
	97	0.0196	-5.40231E-001	-1.51758E-008	0.00000E+000	-5.40450E-001	8.00223E-005	4	..........a	-327.66
	98	0.0198	-5.50130E-001	-1.53888E-008	0.00000E+000	-5.50450E-001	8.00223E-005	4	..........a	-327.66
	99	0.02	-5.60230E-001	-1.56018E-008	0.00000E+000	-5.60450E-001	-3.19978E-004	4	..........a	-327.66
	100	0.0202	-5.70130E-001	-1.58168E-008	0.00000E+000	-5.70450E-001	8.00223E-005	4	..........a	-327.66
	101	0.0204	-5.80230E-001	-1.60308E-008	0.00000E+000	-5.80450E-001	8.00223E-005	4	..........a	-327.66
	102	0.0206	-5.90280E-001	-1.62498E-008	0.00000E+000	-5.90450E-001	-2.19978E-004	4	..........a	-327.66
	103	0.0208	-6.00330E-001	-1.64708E-008	0.00000E+000	-6.00450E-001	8.00223E-005	4	..........a	-327.66
	104	0.021	-5.90131E-001	-1.65438E-008	0.00000E+000	-5.90450E-001	8.00223E-005	4	..........a	-327.66
	105	0.0212	-5.80330E-001	-1.65868E-008	0.00000E+000	-5.80450E-001	8.00223E-005	4	..........a	-327.66
	106	0.0214	-5.70230E-001	-1.66128E-008	0.00000E+000	-5.70450E-001	-2.19978E-004	4	..........a	-327.66
	107	0.0216	-5.60430E-001	-1.66189E-008	0.00000E+000	-5.60450E-001	8.00223E-005	4	..........a	-327.66
	108	0.0218	-5.50231E-001	-1.66049E-008	0.00000E+000	-5.50450E-001	8.00223E-005	4	..........a	-327.66
	109	0.022	-5.40330E-001	-1.65868E-008	0.00000E+000	-5.40450E-001	8.00223E-005	4	..........a	-327.66
	110	0.0222	-5.30131E-001	-1.65578E-008	0.00000E+000	-5.30450E-001	8.00223E-005	4	..........a	-327.66
	111	0.0224	-5.20431E-001	-1.65208E-008	0.00000E+000	-5.20450E-001	8.00223E-005	4	..........a	-327.66
	112	0.0226	-5.10230E-001	-1.64808E-008	0.00000E+000	-5.10450E-001	8.00223E-005	4	..........a	-327.66
	113	0.0228	-5.00230E-001	-1.64278E-008	0.00000E+000	-5.00450E-001	8.00223E-005	4	..........a	-327.66
	114	0.023	-4.90130E-001	-1.63698E-008	0.00000E+000	-4.90450E-001	8.00223E-005	4	..........a	-327.66
	115	0.0232	-4.80330E-001	-1.63118E-008	0.00000E+000	-4.80450E-001	8.00223E-005	4	..........a	-327.66
	116	0.0234	-4.70130E-001	-1.62508E-008	0.00000E+000	-4.70450E-001	8.00223E-005	4	..........a	-327.66
	117	0.0236	-4.60330E-001	-1.61828E-008	0.00000E+000	-4.60450E-001	8.00223E-005	4	..........a	-327.66
	118	0.0238	-4.50330E-001	-1.61118E-008	0.00000E+000	-4.50450E-001	8.00223E-005	4	..........a	-327.66
	119	0.024	-4.40230E-001	-1.60398E-008	0.00000E+000	-4.40450E-001	8.00223E-005	4	..........a	-327.66
	120	0.0242	-4.30330E-001	-1.59648E-008	0.00000E+000	-4.30450E-001	8.00223E-005	4	..........a	-327.66
	121	0.0244	-4.20530E-001	-1.58828E-008	0.00000E+000	-4.20450E-001	8.00223E-005	4	..........a	-327.66
	122	0.0246	-4.10230E-001	-1.57998E-008	0.00000E+000	-4.10450E-001	8.00223E-005	4	..........a	-327.66
	123	0.0248	-4.00330E-001	-1.57128E-008	0.00000E+000	-4.00450E-001	-3.19978E-004	4	..........a	-327.66
	124	0.025	-3.90380E-001	-1.56338E-008	0.00000E+000	-3.90450E-001	-2.19978E-004	4	..........a	-327.66
	125	0.0252	-3.80330E-001	-1.55498E-008	0.00000E+000	-3.80450E-001	8.00223E-005	4	..........a	-327.66
	126	0.0254	-3.70130E-001	-1.54588E-008	0.00000E+000	-3.70450E-001	8.00223E-005	4	..........a	-327.66
	127	0.0256	-3.60230E-001	-1.53678E-008	0.00000E+000	-3.60450E-001	8.00223E-005	4	..........a	-327.66
	128	0.0258	-3.50330E-001	-1.52818E-008	0.00000E+000	-3.50450E-001	-2.19978E-004	4	..........a	-327.66
	129	0.026	-3.40430E-001	-1.51848E-008	0.00000E+000	-3.40450E-001	-3.19978E-004	4	..........a	-327.66
	130	0.0262	-3.30430E-001	-1.50878E-008	0.00000E+000	-3.30450E-001	8.00223E-005	4	..........a	-327.66
	131	0.0264	-3.20230E-001	-1.49938E-008	0.00000E+000	-3.20450E-001	8.00223E-005	4	..........a	-327.66
	132	0.0266	-3.10230E-001	-1.48958E-008	0.00000E+000	-3.10450E-001	8.00223E-005	4	..........a	-327.66
	133	0.0268	-3.00330E-001	-1.47988E-008	0.00000E+000	-3.00450E-001	8.00223E-005	4	..........a	-327.66
	134	0.027	-2.90130E-001	-1.46988E-008	0.00000E+000	-2.90450E-001	8.00223E-005	4	..........a	-327.66
	135	0.0272	-2.80330E-001	-1.45978E-008	0.00000E+000	-2.80450E-001	8.00223E-005	4	..........a	-327.66
	136	0.0274	-2.70330E-001	-1.44968E-008	0.00000E+000	-2.70450E-001	8.00223E-005	4	..........a	-327.66
	137	0.0276	-2.60330E-001	-1.43978E-008	0.00000E+000	-2.60450E-001	8.00223E-005	4	..........a	-327.66
	138	0.0278	-2.50330E-001	-1.42908E-008	0.00000E+000	-2.50450E-001	8.00223E-005	4	..........a	-327.66
	139	0.028	-2.40430E-001	-1.41848E-008	0.00000E+000	-2.40450E-001	8.00223E-005	4	..........a	-327.66
	140	0.0282	-2.30330E-001	-1.40778E-008	0.00000E+000	-2.30450E-001	8.00223E-005	4	..........a	-327.66
	141	0.0284	-2.20330E-001	-1.39737E-008	0.00000E+000	-2.20450E-001	8.00223E-005	4	..........a	-327.66
	142	0.0286	-2.10330E-001	-1.38647E-008	0.00000E+000	-2.10450E-001	8.00223E-005	4	..........a	-327.66
	143	0.0288	-2.00330E-001	-1.37597E-008	0.00000E+000	-2.00450E-001	8.00223E-005	4	..........a	-327.66
	144	0.029	-1.90330E-001	-1.36507E-008	0.00000E+000	-1.90450E-001	8.00223E-005	4	..........a	-327.66
	145	0.0292	-1.80330E-001	-1.35437E-008	0.00000E+000	-1.80450E-001	8.00223E-005	4	..........a	-327.66
	146	0.0294	-1.70330E-001	-1.34297E-008	0.00000E+000	-1.70450E-001	8.00223E-005	4	..........a	-327.66
	147	0.0296	-1.60330E-001	-1.33187E-008	0.00000E+000	-1.60450E-001	8.00223E-005	4	..........a	-327.66
	148	0.0298	-1.50330E-001	-1.32057E-008	0.00000E+000	-1.50450E-001	8.00223E-005	4	..........a	-327.66
	149	0.03	-1.40330E-001	-1.30927E-008	0.00000E+000	-1.40450E-001	8.00223E-005	4	..........a	-327.66
	150	0.0302	-1.30130E-001	-1.29817E-008	0.00000E+000	-1.30450E-001	8.00223E-005	4	..........a	-327.66
	151	0.0304	-1.20330E-001	-1.28687E-008	0.00000E+000	-1.20450E-001	8.00223E-005	4	..........a	-327.66
	152	0.0306	-1.10130E-001	-1.27487E-008	0.00000E+000	-1.10450E-001	8.00223E-005	4	..........a	-327.66
	153	0.0308	-1.00230E-001	-1.26367E-008	0.00000E+000	-1.00450E-001	-3.19978E-004	4	..........a	-327.66
	154	0.031	-9.03305E-002	-1.25177E-008	0.00000E+000	-9.04500E-002	8.00223E-005	4	..........a	-327.66
	155	0.0312	-8.02305E-002	-1.24017E-008	0.00000E+000	-8.04500E-002	8.00223E-005	4	..........a	-327.66
	156	0.0314	-7.04305E-002	-1.22777E-008	0.00000E+000	-7.04500E-002	-2.19978E-004	4	..........a	-327.66
	157	0.0316	-6.03305E-002	-1.21607E-008	0.00000E+000	-6.04500E-002	8.00223E-005	4	..........a	-327.66
	158	0.0318	-5.02305E-002	-1.20467E-008	0.00000E+000	-5.04500E-002	8.00223E-005	4	..........a	-327.66
	159	0.032	-4.04305E-002	-1.19237E-008	0.00000E+000	-4.04500E-002	8.00223E-005	4	..........a	-327.66
	160	0.0322	-3.03305E-002	-1.18027E-008	0.00000E+000	-3.04500E-002	-2.19978E-004	4	..........a	-327.66
	161	0.0324	-2.03305E-002	-1.16797E-008	0.00000E+000	-2.04500E-002	8.00223E-005	4	..........a	-327.66
	162	0.0326	-1.02305E-002	-1.15597E-008	0.00000E+000	-1.04500E-002	8.00223E-005	4	..........a	-327.66
	163	0.0328	-3.30481E-004	-1.14377E-008	0.00000E+000	-4.49993E-004	-4.19978E-004	4	..........a	-327.66
	164	0.033	9.76952E-003	-1.13126E-008	0.00000E+000	9.55001E-003	-3.19978E-004	4	..........a	-327.66
	165	0.0332	1.95695E-002	-1.11906E-008	0.00000E+000	1.95500E-002	8.00223E-005	4	..........a	-327.66
	166	0.0334	2.96695E-002	-1.10666E-008	0.00000E+000	2.95500E-002	8.00223E-005	4	..........a	-327.66
	167	0.0336	3.96195E-002	-1.09386E-008	0.00000E+000	3.95500E-002	8.00223E-005	4	..........a	-327.66
	168	0.0338	4.96695E-002	-1.08106E-008	0.00000E+000	4.95500E-002	8.00223E-005	4	..........a	-327.66
	169	0.034	5.94695E-002	-1.06786E-008	0.00000E+000	5.95500E-002	8.00223E-005	4	..........a	-327.66
	170	0.0342	6.98695E-002	-1.05546E-008	0.00000E+000	6.95500E-002	8.00223E-005	4	..........a	-327.66
	171	0.0344	7.96695E-002	-1.04246E-008	0.00000E+000	7.95500E-002	8.00223E-005	4	..........a	-327.66
	172	0.0346	8.96695E-002	-1.02966E-008	0.00000E+000	8.95500E-002	8.00223E-005	4	..........a	-327.66
	173	0.0348	9.95695E-002	-1.01616E-008	0.00000E+000	9.95500E-002	8.00223E-005	4	..........a	-327.66
	174	0.035	1.09670E-001	-1.00346E-008	0.00000E+000	1.09550E-001	8.00223E-005	4	..........a	-327.66
	175	0.0352	1.19670E-001	-9.89859E-009	0.00000E+000	1.19550E-001	8.00223E-005	4	..........a	-327.66
	176	0.0354	1.29670E-001	-9.76059E-009	0.00000E+000	1.29550E-001	8.00223E-005	4	..........a	-327.66
	177	0.0356	1.39570E-001	-9.62858E-009	0.00000E+000	1.39550E-001	8.00223E-005	4	..........a	-327.66
	178	0.0358	1.49870E-001	-9.49458E-009	0.00000E+000	1.49550E-001	8.00223E-005	4	..........a	-327.66
	179	0.036	1.59670E-001	-9.35657E-009	0.00000E+000	1.59550E-001	8.00223E-005	4	..........a	-327.66
	180	0.0362	1.69670E-001	-9.21857E-009	0.00000E+000	1.69550E-001	8.00223E-005	4	..........a	-327.66
	181	0.0364	1.79570E-001	-9.07656E-009	0.00000E+000	1.79550E-001	8.00223E-005	4	..........a	-327.66
	182	0.0366	1.89770E-001	-8.93656E-009	0.00000E+000	1.89550E-001	8.00223E-005	4	..........a	-327.66
	183	0.0368	1.99670E-001	-8.79755E-009	0.00000E+000	1.99550E-001	8.00223E-005	4	..........a	-327.66
	184	0.037	2.09670E-001	-8.65254E-009	0.00000E+000	2.09550E-001	8.00223E-005	4	..........a	-327.66
	185	0.0372	2.19270E-001	-8.50954E-009	0.00000E+000	2.19550E-001	8.00223E-005	4	..........a	-327.66
	186	0.0374	2.29470E-001	-8.36253E-009	0.00000E+000	2.29550E-001	8.00223E-005	4	..........a	-327.66
	187	0.0376	2.39570E-001	-8.21753E-009	0.00000E+000	2.39550E-001	8.00223E-005	4	..........a	-327.66
	188	0.0378	2.49720E-001	-8.06552E-009	0.00000E+000	2.49550E-001	8.00223E-005	4	..........a	-327.66
	189	0.038	2.59670E-001	-7.92152E-009	0.00000E+000	2.59550E-001	8.00223E-005	4	..........a	-327.66
	190	0.0382	2.69470E-001	-7.76651E-009	0.00000E+000	2.69550E-001	8.00223E-005	4	..........a	-327.66
	191	0.0384	2.79770E-001	-7.61350E-009	0.00000E+000	2.79550E-001	8.00223E-005	4	..........a	-327.66
	192	0.0386	2.89570E-001	-7.46350E-009	0.00000E+000	2.89550E-001	8.00223E-005	4	..........a	-327.66
	193	0.0388	2.99370E-001	-7.31149E-009	0.00000E+000	2.99550E-001	8.00223E-005	4	..........a	-327.66
	194	0.039	3.09670E-001	-7.15249E-009	0.00000E+000	3.09550E-001	8.00223E-005	4	..........a	-327.66
	195	0.0392	3.19670E-001	-6.99648E-009	0.00000E+000	3.19550E-001	8.00223E-005	4	..........a	-327.66
	196	0.0394	3.29420E-001	-6.83748E-009	0.00000E+000	3.29550E-001	8.00223E-005	4	..........a	-327.66
	197	0.0396	3.39670E-001	-6.67447E-009	0.00000E+000	3.39550E-001	8.00223E-005	4	..........a	-327.66
	198	0.0398	3.49770E-001	-6.51846E-009	0.00000E+000	3.49550E-001	8.00223E-005	4	..........a	-327.66
	199	0.04	3.59670E-001	-6.35246E-009	0.00000E+000	3.59550E-001	8.00223E-005	4	..........a	-327.66
	200	0.0402	3.69570E-001	-6.18845E-009	0.00000E+000	3.69550E-001	8.00223E-005	4	..........a	-327.66
	201	0.0404	3.79670E-001	-6.02644E-009	0.00000E+000	3.79550E-001	8.00223E-005	4	..........a	-327.66
	202	0.0406	3.89670E-001	-5.85944E-009	0.00000E+000	3.89550E-001	8.00223E-005	4	..........a	-327.66
	203	0.0408	3.99770E-001	-5.69243E-009	0.00000E+000	3.99550E-001	8.00223E-005	4	..........a	-327.66
	204	0.041	4.09370E-001	-5.52542E-009	0.00000E+000	4.09550E-001	8.00223E-005	4	..........a	-327.66
	205	0.0412	4.19570E-001	-5.35242E-009	0.00000E+000	4.19550E-001	8.00223E-005	4	..........a	-327.66
	206	0.0414	4.29570E-001	-5.18241E-009	0.00000E+000	4.29550E-001	8.00223E-005	4	..........a	-327.66
	207	0.0416	4.39570E-001	-5.00340E-009	0.00000E+000	4.39550E-001	8.00223E-005	4	..........a	-327.66
	208	0.0418	4.49270E-001	-4.83040E-009	0.00000E+000	4.49550E-001	-4.19978E-004	4	..........a	-327.66
	209	0.042	4.59570E-001	-4.65039E-009	0.00000E+000	4.59550E-001	8.00223E-005	4	..........a	-327.66
	210	0.0422	4.69570E-001	-4.47238E-009	0.00000E+000	4.69550E-001	8.00223E-005	4	..........a	-327.66
	211	0.0424	4.79470E-001	-4.29438E-009	0.00000E+000	4.79550E-001	8.00223E-005	4	..........a	-327.66
	212	0.0426	4.89570E-001	-4.11137E-009	0.00000E+000	4.89550E-001	-1.19978E-004	4	..........a	-327.66
	213	0.0428	4.99670E-001	-3.91936E-009	0.00000E+000	4.99550E-001	8.00223E-005	4	..........a	-327.66
	214	0.043	5.09269E-001	-3.73136E-009	0.00000E+000	5.09550E-001	8.00223E-005	4	..........a	-327.66
	215	0.0432	5.19569E-001	-3.54035E-009	0.00000E+000	5.19550E-001	8.00223E-005	4	..........a	-327.66
	216	0.0434	5.29369E-001	-3.34734E-009	0.00000E+000	5.29550E-001	8.00223E-005	4	..........a	-327.66
	217	0.0436	5.39670E-001	-3.15133E-009	0.00000E+000	5.39550E-001	8.00223E-005	4	..........a	-327.66
	218	0.0438	5.49469E-001	-2.95033E-009	0.00000E+000	5.49550E-001	8.00223E-005	4	..........a	-327.66
	219	0.044	5.59469E-001	-2.75032E-009	0.00000E+000	5.59550E-001	8.00223E-005	4	..........a	-327.66
	220	0.0442	5.69669E-001	-2.54331E-009	0.00000E+000	5.69550E-001	8.00223E-005	4	..........a	-327.66
	221	0.0444	5.79569E-001	-2.34030E-009	0.00000E+000	5.79550E-001	8.00223E-005	4	..........a	-327.66
	222	0.0446	5.89369E-001	-2.12229E-009	0.00000E+000	5.89550E-001	8.00223E-005	4	..........a	-327.66
	223	0.0448	5.99469E-001	-1.90529E-009	0.00000E+000	5.99550E-001	8.00223E-005	4	..........a	-327.66
	224	0.045	6.09670E-001	-1.69028E-009	0.00000E+000	6.09550E-001	8.00223E-005	4	..........a	-327.66
	225	0.0452	6.19569E-001	-1.46827E-009	0.00000E+000	6.19550E-001	8.00223E-005	4	..........a	-327.66
	226	0.0454	6.29369E-001	-1.24226E-009	0.00000E+000	6.29550E-001	8.00223E-005	4	..........a	-327.66
	227	0.0456	6.39470E-001	-1.01025E-009	0.00000E+000	6.39550E-001	8.00223E-005	4	..........a	-327.66
	228	0.0458	6.49669E-001	-7.71242E-010	0.00000E+000	6.49550E-001	8.00223E-005	4	..........a	-327.66
	229	0.046	6.59469E-001	-5.33233E-010	0.00000E+000	6.59550E-001	8.00223E-005	4	..........a	-327.66
	230	0.0462	6.69469E-001	-2.98224E-010	0.00000E+000	6.69550E-001	8.00223E-005	4	..........a	-327.66
	231	0.0464	6.79669E-001	-4.62141E-011	0.00000E+000	6.79550E-001	8.00223E-005	4	..........a	-327.66
	232	0.0466	6.89469E-001	2.08796E-010	0.00000E+000	6.89550E-001	8.00223E-005	4	..........a	-327.66
	233	0.0468	6.99419E-001	4.63805E-010	0.00000E+000	6.99550E-001	8.00223E-005	4	..........a	-327.66
	234	0.047	7.09369E-001	7.26816E-010	0.00000E+000	7.09550E-001	8.00223E-005	4	..........a	-327.66
	235	0.0472	7.19570E-001	9.94826E-010	0.00000E+000	7.19550E-001	8.00223E-005	4	..........a	-327.66
	236	0.0474	7.29469E-001	1.25984E-009	0.00000E+000	7.29550E-001	8.00223E-005	4	..........a	-327.66
	237	0.0476	7.39469E-001	1.54085E-009	0.00000E+000	7.39550E-001	8.00223E-005	4	..........a	-327.66
	238	0.0478	7.49269E-001	1.82686E-009	0.00000E+000	7.49550E-001	8.00223E-005	4	..........a	-327.66
	239	0.048	7.59569E-001	2.11387E-009	0.00000E+000	7.59550E-001	8.00223E-005	4	..........a	-327.66
	240	0.0482	7.69369E-001	2.40588E-009	0.00000E+000	7.69550E-001	8.00223E-005	4	..........a	-327.66
	241	0.0484	7.79519E-001	2.70989E-009	0.00000E+000	7.79550E-001	8.00223E-005	4	..........a	-327.66
	242	0.0486	7.89270E-001	3.01490E-009	0.00000E+000	7.89550E-001	8.00223E-005	4	..........a	-327.66
	243	0.0488	7.99469E-001	3.32292E-009	0.00000E+000	7.99550E-001	8.00223E-005	4	..........a	-327.66
CURVE2	TABLE
	Pt	T	Vf	Im	Vu	Sig	Ach	IERange	Over	Temp
	#	s	V vs. Ref.	A	V	V	V	#	bits	deg C
	244	0.049	7.89970E-001	3.49392E-009	0.00000E+000	7.90000E-001	8.00223E-005	4	..........a	-327.66
	245	0.0492	7.80069E-001	3.62593E-009	0.00000E+000	7.80000E-001	8.00223E-005	4	..........a	-327.66
	246	0.0494	7.69870E-001	3.71993E-009	0.00000E+000	7.70000E-001	8.00223E-005	4	..........a	-327.66
	247	0.0496	7.59969E-001	3.78693E-009	0.00000E+000	7.60000E-001	8.00223E-005	4	..........a	-327.66
	248	0.0498	7.49969E-001	3.83593E-009	0.00000E+000	7.50000E-001	8.00223E-005	4	..........a	-327.66
	249	0.05	7.39869E-001	3.85994E-009	0.00000E+000	7.40000E-001	8.00223E-005	4	..........a	-327.66
	250	0.0502	7.29869E-001	3.87894E-009	0.00000E+000	7.30000E-001	8.00223E-005	4	..........a	-327.66
	251	0.0504	7.19869E-001	3.87894E-009	0.00000E+000	7.20000E-001	8.00223E-005	4	..........a	-327.66
	252	0.0506	7.09870E-001	3.87294E-009	0.00000E+000	7.10000E-001	-2.19978E-004	4	..........a	-327.66
	253	0.0508	6.99769E-001	3.85894E-009	0.00000E+000	7.00000E-001	8.00223E-005	4	..........a	-327.66
	254	0.051	6.89869E-001	3.83593E-009	0.00000E+000	6.90000E-001	8.00223E-005	4	..........a	-327.66
	255	0.0512	6.79969E-001	3.80393E-009	0.00000E+000	6.80000E-001	8.00223E-005	4	..........a	-327.66
	256	0.0514	6.69869E-001	3.76993E-009	0.00000E+000	6.70000E-001	-3.19978E-004	4	..........a	-327.66
	257	0.0516	6.59869E-001	3.73993E-009	0.00000E+000	6.60000E-001	8.00223E-005	4	..........a	-327.66
	258	0.0518	6.49969E-001	3.69193E-009	0.00000E+000	6.50000E-001	8.00223E-005	4	..........a	-327.66
	259	0.052	6.39870E-001	3.63693E-009	0.00000E+000	6.40000E-001	8.00223E-005	4	..........a	-327.66
	260	0.0522	6.29869E-001	3.58993E-009	0.00000E+000	6.30000E-001	8.00223E-005	4	..........a	-327.66
	261	0.0524	6.19869E-001	3.53192E-009	0.00000E+000	6.20000E-001	8.00223E-005	4	..........a	-327.66
	262	0.0526	6.09869E-001	3.47392E-009	0.00000E+000	6.10000E-001	8.00223E-005	4	..........a	-327.66
	263	0.0528	5.99869E-001	3.41292E-009	0.00000E+000	6.00000E-001	8.00223E-005	4	..........a	-327.66
	264	0.053	5.89969E-001	3.35192E-009	0.00000E+000	5.90000E-001	8.00223E-005	4	..........a	-327.66
	265	0.0532	5.79669E-001	3.28591E-009	0.00000E+000	5.80000E-001	8.00223E-005	4	..........a	-327.66
	266	0.0534	5.69969E-001	3.21691E-009	0.00000E+000	5.70000E-001	8.00223E-005	4	..........a	-327.66
	267	0.0536	5.60169E-001	3.14791E-009	0.00000E+000	5.60000E-001	8.00223E-005	4	..........a	-327.66
	268	0.0538	5.49969E-001	3.07491E-009	0.00000E+000	5.50000E-001	8.00223E-005	4	..........a	-327.66
	269	0.054	5.40069E-001	3.00090E-009	0.00000E+000	5.40000E-001	8.00223E-005	4	..........a	-327.66
	270	0.0542	5.29869E-001	2.92290E-009	0.00000E+000	5.30000E-001	8.00223E-005	4	..........a	-327.66
	271	0.0544	5.19769E-001	2.84790E-009	0.00000E+000	5.20000E-001	8.00223E-005	4	..........a	-327.66
	272	0.0546	5.09969E-001	2.76189E-009	0.00000E+000	5.10000E-001	8.00223E-005	4	..........a	-327.66
	273	0.0548	4.99870E-001	2.68189E-009	0.00000E+000	5.00000E-001	8.00223E-005	4	..........a	-327.66
	274	0.055	4.89870E-001	2.59889E-009	0.00000E+000	4.90000E-001	8.00223E-005	4	..........a	-327.66
	275	0.0552	4.79870E-001	2.51688E-009	0.00000E+000	4.80000E-001	8.00223E-005	4	..........a	-327.66
	276	0.0554	4.69970E-001	2.42888E-009	0.00000E+000	4.70000E-001	8.00223E-005	4	..........a	-327.66
	277	0.0556	4.59770E-001	2.33888E-009	0.00000E+000	4.60000E-001	-3.19978E-004	4	..........a	-327.66
	278	0.0558	4.49670E-001	2.25087E-009	0.00000E+000	4.50000E-001	8.00223E-005	4	..........a	-327.66
	279	0.056	4.39870E-001	2.15887E-009	0.00000E+000	4.40000E-001	8.00223E-005	4	..........a	-327.66
	280	0.0562	4.30070E-001	2.06187E-009	0.00000E+000	4.30000E-001	-4.19978E-004	4	..........a	-327.66
	281	0.0564	4.19870E-001	1.96786E-009	0.00000E+000	4.20000E-001	8.00223E-005	4	..........a	-327.66
	282	0.0566	4.09970E-001	1.86886E-009	0.00000E+000	4.10000E-001	8.00223E-005	4	..........a	-327.66
	283	0.0568	4.00070E-001	1.77186E-009	0.00000E+000	4.00000E-001	8.00223E-005	4	..........a	-327.66
	284	0.057	3.90070E-001	1.67185E-009	0.00000E+000	3.90000E-001	8.00223E-005	4	..........a	-327.66
	285	0.0572	3.79870E-001	1.56885E-009	0.00000E+000	3.80000E-001	8.00223E-005	4	..........a	-327.66
	286	0.0574	3.70070E-001	1.46484E-009	0.00000E+000	3.70000E-001	8.00223E-005	4	..........a	-327.66
	287	0.0576	3.59970E-001	1.35384E-009	0.00000E+000	3.60000E-001	8.00223E-005	4	..........a	-327.66
	288	0.0578	3.49970E-001	1.24184E-009	0.00000E+000	3.50000E-001	8.00223E-005	4	..........a	-327.66
	289	0.058	3.40070E-001	1.13483E-009	0.00000E+000	3.40000E-001	8.00223E-005	4	..........a	-327.66
	290	0.0582	3.29870E-001	1.01883E-009	0.00000E+000	3.30000E-001	8.00223E-005	4	..........a	-327.66
	291	0.0584	3.20070E-001	9.03822E-010	0.00000E+000	3.20000E-001	8.00223E-005	4	..........a	-327.66
	292	0.0586	3.09820E-001	7.84818E-010	0.00000E+000	3.10000E-001	8.00223E-005	4	..........a	-327.66
	293	0.0588	3.00070E-001	6.61813E-010	0.00000E+000	3.00000E-001	8.00223E-005	4	..........a	-327.66
	294	0.059	2.90070E-001	5.44809E-010	0.00000E+000	2.90000E-001	-4.19978E-004	4	..........a	-327.66
	295	0.0592	2.79870E-001	4.18804E-010	0.00000E+000	2.80000E-001	8.00223E-005	4	..........a	-327.66
	296	0.0594	2.69920E-001	2.87799E-010	0.00000E+000	2.70000E-001	8.00223E-005	4	..........a	-327.66
	297	0.0596	2.60070E-001	1.60794E-010	0.00000E+000	2.60000E-001	8.00223E-005	4	..........a	-327.66
	298	0.0598	2.49870E-001	2.77887E-011	0.00000E+000	2.50000E-001	8.00223E-005	4	..........a	-327.66
	299	0.06	2.39970E-001	-1.08217E-010	0.00000E+000	2.40000E-001	8.00223E-005	4	..........a	-327.66
	300	0.0602	2.30070E-001	-2.46222E-010	0.00000E+000	2.30000E-001	8.00223E-005	4	..........a	-327.66
	301	0.0604	2.19970E-001	-3.83227E-010	0.00000E+000	2.20000E-001	8.00223E-005	4	..........a	-327.66
	302	0.0606	2.10070E-001	-5.27233E-010	0.00000E+000	2.10000E-001	8.00223E-005	4	..........a	-327.66
	303	0.0608	2.00070E-001	-6.76238E-010	0.00000E+000	2.00000E-001	8.00223E-005	4	..........a	-327.66
	304	0.061	1.90170E-001	-8.28244E-010	0.00000E+000	1.90000E-001	8.00223E-005	4	..........a	-327.66
	305	0.0612	1.80170E-001	-9.76250E-010	0.00000E+000	1.80000E-001	8.00223E-005	4	..........a	-327.66
	306	0.0614	1.70070E-001	-1.13026E-009	0.00000E+000	1.70000E-001	8.00223E-005	4	..........a	-327.66
	307	0.0616	1.59970E-001	-1.28226E-009	0.00000E+000	1.60000E-001	8.00223E-005	4	..........a	-327.66
	308	0.0618	1.49970E-001	-1.44427E-009	0.00000E+000	1.50000E-001	-1.19978E-004	4	..........a	-327.66
	309	0.062	1.40070E-001	-1.60427E-009	0.00000E+000	1.40000E-001	8.00223E-005	4	..........a	-327.66
	310	0.0622	1.30070E-001	-1.76928E-009	0.00000E+000	1.30000E-001	8.00223E-005	4	..........a	-327.66
	311	0.0624	1.20170E-001	-1.93429E-009	0.00000E+000	1.20000E-001	8.00223E-005	4	..........a	-327.66
	312	0.0626	1.10070E-001	-2.10029E-009	0.00000E+000	1.10000E-001	8.00223E-005	4	..........a	-327.66
	313	0.0628	1.00070E-001	-2.27030E-009	0.00000E+000	1.00000E-001	8.00223E-005	4	..........a	-327.66
	314	0.063	9.00695E-002	-2.44231E-009	0.00000E+000	9.00000E-002	8.00223E-005	4	..........a	-327.66
	315	0.0632	7.99695E-002	-2.61731E-009	0.00000E+000	8.00000E-002	8.00223E-005	4	..........a	-327.66
	316	0.0634	6.99695E-002	-2.79432E-009	0.00000E+000	7.00000E-002	8.00223E-005	4	..........a	-327.66
	317	0.0636	5.99695E-002	-2.96833E-009	0.00000E+000	6.00000E-002	8.00223E-005	4	..........a	-327.66
	318	0.0638	4.99695E-002	-3.14833E-009	0.00000E+000	5.00000E-002	8.00223E-005	4	..........a	-327.66
	319	0.064	3.98695E-002	-3.32534E-009	0.00000E+000	4.00000E-002	8.00223E-005	4	..........a	-327.66
	320	0.0642	3.00695E-002	-3.50435E-009	0.00000E+000	3.00000E-002	8.00223E-005	4	..........a	-327.66
	321	0.0644	2.01695E-002	-3.68435E-009	0.00000E+000	2.00000E-002	8.00223E-005	4	..........a	-327.66
	322	0.0646	1.00695E-002	-3.86436E-009	0.00000E+000	1.00000E-002	8.00223E-005	4	..........a	-327.66
	323	0.0648	6.95192E-005	-4.04237E-009	0.00000E+000	7.45058E-009	8.00223E-005	4	..........a	-327.66
	324	0.065	-9.98048E-003	-4.22037E-009	0.00000E+000	-1.00000E-002	8.00223E-005	4	..........a	-327.66
	325	0.0652	-1.99305E-002	-4.40238E-009	0.00000E+000	-2.00000E-002	8.00223E-005	4	..........a	-327.66
	326	0.0654	-2.99305E-002	-4.57339E-009	0.00000E+000	-3.00000E-002	8.00223E-005	4	..........a	-327.66
	327	0.0656	-3.99305E-002	-4.75540E-009	0.00000E+000	-4.00000E-002	8.00223E-005	4	..........a	-327.66
	328	0.0658	-4.99305E-002	-4.93140E-009	0.00000E+000	-5.00000E-002	8.00223E-005	4	..........a	-327.66
	329	0.066	-5.97305E-002	-5.10241E-009	0.00000E+000	-6.00000E-002	8.00223E-005	4	..........a	-327.66
	330	0.0662	-6.99305E-002	-5.27642E-009	0.00000E+000	-7.00000E-002	8.00223E-005	4	..........a	-327.66
	331	0.0664	-7.99305E-002	-5.45042E-009	0.00000E+000	-8.00000E-002	8.00223E-005	4	..........a	-327.66
	332	0.0666	-9.00305E-002	-5.61343E-009	0.00000E+000	-9.00000E-002	-2.19978E-004	4	..........a	-327.66
	333	0.0668	-9.99305E-002	-5.78943E-009	0.00000E+000	-1.00000E-001	8.00223E-005	4	..........a	-327.66
	334	0.067	-1.10030E-001	-5.95444E-009	0.00000E+000	-1.10000E-001	-1.19978E-004	4	..........a	-327.66
	335	0.0672	-1.19930E-001	-6.11145E-009	0.00000E+000	-1.20000E-001	8.00223E-005	4	..........a	-327.66
	336	0.0674	-1.29930E-001	-6.27945E-009	0.00000E+000	-1.30000E-001	8.00223E-005	4	..........a	-327.66
	337	0.0676	-1.39830E-001	-6.44246E-009	0.00000E+000	-1.40000E-001	8.00223E-005	4	..........a	-327.66
	338	0.0678	-1.49930E-001	-6.60847E-009	0.00000E+000	-1.50000E-001	8.00223E-005	4	..........a	-327.66
	339	0.068	-1.59830E-001	-6.76247E-009	0.00000E+000	-1.60000E-001	8.00223E-005	4	..........a	-327.66
	340	0.0682	-1.69930E-001	-6.91948E-009	0.00000E+000	-1.70000E-001	8.00223E-005	4	..........a	-327.66
	341	0.0684	-1.79930E-001	-7.07348E-009	0.00000E+000	-1.80000E-001	8.00223E-005	4	..........a	-327.66
	342	0.0686	-1.89930E-001	-7.22549E-009	0.00000E+000	-1.90000E-001	8.00223E-005	4	..........a	-327.66
	343	0.0688	-1.99930E-001	-7.37650E-009	0.00000E+000	-2.00000E-001	8.00223E-005	4	..........a	-327.66
	344	0.069	-2.09930E-001	-7.52050E-009	0.00000E+000	-2.10000E-001	8.00223E-005	4	..........a	-327.66
[...]
	2605	0.5212	-4.19930E-001	-5.98344E-009	0.00000E+000	-4.20000E-001	8.00223E-005	4	..........a	-327.66
	2606	0.5214	-4.29830E-001	-6.13045E-009	0.00000E+000	-4.30000E-001	8.00223E-005	4	..........a	-327.66
	2607	0.5216	-4.39830E-001	-6.26345E-009	0.00000E+000	-4.40000E-001	8.00223E-005	4	..........a	-327.66
	2608	0.5218	-4.49880E-001	-6.40246E-009	0.00000E+000	-4.50000E-001	8.00223E-005	4	..........a	-327.66
	2609	0.522	-4.59830E-001	-6.54246E-009	0.00000E+000	-4.60000E-001	8.00223E-005	4	..........a	-327.66
	2610	0.5222	-4.69930E-001	-6.67847E-009	0.00000E+000	-4.70000E-001	8.00223E-005	4	..........a	-327.66
	2611	0.5224	-4.79830E-001	-6.82347E-009	0.00000E+000	-4.80000E-001	8.00223E-005	4	..........a	-327.66
	2612	0.5226	-4.89730E-001	-6.96648E-009	0.00000E+000	-4.90000E-001	8.00223E-005	4	..........a	-327.66
	2613	0.5228	-4.99930E-001	-7.10849E-009	0.00000E+000	-5.00000E-001	8.00223E-005	4	..........a	-327.66
	2614	0.523	-5.09930E-001	-7.25849E-009	0.00000E+000	-5.10000E-001	8.00223E-005	4	..........a	-327.66
	2615	0.5232	-5.19930E-001	-7.40250E-009	0.00000E+000	-5.20000E-001	8.00223E-005	4	..........a	-327.66
	2616	0.5234	-5.29831E-001	-7.54750E-009	0.00000E+000	-5.30000E-001	8.00223E-005	4	..........a	-327.66
	2617	0.5236	-5.39730E-001	-7.70251E-009	0.00000E+000	-5.40000E-001	-1.19978E-004	4	..........a	-327.66
	2618	0.5238	-5.49931E-001	-7.85551E-009	0.00000E+000	-5.50000E-001	8.00223E-005	4	..........a	-327.66
	2619	0.524	-5.59830E-001	-8.00952E-009	0.00000E+000	-5.60000E-001	8.00223E-005	4	..........a	-327.66
	2620	0.5242	-5.69930E-001	-8.16753E-009	0.00000E+000	-5.70000E-001	8.00223E-005	4	..........a	-327.66
	2621	0.5244	-5.79930E-001	-8.32653E-009	0.00000E+000	-5.80000E-001	8.00223E-005	4	..........a	-327.66
	2622	0.5246	-5.89930E-001	-8.48754E-009	0.00000E+000	-5.90000E-001	8.00223E-005	4	..........a	-327.66
	2623	0.5248	-5.99730E-001	-8.66055E-009	0.00000E+000	-6.00000E-001	8.00223E-005	4	..........a	-327.66
	2624	0.525	-5.89930E-001	-8.69155E-009	0.00000E+000	-5.90000E-001	8.00223E-005	4	..........a	-327.66
	2625	0.5252	-5.79731E-001	-8.70555E-009	0.00000E+000	-5.80000E-001	8.00223E-005	4	..........a	-327.66
	2626	0.5254	-5.69930E-001	-8.70855E-009	0.00000E+000	-5.70000E-001	8.00223E-005	4	..........a	-327.66
	2627	0.5256	-5.59830E-001	-8.69855E-009	0.00000E+000	-5.60000E-001	8.00223E-005	4	..........a	-327.66
	2628	0.5258	-5.49830E-001	-8.67455E-009	0.00000E+000	-5.50000E-001	8.00223E-005	4	..........a	-327.66
	2629	0.526	-5.39831E-001	-8.64754E-009	0.00000E+000	-5.40000E-001	8.00223E-005	4	..........a	-327.66
	2630	0.5262	-5.29880E-001	-8.61454E-009	0.00000E+000	-5.30000E-001	8.00223E-005	4	..........a	-327.66
	2631	0.5264	-5.20030E-001	-8.57854E-009	0.00000E+000	-5.20000E-001	8.00223E-005	4	..........a	-327.66
	2632	0.5266	-5.09930E-001	-8.53654E-009	0.00000E+000	-5.10000E-001	8.00223E-005	4	..........a	-327.66
	2633	0.5268	-4.99980E-001	-8.48654E-009	0.00000E+000	-5.00000E-001	8.00223E-005	4	..........a	-327.66
	2634	0.527	-4.89930E-001	-8.43554E-009	0.00000E+000	-4.90000E-001	8.00223E-005	4	..........a	-327.66
	2635	0.5272	-4.79930E-001	-8.37853E-009	0.00000E+000	-4.80000E-001	8.00223E-005	4	..........a	-327.66
	2636	0.5274	-4.69930E-001	-8.31953E-009	0.00000E+000	-4.70000E-001	8.00223E-005	4	..........a	-327.66
	2637	0.5276	-4.59830E-001	-8.26053E-009	0.00000E+000	-4.60000E-001	-3.19978E-004	4	..........a	-327.66
	2638	0.5278	-4.49930E-001	-8.19653E-009	0.00000E+000	-4.50000E-001	8.00223E-005	4	..........a	-327.66
	2639	0.528	-4.39830E-001	-8.13052E-009	0.00000E+000	-4.40000E-001	8.00223E-005	4	..........a	-327.66
	2640	0.5282	-4.29930E-001	-8.06352E-009	0.00000E+000	-4.30000E-001	-1.19978E-004	4	..........a	-327.66
	2641	0.5284	-4.19630E-001	-7.99052E-009	0.00000E+000	-4.20000E-001	8.00223E-005	4	..........a	-327.66
	2642	0.5286	-4.09980E-001	-7.92652E-009	0.00000E+000	-4.10000E-001	8.00223E-005	4	..........a	-327.66
	2643	0.5288	-3.99830E-001	-7.85551E-009	0.00000E+000	-4.00000E-001	8.00223E-005	4	..........a	-327.66
	2644	0.529	-3.89930E-001	-7.78151E-009	0.00000E+000	-3.90000E-001	8.00223E-005	4	..........a	-327.66
	2645	0.5292	-3.79730E-001	-7.70151E-009	0.00000E+000	-3.80000E-001	8.00223E-005	4	..........a	-327.66
	2646	0.5294	-3.69930E-001	-7.63151E-009	0.00000E+000	-3.70000E-001	-3.19978E-004	4	..........a	-327.66
	2647	0.5296	-3.59830E-001	-7.55050E-009	0.00000E+000	-3.60000E-001	8.00223E-005	4	..........a	-327.66
	2648	0.5298	-3.50030E-001	-7.47650E-009	0.00000E+000	-3.50000E-001	8.00223E-005	4	..........a	-327.66
	2649	0.53	-3.39730E-001	-7.39050E-009	0.00000E+000	-3.40000E-001	8.00223E-005	4	..........a	-327.66
	2650	0.5302	-3.30030E-001	-7.31249E-009	0.00000E+000	-3.30000E-001	8.00223E-005	4	..........a	-327.66
	2651	0.5304	-3.19730E-001	-7.23649E-009	0.00000E+000	-3.20000E-001	8.00223E-005	4	..........a	-327.66
	2652	0.5306	-3.09930E-001	-7.14349E-009	0.00000E+000	-3.10000E-001	8.00223E-005	4	..........a	-327.66
	2653	0.5308	-2.99930E-001	-7.06048E-009	0.00000E+000	-3.00000E-001	8.00223E-005	4	..........a	-327.66
	2654	0.531	-2.89930E-001	-6.98048E-009	0.00000E+000	-2.90000E-001	-3.19978E-004	4	..........a	-327.66
	2655	0.5312	-2.79830E-001	-6.89448E-009	0.00000E+000	-2.80000E-001	8.00223E-005	4	..........a	-327.66
	2656	0.5314	-2.70030E-001	-6.80547E-009	0.00000E+000	-2.70000E-001	8.00223E-005	4	..........a	-327.66
	2657	0.5316	-2.59830E-001	-6.72047E-009	0.00000E+000	-2.60000E-001	8.00223E-005	4	..........a	-327.66
	2658	0.5318	-2.49930E-001	-6.63047E-009	0.00000E+000	-2.50000E-001	8.00223E-005	4	..........a	-327.66
	2659	0.532	-2.39930E-001	-6.53746E-009	0.00000E+000	-2.40000E-001	8.00223E-005	4	..........a	-327.66
	2660	0.5322	-2.29930E-001	-6.45446E-009	0.00000E+000	-2.30000E-001	8.00223E-005	4	..........a	-327.66
	2661	0.5324	-2.19930E-001	-6.36046E-009	0.00000E+000	-2.20000E-001	8.00223E-005	4	..........a	-327.66
	2662	0.5326	-2.10030E-001	-6.26945E-009	0.00000E+000	-2.10000E-001	8.00223E-005	4	..........a	-327.66
	2663	0.5328	-2.00030E-001	-6.17845E-009	0.00000E+000	-2.00000E-001	8.00223E-005	4	..........a	-327.66
	2664	0.533	-1.90130E-001	-6.08645E-009	0.00000E+000	-1.90000E-001	8.00223E-005	4	..........a	-327.66
	2665	0.5332	-1.79830E-001	-5.98344E-009	0.00000E+000	-1.80000E-001	8.00223E-005	4	..........a	-327.66
	2666	0.5334	-1.69930E-001	-5.89544E-009	0.00000E+000	-1.70000E-001	8.00223E-005	4	..........a	-327.66
	2667	0.5336	-1.59880E-001	-5.80144E-009	0.00000E+000	-1.60000E-001	8.00223E-005	4	..........a	-327.66
	2668	0.5338	-1.49930E-001	-5.70343E-009	0.00000E+000	-1.50000E-001	8.00223E-005	4	..........a	-327.66
	2669	0.534	-1.39730E-001	-5.60443E-009	0.00000E+000	-1.40000E-001	8.00223E-005	4	..........a	-327.66
	2670	0.5342	-1.29930E-001	-5.51142E-009	0.00000E+000	-1.30000E-001	8.00223E-005	4	..........a	-327.66
	2671	0.5344	-1.19830E-001	-5.41242E-009	0.00000E+000	-1.20000E-001	8.00223E-005	4	..........a	-327.66
	2672	0.5346	-1.10030E-001	-5.31742E-009	0.00000E+000	-1.10000E-001	8.00223E-005	4	..........a	-327.66
	2673	0.5348	-9.98305E-002	-5.21841E-009	0.00000E+000	-1.00000E-001	8.00223E-005	4	..........a	-327.66
	2674	0.535	-8.99305E-002	-5.12241E-009	0.00000E+000	-9.00000E-002	8.00223E-005	4	..........a	-327.66
	2675	0.5352	-8.00305E-002	-5.02041E-009	0.00000E+000	-8.00000E-002	8.00223E-005	4	..........a	-327.66
	2676	0.5354	-6.98305E-002	-4.91840E-009	0.00000E+000	-7.00000E-002	8.00223E-005	4	..........a	-327.66
	2677	0.5356	-5.99305E-002	-4.81840E-009	0.00000E+000	-6.00000E-002	8.00223E-005	4	..........a	-327.66
	2678	0.5358	-4.99305E-002	-4.71439E-009	0.00000E+000	-5.00000E-002	8.00223E-005	4	..........a	-327.66
	2679	0.536	-3.99305E-002	-4.61439E-009	0.00000E+000	-4.00000E-002	8.00223E-005	4	..........a	-327.66
	2680	0.5362	-2.98305E-002	-4.50939E-009	0.00000E+000	-3.00000E-002	-2.19978E-004	4	..........a	-327.66
	2681	0.5364	-1.98305E-002	-4.40838E-009	0.00000E+000	-2.00000E-002	8.00223E-005	4	..........a	-327.66
	2682	0.5366	-9.93048E-003	-4.30238E-009	0.00000E+000	-1.00000E-002	8.00223E-005	4	..........a	-327.66
	2683	0.5368	6.95192E-005	-4.19537E-009	0.00000E+000	7.45058E-009	8.00223E-005	4	..........a	-327.66
	2684	0.537	1.00695E-002	-4.09137E-009	0.00000E+000	1.00000E-002	8.00223E-005	4	..........a	-327.66
	2685	0.5372	2.02195E-002	-3.97537E-009	0.00000E+000	2.00000E-002	8.00223E-005	4	..........a	-327.66
	2686	0.5374	2.99695E-002	-3.87636E-009	0.00000E+000	3.00000E-002	8.00223E-005	4	..........a	-327.66
	2687	0.5376	4.03695E-002	-3.76536E-009	0.00000E+000	4.00000E-002	8.00223E-005	4	..........a	-327.66
	2688	0.5378	5.00695E-002	-3.65835E-009	0.00000E+000	5.00000E-002	8.00223E-005	4	..........a	-327.66
	2689	0.538	5.99695E-002	-3.54835E-009	0.00000E+000	6.00000E-002	8.00223E-005	4	..........a	-327.66
	2690	0.5382	7.02695E-002	-3.43834E-009	0.00000E+000	7.00000E-002	8.00223E-005	4	..........a	-327.66
	2691	0.5384	8.01195E-002	-3.32734E-009	0.00000E+000	8.00000E-002	8.00223E-005	4	..........a	-327.66
	2692	0.5386	9.00695E-002	-3.21634E-009	0.00000E+000	9.00000E-002	8.00223E-005	4	..........a	-327.66
	2693	0.5388	1.00070E-001	-3.10133E-009	0.00000E+000	1.00000E-001	8.00223E-005	4	..........a	-327.66
	2694	0.539	1.10070E-001	-2.98833E-009	0.00000E+000	1.10000E-001	8.00223E-005	4	..........a	-327.66
	2695	0.5392	1.20170E-001	-2.87432E-009	0.00000E+000	1.20000E-001	8.00223E-005	4	..........a	-327.66
	2696	0.5394	1.30170E-001	-2.75632E-009	0.00000E+000	1.30000E-001	8.00223E-005	4	..........a	-327.66
	2697	0.5396	1.40070E-001	-2.63431E-009	0.00000E+000	1.40000E-001	8.00223E-005	4	..........a	-327.66
	2698	0.5398	1.50270E-001	-2.51931E-009	0.00000E+000	1.50000E-001	8.00223E-005	4	..........a	-327.66
	2699	0.54	1.60070E-001	-2.40330E-009	0.00000E+000	1.60000E-001	8.00223E-005	4	..........a	-327.66
	2700	0.5402	1.69970E-001	-2.28030E-009	0.00000E+000	1.70000E-001	8.00223E-005	4	..........a	-327.66
	2701	0.5404	1.80170E-001	-2.15530E-009	0.00000E+000	1.80000E-001	8.00223E-005	4	..........a	-327.66
	2702	0.5406	1.90020E-001	-2.02529E-009	0.00000E+000	1.90000E-001	8.00223E-005	4	..........a	-327.66
	2703	0.5408	2.00070E-001	-1.89929E-009	0.00000E+000	2.00000E-001	8.00223E-005	4	..........a	-327.66
	2704	0.541	2.09970E-001	-1.77628E-009	0.00000E+000	2.10000E-001	8.00223E-005	4	..........a	-327.66
	2705	0.5412	2.20170E-001	-1.65028E-009	0.00000E+000	2.20000E-001	8.00223E-005	4	..........a	-327.66
	2706	0.5414	2.29970E-001	-1.52227E-009	0.00000E+000	2.30000E-001	8.00223E-005	4	..........a	-327.66
	2707	0.5416	2.40170E-001	-1.38727E-009	0.00000E+000	2.40000E-001	8.00223E-005	4	..........a	-327.66
	2708	0.5418	2.49920E-001	-1.25926E-009	0.00000E+000	2.50000E-001	8.00223E-005	4	..........a	-327.66
	2709	0.542	2.60070E-001	-1.12426E-009	0.00000E+000	2.60000E-001	8.00223E-005	4	..........a	-327.66
	2710	0.5422	2.70070E-001	-9.88250E-010	0.00000E+000	2.70000E-001	8.00223E-005	4	..........a	-327.66
	2711	0.5424	2.80170E-001	-8.54245E-010	0.00000E+000	2.80000E-001	8.00223E-005	4	..........a	-327.66
	2712	0.5426	2.89970E-001	-7.12240E-010	0.00000E+000	2.90000E-001	8.00223E-005	4	..........a	-327.66
	2713	0.5428	2.99970E-001	-5.76235E-010	0.00000E+000	3.00000E-001	8.00223E-005	4	..........a	-327.66
	2714	0.543	3.09970E-001	-4.32229E-010	0.00000E+000	3.10000E-001	8.00223E-005	4	..........a	-327.66
	2715	0.5432	3.20070E-001	-2.94224E-010	0.00000E+000	3.20000E-001	8.00223E-005	4	..........a	-327.66
	2716	0.5434	3.29970E-001	-1.40218E-010	0.00000E+000	3.30000E-001	8.00223E-005	4	..........a	-327.66
	2717	0.5436	3.40170E-001	-2.12374E-013	0.00000E+000	3.40000E-001	8.00223E-005	4	..........a	-327.66
	2718	0.5438	3.49870E-001	1.49793E-010	0.00000E+000	3.50000E-001	8.00223E-005	4	..........a	-327.66
	2719	0.544	3.59970E-001	2.99799E-010	0.00000E+000	3.60000E-001	8.00223E-005	4	..........a	-327.66
	2720	0.5442	3.70070E-001	4.53805E-010	0.00000E+000	3.70000E-001	8.00223E-005	4	..........a	-327.66
	2721	0.5444	3.80170E-001	6.03811E-010	0.00000E+000	3.80000E-001	8.00223E-005	4	..........a	-327.66
	2722	0.5446	3.89970E-001	7.57817E-010	0.00000E+000	3.90000E-001	8.00223E-005	4	..........a	-327.66
	2723	0.5448	3.99870E-001	9.15823E-010	0.00000E+000	4.00000E-001	8.00223E-005	4	..........a	-327.66
	2724	0.545	4.09970E-001	1.07283E-009	0.00000E+000	4.10000E-001	8.00223E-005	4	..........a	-327.66
	2725	0.5452	4.20070E-001	1.23283E-009	0.00000E+000	4.20000E-001	8.00223E-005	4	..........a	-327.66
	2726	0.5454	4.29870E-001	1.38884E-009	0.00000E+000	4.30000E-001	8.00223E-005	4	..........a	-327.66
	2727	0.5456	4.39870E-001	1.55385E-009	0.00000E+000	4.40000E-001	-3.19978E-004	4	..........a	-327.66
	2728	0.5458	4.49670E-001	1.72085E-009	0.00000E+000	4.50000E-001	8.00223E-005	4	..........a	-327.66
	2729	0.546	4.59970E-001	1.88286E-009	0.00000E+000	4.60000E-001	8.00223E-005	4	..........a	-327.66
	2730	0.5462	4.69970E-001	2.05387E-009	0.00000E+000	4.70000E-001	8.00223E-005	4	..........a	-327.66
	2731	0.5464	4.79870E-001	2.22187E-009	0.00000E+000	4.80000E-001	8.00223E-005	4	..........a	-327.66
	2732	0.5466	4.89870E-001	2.39688E-009	0.00000E+000	4.90000E-001	8.00223E-005	4	..........a	-327.66
	2733	0.5468	5.00269E-001	2.57289E-009	0.00000E+000	5.00000E-001	8.00223E-005	4	..........a	-327.66
	2734	0.547	5.09969E-001	2.74889E-009	0.00000E+000	5.10000E-001	-3.19978E-004	4	..........a	-327.66
	2735	0.5472	5.19969E-001	2.92890E-009	0.00000E+000	5.20000E-001	8.00223E-005	4	..........a	-327.66
	2736	0.5474	5.29970E-001	3.11291E-009	0.00000E+000	5.30000E-001	8.00223E-005	4	..........a	-327.66
	2737	0.5476	5.39970E-001	3.29891E-009	0.00000E+000	5.40000E-001	8.00223E-005	4	..........a	-327.66
	2738	0.5478	5.49969E-001	3.48892E-009	0.00000E+000	5.50000E-001	8.00223E-005	4	..........a	-327.66
	2739	0.548	5.59969E-001	3.68193E-009	0.00000E+000	5.60000E-001	8.00223E-005	4	..........a	-327.66
	2740	0.5482	5.69969E-001	3.87294E-009	0.00000E+000	5.70000E-001	8.00223E-005	4	..........a	-327.66
	2741	0.5484	5.79969E-001	4.07494E-009	0.00000E+000	5.80000E-001	8.00223E-005	4	..........a	-327.66
	2742	0.5486	5.89969E-001	4.27295E-009	0.00000E+000	5.90000E-001	8.00223E-005	4	..........a	-327.66
	2743	0.5488	5.99869E-001	4.47396E-009	0.00000E+000	6.00000E-001	8.00223E-005	4	..........a	-327.66
	2744	0.549	6.10070E-001	4.68597E-009	0.00000E+000	6.10000E-001	8.00223E-005	4	..........a	-327.66
	2745	0.5492	6.19869E-001	4.89698E-009	0.00000E+000	6.20000E-001	8.00223E-005	4	..........a	-327.66
	2746	0.5494	6.29969E-001	5.11198E-009	0.00000E+000	6.30000E-001	8.00223E-005	4	..........a	-327.66
	2747	0.5496	6.39870E-001	5.32999E-009	0.00000E+000	6.40000E-001	-3.19978E-004	4	..........a	-327.66
	2748	0.5498	6.49870E-001	5.55400E-009	0.00000E+000	6.50000E-001	8.00223E-005	4	..........a	-327.66
	2749	0.55	6.60069E-001	5.78201E-009	0.00000E+000	6.60000E-001	8.00223E-005	4	..........a	-327.66
	2750	0.5502	6.69869E-001	6.01502E-009	0.00000E+000	6.70000E-001	8.00223E-005	4	..........a	-327.66
	2751	0.5504	6.79869E-001	6.24703E-009	0.00000E+000	6.80000E-001	8.00223E-005	4	..........a	-327.66
	2752	0.5506	6.89869E-001	6.48904E-009	0.00000E+000	6.90000E-001	8.00223E-005	4	..........a	-327.66
	2753	0.5508	6.99769E-001	6.73205E-009	0.00000E+000	7.00000E-001	8.00223E-005	4	..........a	-327.66
	2754	0.551	7.09870E-001	6.98106E-009	0.00000E+000	7.10000E-001	8.00223E-005	4	..........a	-327.66
	2755	0.5512	7.19969E-001	7.23607E-009	0.00000E+000	7.20000E-001	8.00223E-005	4	..........a	-327.66
	2756	0.5514	7.29869E-001	7.49708E-009	0.00000E+000	7.30000E-001	-2.19978E-004	4	..........a	-327.66
	2757	0.5516	7.39869E-001	7.76109E-009	0.00000E+000	7.40000E-001	8.00223E-005	4	..........a	-327.66
	2758	0.5518	7.49969E-001	8.03010E-009	0.00000E+000	7.50000E-001	8.00223E-005	4	..........a	-327.66
	2759	0.552	7.59969E-001	8.30911E-009	0.00000E+000	7.60000E-001	8.00223E-005	4	..........a	-327.66
	2760	0.5522	7.69769E-001	8.59012E-009	0.00000E+000	7.70000E-001	8.00223E-005	4	..........a	-327.66
	2761	0.5524	7.79869E-001	8.87813E-009	0.00000E+000	7.80000E-001	8.00223E-005	4	..........a	-327.66
	2762	0.5526	7.89869E-001	9.16814E-009	0.00000E+000	7.90000E-001	8.00223E-005	4	..........a	-327.66
	2763	0.5528	7.99719E-001	9.46415E-009	0.00000E+000	8.00000E-001	-2.19978E-004	4	..........a	-327.66
CURVE11	TABLE
	Pt	T	Vf	Im	Vu	Sig	Ach	IERange	Over	Temp
	#	s	V vs. Ref.	A	V	V	V	#	bits	deg C
	2764	0.553	7.89869E-001	9.62616E-009	0.00000E+000	7.90000E-001	8.00223E-005	4	..........a	-327.66
	2765	0.5532	7.79769E-001	9.74216E-009	0.00000E+000	7.80000E-001	-2.19978E-004	4	..........a	-327.66
	2766	0.5534	7.69870E-001	9.81816E-009	0.00000E+000	7.70000E-001	8.00223E-005	4	..........a	-327.66
	2767	0.5536	7.59869E-001	9.87017E-009	0.00000E+000	7.60000E-001	8.00223E-005	4	..........a	-327.66
	2768	0.5538	7.49969E-001	9.90217E-009	0.00000E+000	7.50000E-001	8.00223E-005	4	..........a	-327.66
	2769	0.554	7.40169E-001	9.91817E-009	0.00000E+000	7.40000E-001	8.00223E-005	4	..........a	-327.66
	2770	0.5542	7.29869E-001	9.92217E-009	0.00000E+000	7.30000E-001	1.80022E-004	4	..........a	-327.66
	2771	0.5544	7.19869E-001	9.91317E-009	0.00000E+000	7.20000E-001	8.00223E-005	4	..........a	-327.66
	2772	0.5546	7.09870E-001	9.88817E-009	0.00000E+000	7.10000E-001	8.00223E-005	4	..........a	-327.66
	2773	0.5548	6.99869E-001	9.85817E-009	0.00000E+000	7.00000E-001	8.00223E-005	4	..........a	-327.66
	2774	0.555	6.89869E-001	9.82216E-009	0.00000E+000	6.90000E-001	8.00223E-005	4	..........a	-327.66
	2775	0.5552	6.79869E-001	9.77816E-009	0.00000E+000	6.80000E-001	8.00223E-005	4	..........a	-327.66
	2776	0.5554	6.69969E-001	9.72416E-009	0.00000E+000	6.70000E-001	8.00223E-005	4	..........a	-327.66
	2777	0.5556	6.60069E-001	9.67416E-009	0.00000E+000	6.60000E-001	8.00223E-005	4	..........a	-327.66
	2778	0.5558	6.49969E-001	9.61516E-009	0.00000E+000	6.50000E-001	8.00223E-005	4	..........a	-327.66
	2779	0.556	6.39870E-001	9.54915E-009	0.00000E+000	6.40000E-001	8.00223E-005	4	..........a	-327.66
	2780	0.5562	6.29969E-001	9.48215E-009	0.00000E+000	6.30000E-001	8.00223E-005	4	..........a	-327.66
	2781	0.5564	6.19769E-001	9.41115E-009	0.00000E+000	6.20000E-001	8.00223E-005	4	..........a	-327.66
	2782	0.5566	6.09869E-001	9.33415E-009	0.00000E+000	6.10000E-001	8.00223E-005	4	..........a	-327.66
	2783	0.5568	5.99970E-001	9.25914E-009	0.00000E+000	6.00000E-001	8.00223E-005	4	..........a	-327.66
	2784	0.557	5.89969E-001	9.17814E-009	0.00000E+000	5.90000E-001	8.00223E-005	4	..........a	-327.66
	2785	0.5572	5.80220E-001	9.09514E-009	0.00000E+000	5.80000E-001	8.00223E-005	4	..........a	-327.66
	2786	0.5574	5.69869E-001	9.00813E-009	0.00000E+000	5.70000E-001	8.00223E-005	4	..........a	-327.66
	2787	0.5576	5.59969E-001	8.92413E-009	0.00000E+000	5.60000E-001	8.00223E-005	4	..........a	-327.66
	2788	0.5578	5.49869E-001	8.83213E-009	0.00000E+000	5.50000E-001	8.00223E-005	4	..........a	-327.66
	2789	0.558	5.39970E-001	8.73712E-009	0.00000E+000	5.40000E-001	8.00223E-005	4	..........a	-327.66
	2790	0.5582	5.29920E-001	8.64412E-009	0.00000E+000	5.30000E-001	8.00223E-005	4	..........a	-327.66
	2791	0.5584	5.19769E-001	8.54812E-009	0.00000E+000	5.20000E-001	8.00223E-005	4	..........a	-327.66
	2792	0.5586	5.09769E-001	8.45211E-009	0.00000E+000	5.10000E-001	8.00223E-005	4	..........a	-327.66
	2793	0.5588	4.99670E-001	8.35311E-009	0.00000E+000	5.00000E-001	8.00223E-005	4	..........a	-327.66
	2794	0.559	4.90070E-001	8.25010E-009	0.00000E+000	4.90000E-001	8.00223E-005	4	..........a	-327.66
	2795	0.5592	4.79670E-001	8.14610E-009	0.00000E+000	4.80000E-001	8.00223E-005	4	..........a	-327.66
	2796	0.5594	4.70070E-001	8.04010E-009	0.00000E+000	4.70000E-001	8.00223E-005	4	..........a	-327.66
	2797	0.5596	4.59970E-001	7.93009E-009	0.00000E+000	4.60000E-001	8.00223E-005	4	..........a	-327.66
	2798	0.5598	4.49570E-001	7.82009E-009	0.00000E+000	4.50000E-001	-3.19978E-004	4	..........a	-327.66
	2799	0.56	4.39970E-001	7.71108E-009	0.00000E+000	4.40000E-001	8.00223E-005	4	..........a	-327.66
	2800	0.5602	4.29970E-001	7.59708E-009	0.00000E+000	4.30000E-001	8.00223E-005	4	..........a	-327.66