File: example_project/raw_outputs/20240321_D_GM0016_HL03_E01_CV50k.DTA
EXPLAIN
TAG	CV
TITLE	LABEL	Cyclic Voltammetry	Test &Identifier
DATE	LABEL	3/21/2024	Date
TIME	LABEL	16:26:04	Time
NOTES	NOTES	1	&Notes...

PSTAT	PSTAT	REF600P-43058	Potentiostat
VINIT	POTEN	0.00000E+000	T	Initial &E (V)
VLIMIT1	POTEN	-6.00000E-001	F	Scan Limit &1 (V)
VLIMIT2	POTEN	8.00000E-001	F	Scan Limit &2 (V)
VFINAL	POTEN	0.00000E+000	T	Final &E (V)
SCANRATE	QUANT	4.99999E+004	&Scan Rate (mV/s)
STEPSIZE	QUANT	1.00000E+001	St&ep Size (mV)
CYCLES	IQUANT	6	C&ycles (#)
IMODE	SELECTOR	1	I/E Range &Mode
IRANGE	QUANT	1.00000E-005	&Max Current (mA)
AREA	QUANT	1.00000E+000	Electrode &Area (cm^2)
ELECTRODETYPE	SELECTOR	0	Electrode Type
STRIPPING	TOGGLE	F	Used for Stripping
POLARITY	TOGGLE	F	Signal Polarity
CONDIT	TWOPARAM	F	1.50000E+001	0.00000E+000	Conditionin&g	Time(s)	E(V)
DELAY	TWOPARAM	T	1.00000E+001	0.00000E+000	Init. De&lay	Time(s)	Stab.(mV/s)
EQDELAY	QUANT	1.00000E+001	Equil. &Time (s)
IRCOMP	SELECTOR	0	IRCom&p
PFCOR	QUANT	5.00000E+001	PF Corr. (ohm)
SAMPLINGMODE	SELECTOR	1	Sampling &Mode
OCVCURVE	TABLE	39
	Pt	T	Vf	Vm	Ach	Over	Temp
	#	s	V vs. Ref.	V	V	bits	deg C
	0	0.258333	3.19740E-001	3.19740E-001	2.15489E-004	..........a	-327.66
	1	0.516667	3.19746E-001	3.20076E-001	2.24022E-004	..........a	-327.66
	2	0.775	3.19791E-001	3.20664E-001	2.27756E-004	..........a	-327.66
	3	1.03333	3.19925E-001	3.20772E-001	2.35289E-004	..........a	-327.66
	4	1.29167	3.20164E-001	3.21023E-001	2.24222E-004	..........a	-327.66
	5	1.55	3.20457E-001	3.21345E-001	2.00556E-004	..........a	-327.66
	6	1.80833	3.20749E-001	3.21438E-001	2.07556E-004	..........a	-327.66
	7	2.06667	3.21025E-001	3.22243E-001	2.21022E-004	..........a	-327.66
	8	2.325	3.21318E-001	3.22597E-001	2.20889E-004	..........a	-327.66
	9	2.58333	3.21671E-001	3.22871E-001	2.19356E-004	..........a	-327.66
	10	2.84167	3.22076E-001	3.23322E-001	2.34356E-004	..........a	-327.66
	11	3.1	3.22489E-001	3.23678E-001	2.23756E-004	..........a	-327.66
	12	3.35833	3.22886E-001	3.23995E-001	2.28356E-004	..........a	-327.66
	13	3.61667	3.23263E-001	3.24256E-001	2.17489E-004	..........a	-327.66
	14	3.875	3.23618E-001	3.24670E-001	2.26156E-004	..........a	-327.66
	15	4.13333	3.23955E-001	3.25000E-001	2.20489E-004	..........a	-327.66
	16	4.39167	3.24290E-001	3.25481E-001	2.29889E-004	..........a	-327.66
	17	4.65	3.24640E-001	3.25686E-001	2.24356E-004	..........a	-327.66
	18	4.90833	3.25000E-001	3.25964E-001	2.21956E-004	..........a	-327.66
	19	5.16667	3.25348E-001	3.26397E-001	2.30489E-004	..........a	-327.66
	20	5.425	3.25678E-001	3.26700E-001	2.14422E-004	..........a	-327.66
	21	5.68333	3.26008E-001	3.27211E-001	2.30889E-004	..........a	-327.66
	22	5.94167	3.26356E-001	3.27396E-001	2.20822E-004	..........a	-327.66
	23	6.2	3.26716E-001	3.27752E-001	2.18422E-004	..........a	-327.66
	24	6.45833	3.27070E-001	3.28099E-001	2.26222E-004	..........a	-327.66
	25	6.71667	3.27410E-001	3.28510E-001	2.15889E-004	..........a	-327.66
	26	6.975	3.27748E-001	3.28817E-001	2.41356E-004	..........a	-327.66
	27	7.23333	3.28093E-001	3.29085E-001	2.29022E-004	..........a	-327.66
	28	7.49167	3.28437E-001	3.29485E-001	2.23289E-004	..........a	-327.66
	29	7.75	3.28774E-001	3.29814E-001	2.23222E-004	..........a	-327.66
	30	8.00833	3.29111E-001	3.30336E-001	2.28622E-004	..........a	-327.66
	31	8.26667	3.29463E-001	3.30477E-001	2.30956E-004	..........a	-327.66
	32	8.525	3.29823E-001	3.30796E-001	2.22156E-004	..........a	-327.66
	33	8.78333	3.30171E-001	3.31214E-001	2.29022E-004	..........a	-327.66
	34	9.04167	3.30498E-001	3.31482E-001	2.14689E-004	..........a	-327.66
	35	9.3	3.30824E-001	3.31997E-001	2.33756E-004	..........a	-327.66
	36	9.5583	3.31163E-001	3.32190E-001	2.18622E-004	..........a	-327.66
	37	9.8167	3.31514E-001	3.32518E-001	2.26156E-004	..........a	-327.66
	38	10.075	3.31860E-001	3.32879E-001	2.34556E-004	..........a	-327.66
EOC	QUANT	0.33186	Open Circuit (V)
PSTATMODEL	IQUANT	7	Pstat Model
PSTATSECTION	LABEL	REF600P-43058	Pstat Section
PSTATSERIALNO	LABEL	43058	Pstat Serial Number
CTRLMODE	IQUANT	1	Control Mode
ELECTROMETER	IQUANT	0	RE=0 or CS=1
IESTAB	IQUANT	2	I/E Stability
CASPEED	IQUANT	4	Control Amp Speed
CONVENTION	IQUANT	1	Current Convention
ICHRANGE	IQUANT	2	Ich Range
ICHRANGEMODE	TOGGLE	F	Ich Auto Range
ICHOFFSETENABLE	TOGGLE	F	Ich Offset Enable
ICHOFFSET	QUANT	0	Ich Offset (V)
ICHFILTER	IQUANT	1	Ich Filter
VCHRANGE	IQUANT	2	Vch Range
VCHRANGEMODE	TOGGLE	F	Vch Auto Range
VCHOFFSETENABLE	TOGGLE	F	Vch Offset Enable
VCHOFFSET	QUANT	0	Vch Offset (V)
VCHFILTER	IQUANT	1	Vch Filter
ACHRANGE	IQUANT	2	Ach Range
ACHOFFSETENABLE	TOGGLE	F	Ach Offset Enable
ACHOFFSET	QUANT	0	Ach Offset (V)
ACHFILTER	IQUANT	1	Ach Filter
IERANGELOWERLIMIT	IQUANT	1	I/E Range Lower Limit
IERANGEMODE	TOGGLE	F	I/E AutoRange
IERANGE	IQUANT	4	I/E Range
POSFEEDENABLE	TOGGLE	F	Positive Feedback IR Comp
POSFEEDRESISTANCE	QUANT	0	Positive Feedback Resistance (ohm)
ACHSELECT	IQUANT	4	Ach Select
SENSECABLEID	IQUANT	7	Sense Cable ID
PWRCABLEID	IQUANT	7	Power Cable ID
DCCALDATE	LABEL	12/18/2023	DC Calibration Date
ACCALDATE	LABEL	12/18/2023	AC Calibration Date
THERMOSELECT	IQUANT	1	Thermo Select
FRAMEWORKVERSION	LABEL	7.8.4	Framework Version
INSTRUMENTVERSION	LABEL	4.42	Instrument Version
CURVE1	TABLE
	Pt	T	Vf	Im	Vu	Sig	Ach	IERange	Over	Temp
	#	s	V vs. Ref.	A	V	V	V	#	bits	deg C
	0	0.0002	3.31770E-001	9.78801E-012	0.00000E+000	3.31850E-001	-3.19978E-004	4	..........a	-327.66
	1	0.0004	3.21870E-001	-8.22155E-011	0.00000E+000	3.21850E-001	8.00223E-005	4	..........a	-327.66
	2	0.0006	3.11820E-001	-1.98220E-010	0.00000E+000	3.11850E-001	8.00223E-005	4	..........a	-327.66
	3	0.0008	3.01970E-001	-3.27225E-010	0.00000E+000	3.01850E-001	8.00223E-005	4	..........a	-327.66
	4	0.001	2.91870E-001	-4.73231E-010	0.00000E+000	2.91850E-001	8.00223E-005	4	..........a	-327.66
	5	0.0012	2.81770E-001	-6.17236E-010	0.00000E+000	2.81850E-001	8.00223E-005	4	..........a	-327.66
	6	0.0014	2.71770E-001	-7.72242E-010	0.00000E+000	2.71850E-001	8.00223E-005	4	..........a	-327.66
	7	0.0016	2.61870E-001	-9.38248E-010	0.00000E+000	2.61850E-001	8.00223E-005	4	..........a	-327.66
	8	0.0018	2.51670E-001	-1.10625E-009	0.00000E+000	2.51850E-001	8.00223E-005	4	..........a	-327.66
	9	0.002	2.41770E-001	-1.28026E-009	0.00000E+000	2.41850E-001	8.00223E-005	4	..........a	-327.66
	10	0.0022	2.31670E-001	-1.45927E-009	0.00000E+000	2.31850E-001	8.00223E-005	4	..........a	-327.66
	11	0.0024	2.21970E-001	-1.63628E-009	0.00000E+000	2.21850E-001	8.00223E-005	4	..........a	-327.66
	12	0.0026	2.11970E-001	-1.82828E-009	0.00000E+000	2.11850E-001	8.00223E-005	4	..........a	-327.66
	13	0.0028	2.01870E-001	-2.01529E-009	0.00000E+000	2.01850E-001	8.00223E-005	4	..........a	-327.66
	14	0.003	1.91870E-001	-2.21030E-009	0.00000E+000	1.91850E-001	8.00223E-005	4	..........a	-327.66
	15	0.0032	1.81970E-001	-2.41030E-009	0.00000E+000	1.81850E-001	8.00223E-005	4	..........a	-327.66
	16	0.0034	1.71970E-001	-2.61631E-009	0.00000E+000	1.71850E-001	8.00223E-005	4	..........a	-327.66
	17	0.0036	1.61770E-001	-2.81932E-009	0.00000E+000	1.61850E-001	8.00223E-005	4	..........a	-327.66
	18	0.0038	1.51870E-001	-3.02733E-009	0.00000E+000	1.51850E-001	8.00223E-005	4	..........a	-327.66
	19	0.004	1.41970E-001	-3.24034E-009	0.00000E+000	1.41850E-001	8.00223E-005	4	..........a	-327.66
	20	0.0042	1.31770E-001	-3.45635E-009	0.00000E+000	1.31850E-001	8.00223E-005	4	..........a	-327.66
	21	0.0044	1.21970E-001	-3.67235E-009	0.00000E+000	1.21850E-001	8.00223E-005	4	..........a	-327.66
	22	0.0046	1.11870E-001	-3.89636E-009	0.00000E+000	1.11850E-001	8.00223E-005	4	..........a	-327.66
	23	0.0048	1.01970E-001	-4.12337E-009	0.00000E+000	1.01850E-001	-1.19978E-004	4	..........a	-327.66
	24	0.005	9.16695E-002	-4.35538E-009	0.00000E+000	9.18500E-002	8.00223E-005	4	..........a	-327.66
	25	0.0052	8.18695E-002	-4.58639E-009	0.00000E+000	8.18500E-002	8.00223E-005	4	..........a	-327.66
	26	0.0054	7.17695E-002	-4.82440E-009	0.00000E+000	7.18500E-002	-3.19978E-004	4	..........a	-327.66
	27	0.0056	6.18695E-002	-5.06641E-009	0.00000E+000	6.18500E-002	8.00223E-005	4	..........a	-327.66
	28	0.0058	5.17695E-002	-5.31242E-009	0.00000E+000	5.18500E-002	8.00223E-005	4	..........a	-327.66
	29	0.006	4.19695E-002	-5.56643E-009	0.00000E+000	4.18500E-002	8.00223E-005	4	..........a	-327.66
	30	0.0062	3.17695E-002	-5.82944E-009	0.00000E+000	3.18500E-002	8.00223E-005	4	..........a	-327.66
	31	0.0064	2.19695E-002	-6.09245E-009	0.00000E+000	2.18500E-002	8.00223E-005	4	..........a	-327.66
	32	0.0066	1.19695E-002	-6.37146E-009	0.00000E+000	1.18500E-002	-3.19978E-004	4	..........a	-327.66
	33	0.0068	1.96952E-003	-6.66047E-009	0.00000E+000	1.85000E-003	8.00223E-005	4	..........a	-327.66
	34	0.007	-8.23048E-003	-6.96448E-009	0.00000E+000	-8.15000E-003	8.00223E-005	4	..........a	-327.66
	35	0.0072	-1.79305E-002	-7.29149E-009	0.00000E+000	-1.81500E-002	8.00223E-005	4	..........a	-327.66
	36	0.0074	-2.80305E-002	-7.65851E-009	0.00000E+000	-2.81500E-002	8.00223E-005	4	..........a	-327.66
	37	0.0076	-3.81305E-002	-8.07652E-009	0.00000E+000	-3.81500E-002	8.00223E-005	4	..........a	-327.66
	38	0.0078	-4.79305E-002	-8.55854E-009	0.00000E+000	-4.81500E-002	8.00223E-005	4	..........a	-327.66
	39	0.008	-5.79305E-002	-9.12456E-009	0.00000E+000	-5.81500E-002	8.00223E-005	4	..........a	-327.66
	40	0.0082	-6.81305E-002	-9.75959E-009	0.00000E+000	-6.81500E-002	-1.19978E-004	4	..........a	-327.66
	41	0.0084	-7.80305E-002	-1.04546E-008	0.00000E+000	-7.81500E-002	8.00223E-005	4	..........a	-327.66
	42	0.0086	-8.81305E-002	-1.11586E-008	0.00000E+000	-8.81500E-002	8.00223E-005	4	..........a	-327.66
	43	0.0088	-9.81305E-002	-1.18507E-008	0.00000E+000	-9.81500E-002	8.00223E-005	4	..........a	-327.66
	44	0.009	-1.08130E-001	-1.25037E-008	0.00000E+000	-1.08150E-001	8.00223E-005	4	..........a	-327.66
	45	0.0092	-1.18030E-001	-1.31027E-008	0.00000E+000	-1.18150E-001	8.00223E-005	4	..........a	-327.66
	46	0.0094	-1.28330E-001	-1.36477E-008	0.00000E+000	-1.28150E-001	-3.19978E-004	4	..........a	-327.66
	47	0.0096	-1.38030E-001	-1.41508E-008	0.00000E+000	-1.38150E-001	8.00223E-005	4	..........a	-327.66
	48	0.0098	-1.48030E-001	-1.46028E-008	0.00000E+000	-1.48150E-001	8.00223E-005	4	..........a	-327.66
	49	0.01	-1.58030E-001	-1.50258E-008	0.00000E+000	-1.58150E-001	8.00223E-005	4	..........a	-327.66
	50	0.0102	-1.68030E-001	-1.54178E-008	0.00000E+000	-1.68150E-001	8.00223E-005	4	..........a	-327.66
	51	0.0104	-1.78030E-001	-1.57868E-008	0.00000E+000	-1.78150E-001	8.00223E-005	4	..........a	-327.66
	52	0.0106	-1.87730E-001	-1.61368E-008	0.00000E+000	-1.88150E-001	8.00223E-005	4	..........a	-327.66
	53	0.0108	-1.98130E-001	-1.64698E-008	0.00000E+000	-1.98150E-001	8.00223E-005	4	..........a	-327.66
	54	0.011	-2.07930E-001	-1.67899E-008	0.00000E+000	-2.08150E-001	8.00223E-005	4	..........a	-327.66
	55	0.0112	-2.18130E-001	-1.70969E-008	0.00000E+000	-2.18150E-001	8.00223E-005	4	..........a	-327.66
	56	0.0114	-2.27930E-001	-1.73949E-008	0.00000E+000	-2.28150E-001	8.00223E-005	4	..........a	-327.66
	57	0.0116	-2.38130E-001	-1.76869E-008	0.00000E+000	-2.38150E-001	-3.19978E-004	4	..........a	-327.66
	58	0.0118	-2.47930E-001	-1.79789E-008	0.00000E+000	-2.48150E-001	-3.19978E-004	4	..........a	-327.66
	59	0.012	-2.57930E-001	-1.82599E-008	0.00000E+000	-2.58150E-001	-3.19978E-004	4	..........a	-327.66
	60	0.0122	-2.67830E-001	-1.85479E-008	0.00000E+000	-2.68150E-001	-3.19978E-004	4	..........a	-327.66
	61	0.0124	-2.78030E-001	-1.88319E-008	0.00000E+000	-2.78150E-001	8.00223E-005	4	..........a	-327.66
	62	0.0126	-2.87930E-001	-1.91159E-008	0.00000E+000	-2.88150E-001	8.00223E-005	4	..........a	-327.66
	63	0.0128	-2.97930E-001	-1.94000E-008	0.00000E+000	-2.98150E-001	-3.19978E-004	4	..........a	-327.66
	64	0.013	-3.07830E-001	-1.96870E-008	0.00000E+000	-3.08150E-001	-2.19978E-004	4	..........a	-327.66
	65	0.0132	-3.18130E-001	-1.99830E-008	0.00000E+000	-3.18150E-001	8.00223E-005	4	..........a	-327.66
	66	0.0134	-3.27930E-001	-2.02800E-008	0.00000E+000	-3.28150E-001	8.00223E-005	4	..........a	-327.66
	67	0.0136	-3.37930E-001	-2.05880E-008	0.00000E+000	-3.38150E-001	-3.19978E-004	4	..........a	-327.66
	68	0.0138	-3.47830E-001	-2.09010E-008	0.00000E+000	-3.48150E-001	-3.19978E-004	4	..........a	-327.66
	69	0.014	-3.57930E-001	-2.12200E-008	0.00000E+000	-3.58150E-001	8.00223E-005	4	..........a	-327.66
	70	0.0142	-3.67830E-001	-2.15520E-008	0.00000E+000	-3.68150E-001	8.00223E-005	4	..........a	-327.66
	71	0.0144	-3.77930E-001	-2.18881E-008	0.00000E+000	-3.78150E-001	8.00223E-005	4	..........a	-327.66
	72	0.0146	-3.87830E-001	-2.22341E-008	0.00000E+000	-3.88150E-001	8.00223E-005	4	..........a	-327.66
	73	0.0148	-3.97930E-001	-2.25921E-008	0.00000E+000	-3.98150E-001	8.00223E-005	4	..........a	-327.66
	74	0.015	-4.07930E-001	-2.29651E-008	0.00000E+000	-4.08150E-001	8.00223E-005	4	..........a	-327.66
	75	0.0152	-4.17930E-001	-2.33411E-008	0.00000E+000	-4.18150E-001	-3.19978E-004	4	..........a	-327.66
	76	0.0154	-4.27930E-001	-2.37281E-008	0.00000E+000	-4.28150E-001	8.00223E-005	4	..........a	-327.66
	77	0.0156	-4.37930E-001	-2.41191E-008	0.00000E+000	-4.38150E-001	8.00223E-005	4	..........a	-327.66
	78	0.0158	-4.48030E-001	-2.45292E-008	0.00000E+000	-4.48150E-001	8.00223E-005	4	..........a	-327.66
	79	0.016	-4.57930E-001	-2.49442E-008	0.00000E+000	-4.58150E-001	8.00223E-005	4	..........a	-327.66
	80	0.0162	-4.67930E-001	-2.53672E-008	0.00000E+000	-4.68150E-001	8.00223E-005	4	..........a	-327.66
	81	0.0164	-4.77930E-001	-2.57952E-008	0.00000E+000	-4.78150E-001	8.00223E-005	4	..........a	-327.66
	82	0.0166	-4.88130E-001	-2.62342E-008	0.00000E+000	-4.88150E-001	8.00223E-005	4	..........a	-327.66
	83	0.0168	-4.97930E-001	-2.66802E-008	0.00000E+000	-4.98150E-001	8.00223E-005	4	..........a	-327.66
	84	0.017	-5.07831E-001	-2.71293E-008	0.00000E+000	-5.08150E-001	8.00223E-005	4	..........a	-327.66
	85	0.0172	-5.17931E-001	-2.75883E-008	0.00000E+000	-5.18150E-001	8.00223E-005	4	..........a	-327.66
	86	0.0174	-5.28031E-001	-2.80563E-008	0.00000E+000	-5.28150E-001	-3.19978E-004	4	..........a	-327.66
	87	0.0176	-5.37830E-001	-2.85273E-008	0.00000E+000	-5.38150E-001	8.00223E-005	4	..........a	-327.66
	88	0.0178	-5.47830E-001	-2.90073E-008	0.00000E+000	-5.48150E-001	8.00223E-005	4	..........a	-327.66
	89	0.018	-5.58030E-001	-2.94913E-008	0.00000E+000	-5.58150E-001	8.00223E-005	4	..........a	-327.66
	90	0.0182	-5.67930E-001	-2.99824E-008	0.00000E+000	-5.68150E-001	8.00223E-005	4	..........a	-327.66
	91	0.0184	-5.77830E-001	-3.04714E-008	0.00000E+000	-5.78150E-001	8.00223E-005	4	..........a	-327.66
	92	0.0186	-5.88030E-001	-3.09604E-008	0.00000E+000	-5.88150E-001	8.00223E-005	4	..........a	-327.66
	93	0.0188	-5.97830E-001	-3.14524E-008	0.00000E+000	-5.98150E-001	8.00223E-005	4	..........a	-327.66
	94	0.019	-5.87880E-001	-3.16684E-008	0.00000E+000	-5.88150E-001	8.00223E-005	4	..........a	-327.66
	95	0.0192	-5.77931E-001	-3.17984E-008	0.00000E+000	-5.78150E-001	-1.19978E-004	4	..........a	-327.66
	96	0.0194	-5.67831E-001	-3.18834E-008	0.00000E+000	-5.68150E-001	8.00223E-005	4	..........a	-327.66
	97	0.0196	-5.57930E-001	-3.19284E-008	0.00000E+000	-5.58150E-001	8.00223E-005	4	..........a	-327.66
	98	0.0198	-5.47731E-001	-3.19494E-008	0.00000E+000	-5.48150E-001	8.00223E-005	4	..........a	-327.66
	99	0.02	-5.37930E-001	-3.19434E-008	0.00000E+000	-5.38150E-001	8.00223E-005	4	..........a	-327.66
	100	0.0202	-5.28031E-001	-3.19214E-008	0.00000E+000	-5.28150E-001	8.00223E-005	4	..........a	-327.66
	101	0.0204	-5.17830E-001	-3.18794E-008	0.00000E+000	-5.18150E-001	8.00223E-005	4	..........a	-327.66
	102	0.0206	-5.07931E-001	-3.18244E-008	0.00000E+000	-5.08150E-001	-3.19978E-004	4	..........a	-327.66
	103	0.0208	-4.98030E-001	-3.17584E-008	0.00000E+000	-4.98150E-001	8.00223E-005	4	..........a	-327.66
	104	0.021	-4.87930E-001	-3.16764E-008	0.00000E+000	-4.88150E-001	8.00223E-005	4	..........a	-327.66
	105	0.0212	-4.78030E-001	-3.15814E-008	0.00000E+000	-4.78150E-001	-2.19978E-004	4	..........a	-327.66
	106	0.0214	-4.67730E-001	-3.14814E-008	0.00000E+000	-4.68150E-001	8.00223E-005	4	..........a	-327.66
	107	0.0216	-4.57930E-001	-3.13674E-008	0.00000E+000	-4.58150E-001	8.00223E-005	4	..........a	-327.66
	108	0.0218	-4.47830E-001	-3.12444E-008	0.00000E+000	-4.48150E-001	8.00223E-005	4	..........a	-327.66
	109	0.022	-4.37930E-001	-3.11164E-008	0.00000E+000	-4.38150E-001	8.00223E-005	4	..........a	-327.66
	110	0.0222	-4.27830E-001	-3.09764E-008	0.00000E+000	-4.28150E-001	8.00223E-005	4	..........a	-327.66
	111	0.0224	-4.18030E-001	-3.08274E-008	0.00000E+000	-4.18150E-001	8.00223E-005	4	..........a	-327.66
	112	0.0226	-4.07930E-001	-3.06714E-008	0.00000E+000	-4.08150E-001	8.00223E-005	4	..........a	-327.66
	113	0.0228	-3.97930E-001	-3.05114E-008	0.00000E+000	-3.98150E-001	-4.19978E-004	4	..........a	-327.66
	114	0.023	-3.87730E-001	-3.03384E-008	0.00000E+000	-3.88150E-001	8.00223E-005	4	..........a	-327.66
	115	0.0232	-3.77930E-001	-3.01604E-008	0.00000E+000	-3.78150E-001	8.00223E-005	4	..........a	-327.66
	116	0.0234	-3.67730E-001	-2.99854E-008	0.00000E+000	-3.68150E-001	8.00223E-005	4	..........a	-327.66
	117	0.0236	-3.57930E-001	-2.97954E-008	0.00000E+000	-3.58150E-001	8.00223E-005	4	..........a	-327.66
	118	0.0238	-3.48030E-001	-2.96063E-008	0.00000E+000	-3.48150E-001	8.00223E-005	4	..........a	-327.66
	119	0.024	-3.38130E-001	-2.94083E-008	0.00000E+000	-3.38150E-001	-2.19978E-004	4	..........a	-327.66
	120	0.0242	-3.27830E-001	-2.92043E-008	0.00000E+000	-3.28150E-001	-2.19978E-004	4	..........a	-327.66
	121	0.0244	-3.18130E-001	-2.90003E-008	0.00000E+000	-3.18150E-001	8.00223E-005	4	..........a	-327.66
	122	0.0246	-3.07830E-001	-2.87903E-008	0.00000E+000	-3.08150E-001	-3.19978E-004	4	..........a	-327.66
	123	0.0248	-2.97930E-001	-2.85773E-008	0.00000E+000	-2.98150E-001	8.00223E-005	4	..........a	-327.66
	124	0.025	-2.87930E-001	-2.83573E-008	0.00000E+000	-2.88150E-001	8.00223E-005	4	..........a	-327.66
	125	0.0252	-2.78030E-001	-2.81423E-008	0.00000E+000	-2.78150E-001	8.00223E-005	4	..........a	-327.66
	126	0.0254	-2.67780E-001	-2.79233E-008	0.00000E+000	-2.68150E-001	8.00223E-005	4	..........a	-327.66
	127	0.0256	-2.57930E-001	-2.76923E-008	0.00000E+000	-2.58150E-001	8.00223E-005	4	..........a	-327.66
	128	0.0258	-2.47930E-001	-2.74633E-008	0.00000E+000	-2.48150E-001	8.00223E-005	4	..........a	-327.66
	129	0.026	-2.37930E-001	-2.72353E-008	0.00000E+000	-2.38150E-001	8.00223E-005	4	..........a	-327.66
	130	0.0262	-2.27930E-001	-2.70012E-008	0.00000E+000	-2.28150E-001	8.00223E-005	4	..........a	-327.66
	131	0.0264	-2.18030E-001	-2.67672E-008	0.00000E+000	-2.18150E-001	8.00223E-005	4	..........a	-327.66
	132	0.0266	-2.07930E-001	-2.65312E-008	0.00000E+000	-2.08150E-001	8.00223E-005	4	..........a	-327.66
	133	0.0268	-1.97930E-001	-2.62892E-008	0.00000E+000	-1.98150E-001	8.00223E-005	4	..........a	-327.66
	134	0.027	-1.88130E-001	-2.60522E-008	0.00000E+000	-1.88150E-001	8.00223E-005	4	..........a	-327.66
	135	0.0272	-1.77930E-001	-2.58092E-008	0.00000E+000	-1.78150E-001	8.00223E-005	4	..........a	-327.66
	136	0.0274	-1.68030E-001	-2.55632E-008	0.00000E+000	-1.68150E-001	8.00223E-005	4	..........a	-327.66
	137	0.0276	-1.58030E-001	-2.53242E-008	0.00000E+000	-1.58150E-001	8.00223E-005	4	..........a	-327.66
	138	0.0278	-1.47930E-001	-2.50792E-008	0.00000E+000	-1.48150E-001	8.00223E-005	4	..........a	-327.66
	139	0.028	-1.38030E-001	-2.48312E-008	0.00000E+000	-1.38150E-001	8.00223E-005	4	..........a	-327.66
	140	0.0282	-1.28030E-001	-2.45812E-008	0.00000E+000	-1.28150E-001	8.00223E-005	4	..........a	-327.66
	141	0.0284	-1.18130E-001	-2.43351E-008	0.00000E+000	-1.18150E-001	8.00223E-005	4	..........a	-327.66
	142	0.0286	-1.08030E-001	-2.40811E-008	0.00000E+000	-1.08150E-001	8.00223E-005	4	..........a	-327.66
	143	0.0288	-9.80305E-002	-2.38291E-008	0.00000E+000	-9.81500E-002	8.00223E-005	4	..........a	-327.66
	144	0.029	-8.80305E-002	-2.35701E-008	0.00000E+000	-8.81500E-002	8.00223E-005	4	..........a	-327.66
	145	0.0292	-7.81305E-002	-2.33111E-008	0.00000E+000	-7.81500E-002	8.00223E-005	4	..........a	-327.66
	146	0.0294	-6.79305E-002	-2.30471E-008	0.00000E+000	-6.81500E-002	8.00223E-005	4	..........a	-327.66
	147	0.0296	-5.80305E-002	-2.27871E-008	0.00000E+000	-5.81500E-002	8.00223E-005	4	..........a	-327.66
	148	0.0298	-4.80305E-002	-2.25231E-008	0.00000E+000	-4.81500E-002	8.00223E-005	4	..........a	-327.66
	149	0.03	-3.79305E-002	-2.22561E-008	0.00000E+000	-3.81500E-002	8.00223E-005	4	..........a	-327.66
	150	0.0302	-2.80305E-002	-2.19801E-008	0.00000E+000	-2.81500E-002	8.00223E-005	4	..........a	-327.66
	151	0.0304	-1.81305E-002	-2.17090E-008	0.00000E+000	-1.81500E-002	8.00223E-005	4	..........a	-327.66
	152	0.0306	-7.93048E-003	-2.14330E-008	0.00000E+000	-8.15000E-003	8.00223E-005	4	..........a	-327.66
	153	0.0308	2.06952E-003	-2.11490E-008	0.00000E+000	1.85000E-003	8.00223E-005	4	..........a	-327.66
	154	0.031	1.20695E-002	-2.08630E-008	0.00000E+000	1.18500E-002	8.00223E-005	4	..........a	-327.66
	155	0.0312	2.19695E-002	-2.05750E-008	0.00000E+000	2.18500E-002	8.00223E-005	4	..........a	-327.66
	156	0.0314	3.19695E-002	-2.02750E-008	0.00000E+000	3.18500E-002	-2.19978E-004	4	..........a	-327.66
	157	0.0316	4.20695E-002	-1.99670E-008	0.00000E+000	4.18500E-002	8.00223E-005	4	..........a	-327.66
	158	0.0318	5.16695E-002	-1.96540E-008	0.00000E+000	5.18500E-002	8.00223E-005	4	..........a	-327.66
	159	0.032	6.20695E-002	-1.93440E-008	0.00000E+000	6.18500E-002	8.00223E-005	4	..........a	-327.66
	160	0.0322	7.17695E-002	-1.90169E-008	0.00000E+000	7.18500E-002	8.00223E-005	4	..........a	-327.66
	161	0.0324	8.19195E-002	-1.86859E-008	0.00000E+000	8.18500E-002	8.00223E-005	4	..........a	-327.66
	162	0.0326	9.16695E-002	-1.83439E-008	0.00000E+000	9.18500E-002	8.00223E-005	4	..........a	-327.66
	163	0.0328	1.01970E-001	-1.79929E-008	0.00000E+000	1.01850E-001	8.00223E-005	4	..........a	-327.66
	164	0.033	1.11970E-001	-1.76289E-008	0.00000E+000	1.11850E-001	8.00223E-005	4	..........a	-327.66
	165	0.0332	1.21970E-001	-1.72579E-008	0.00000E+000	1.21850E-001	8.00223E-005	4	..........a	-327.66
	166	0.0334	1.32070E-001	-1.68709E-008	0.00000E+000	1.31850E-001	8.00223E-005	4	..........a	-327.66
	167	0.0336	1.41970E-001	-1.64768E-008	0.00000E+000	1.41850E-001	8.00223E-005	4	..........a	-327.66
	168	0.0338	1.51970E-001	-1.60688E-008	0.00000E+000	1.51850E-001	8.00223E-005	4	..........a	-327.66
	169	0.034	1.61870E-001	-1.56498E-008	0.00000E+000	1.61850E-001	8.00223E-005	4	..........a	-327.66
	170	0.0342	1.72170E-001	-1.52148E-008	0.00000E+000	1.71850E-001	8.00223E-005	4	..........a	-327.66
	171	0.0344	1.81970E-001	-1.47678E-008	0.00000E+000	1.81850E-001	8.00223E-005	4	..........a	-327.66
	172	0.0346	1.91870E-001	-1.43078E-008	0.00000E+000	1.91850E-001	8.00223E-005	4	..........a	-327.66
	173	0.0348	2.01820E-001	-1.38357E-008	0.00000E+000	2.01850E-001	-5.19978E-004	4	..........a	-327.66
	174	0.035	2.11670E-001	-1.33457E-008	0.00000E+000	2.11850E-001	8.00223E-005	4	..........a	-327.66
	175	0.0352	2.21870E-001	-1.28387E-008	0.00000E+000	2.21850E-001	8.00223E-005	4	..........a	-327.66
	176	0.0354	2.31670E-001	-1.23207E-008	0.00000E+000	2.31850E-001	-4.19978E-004	4	..........a	-327.66
	177	0.0356	2.41970E-001	-1.17757E-008	0.00000E+000	2.41850E-001	8.00223E-005	4	..........a	-327.66
	178	0.0358	2.51870E-001	-1.12146E-008	0.00000E+000	2.51850E-001	8.00223E-005	4	..........a	-327.66
	179	0.036	2.61870E-001	-1.06386E-008	0.00000E+000	2.61850E-001	8.00223E-005	4	..........a	-327.66
	180	0.0362	2.71770E-001	-1.00366E-008	0.00000E+000	2.71850E-001	8.00223E-005	4	..........a	-327.66
	181	0.0364	2.81870E-001	-9.41857E-009	0.00000E+000	2.81850E-001	8.00223E-005	4	..........a	-327.66
	182	0.0366	2.91870E-001	-8.77855E-009	0.00000E+000	2.91850E-001	8.00223E-005	4	..........a	-327.66
	183	0.0368	3.01870E-001	-8.12252E-009	0.00000E+000	3.01850E-001	8.00223E-005	4	..........a	-327.66
	184	0.037	3.11870E-001	-7.45550E-009	0.00000E+000	3.11850E-001	8.00223E-005	4	..........a	-327.66
	185	0.0372	3.22070E-001	-6.76647E-009	0.00000E+000	3.21850E-001	8.00223E-005	4	..........a	-327.66
	186	0.0374	3.31670E-001	-6.07445E-009	0.00000E+000	3.31850E-001	8.00223E-005	4	..........a	-327.66
	187	0.0376	3.41870E-001	-5.37442E-009	0.00000E+000	3.41850E-001	8.00223E-005	4	..........a	-327.66
	188	0.0378	3.51670E-001	-4.67639E-009	0.00000E+000	3.51850E-001	8.00223E-005	4	..........a	-327.66
	189	0.038	3.61770E-001	-3.98037E-009	0.00000E+000	3.61850E-001	8.00223E-005	4	..........a	-327.66
	190	0.0382	3.71970E-001	-3.30034E-009	0.00000E+000	3.71850E-001	8.00223E-005	4	..........a	-327.66
	191	0.0384	3.81870E-001	-2.63031E-009	0.00000E+000	3.81850E-001	8.00223E-005	4	..........a	-327.66
	192	0.0386	3.91970E-001	-1.98329E-009	0.00000E+000	3.91850E-001	8.00223E-005	4	..........a	-327.66
	193	0.0388	4.01870E-001	-1.35426E-009	0.00000E+000	4.01850E-001	8.00223E-005	4	..........a	-327.66
	194	0.039	4.11770E-001	-7.49241E-010	0.00000E+000	4.11850E-001	8.00223E-005	4	..........a	-327.66
	195	0.0392	4.21670E-001	-1.59218E-010	0.00000E+000	4.21850E-001	8.00223E-005	4	..........a	-327.66
	196	0.0394	4.31770E-001	4.14804E-010	0.00000E+000	4.31850E-001	-2.19978E-004	4	..........a	-327.66
	197	0.0396	4.41770E-001	9.64825E-010	0.00000E+000	4.41850E-001	8.00223E-005	4	..........a	-327.66
	198	0.0398	4.51970E-001	1.50185E-009	0.00000E+000	4.51850E-001	8.00223E-005	4	..........a	-327.66
	199	0.04	4.61770E-001	2.02187E-009	0.00000E+000	4.61850E-001	8.00223E-005	4	..........a	-327.66
	200	0.0402	4.71770E-001	2.52588E-009	0.00000E+000	4.71850E-001	8.00223E-005	4	..........a	-327.66
	201	0.0404	4.81770E-001	3.02390E-009	0.00000E+000	4.81850E-001	8.00223E-005	4	..........a	-327.66
	202	0.0406	4.91770E-001	3.50992E-009	0.00000E+000	4.91850E-001	8.00223E-005	4	..........a	-327.66
	203	0.0408	5.01769E-001	3.97794E-009	0.00000E+000	5.01850E-001	8.00223E-005	4	..........a	-327.66
	204	0.041	5.11669E-001	4.44796E-009	0.00000E+000	5.11850E-001	-3.19978E-004	4	..........a	-327.66
	205	0.0412	5.21769E-001	4.90898E-009	0.00000E+000	5.21850E-001	8.00223E-005	4	..........a	-327.66
	206	0.0414	5.31519E-001	5.35999E-009	0.00000E+000	5.31850E-001	8.00223E-005	4	..........a	-327.66
	207	0.0416	5.41869E-001	5.80201E-009	0.00000E+000	5.41850E-001	8.00223E-005	4	..........a	-327.66
	208	0.0418	5.51969E-001	6.24803E-009	0.00000E+000	5.51850E-001	8.00223E-005	4	..........a	-327.66
	209	0.042	5.61769E-001	6.68404E-009	0.00000E+000	5.61850E-001	8.00223E-005	4	..........a	-327.66
	210	0.0422	5.71769E-001	7.11606E-009	0.00000E+000	5.71850E-001	8.00223E-005	4	..........a	-327.66
	211	0.0424	5.81869E-001	7.54608E-009	0.00000E+000	5.81850E-001	8.00223E-005	4	..........a	-327.66
	212	0.0426	5.91669E-001	7.97209E-009	0.00000E+000	5.91850E-001	8.00223E-005	4	..........a	-327.66
	213	0.0428	6.01869E-001	8.39411E-009	0.00000E+000	6.01850E-001	8.00223E-005	4	..........a	-327.66
	214	0.043	6.11669E-001	8.81213E-009	0.00000E+000	6.11850E-001	8.00223E-005	4	..........a	-327.66
	215	0.0432	6.21669E-001	9.22614E-009	0.00000E+000	6.21850E-001	8.00223E-005	4	..........a	-327.66
	216	0.0434	6.31669E-001	9.63516E-009	0.00000E+000	6.31850E-001	8.00223E-005	4	..........a	-327.66
	217	0.0436	6.41670E-001	1.00372E-008	0.00000E+000	6.41850E-001	8.00223E-005	4	..........a	-327.66
	218	0.0438	6.51670E-001	1.04412E-008	0.00000E+000	6.51850E-001	8.00223E-005	4	..........a	-327.66
	219	0.044	6.61869E-001	1.08342E-008	0.00000E+000	6.61850E-001	-2.19978E-004	4	..........a	-327.66
	220	0.0442	6.71569E-001	1.12252E-008	0.00000E+000	6.71850E-001	8.00223E-005	4	..........a	-327.66
	221	0.0444	6.81719E-001	1.16062E-008	0.00000E+000	6.81850E-001	8.00223E-005	4	..........a	-327.66
	222	0.0446	6.91669E-001	1.19802E-008	0.00000E+000	6.91850E-001	8.00223E-005	4	..........a	-327.66
	223	0.0448	7.01769E-001	1.23503E-008	0.00000E+000	7.01850E-001	8.00223E-005	4	..........a	-327.66
	224	0.045	7.11670E-001	1.27213E-008	0.00000E+000	7.11850E-001	8.00223E-005	4	..........a	-327.66
	225	0.0452	7.21769E-001	1.30773E-008	0.00000E+000	7.21850E-001	8.00223E-005	4	..........a	-327.66
	226	0.0454	7.31269E-001	1.34233E-008	0.00000E+000	7.31850E-001	8.00223E-005	4	..........a	-327.66
	227	0.0456	7.41669E-001	1.37683E-008	0.00000E+000	7.41850E-001	8.00223E-005	4	..........a	-327.66
	228	0.0458	7.51669E-001	1.41053E-008	0.00000E+000	7.51850E-001	8.00223E-005	4	..........a	-327.66
	229	0.046	7.61769E-001	1.44403E-008	0.00000E+000	7.61850E-001	8.00223E-005	4	..........a	-327.66
	230	0.0462	7.71670E-001	1.47694E-008	0.00000E+000	7.71850E-001	8.00223E-005	4	..........a	-327.66
	231	0.0464	7.81769E-001	1.50974E-008	0.00000E+000	7.81850E-001	8.00223E-005	4	..........a	-327.66
	232	0.0466	7.91669E-001	1.54194E-008	0.00000E+000	7.91850E-001	8.00223E-005	4	..........a	-327.66
	233	0.0468	8.01470E-001	1.57324E-008	0.00000E+000	8.01850E-001	8.00223E-005	4	..........a	-327.66
CURVE2	TABLE
	Pt	T	Vf	Im	Vu	Sig	Ach	IERange	Over	Temp
	#	s	V vs. Ref.	A	V	V	V	#	bits	deg C
	234	0.047	7.89970E-001	1.58324E-008	0.00000E+000	7.90000E-001	-3.19978E-004	4	..........a	-327.66
	235	0.0472	7.79669E-001	1.58764E-008	0.00000E+000	7.80000E-001	8.00223E-005	4	..........a	-327.66
	236	0.0474	7.69870E-001	1.58824E-008	0.00000E+000	7.70000E-001	-4.19978E-004	4	..........a	-327.66
	237	0.0476	7.59969E-001	1.58504E-008	0.00000E+000	7.60000E-001	8.00223E-005	4	..........a	-327.66
	238	0.0478	7.49869E-001	1.57904E-008	0.00000E+000	7.50000E-001	8.00223E-005	4	..........a	-327.66
	239	0.048	7.39869E-001	1.57104E-008	0.00000E+000	7.40000E-001	8.00223E-005	4	..........a	-327.66
	240	0.0482	7.29669E-001	1.56114E-008	0.00000E+000	7.30000E-001	8.00223E-005	4	..........a	-327.66
	241	0.0484	7.20069E-001	1.54964E-008	0.00000E+000	7.20000E-001	8.00223E-005	4	..........a	-327.66
	242	0.0486	7.09870E-001	1.53604E-008	0.00000E+000	7.10000E-001	-2.19978E-004	4	..........a	-327.66
	243	0.0488	6.99769E-001	1.52144E-008	0.00000E+000	7.00000E-001	8.00223E-005	4	..........a	-327.66
	244	0.049	6.89869E-001	1.50494E-008	0.00000E+000	6.90000E-001	8.00223E-005	4	..........a	-327.66
	245	0.0492	6.79969E-001	1.48724E-008	0.00000E+000	6.80000E-001	-1.19978E-004	4	..........a	-327.66
	246	0.0494	6.69969E-001	1.46824E-008	0.00000E+000	6.70000E-001	8.00223E-005	4	..........a	-327.66
	247	0.0496	6.59769E-001	1.44803E-008	0.00000E+000	6.60000E-001	8.00223E-005	4	..........a	-327.66
	248	0.0498	6.49870E-001	1.42583E-008	0.00000E+000	6.50000E-001	8.00223E-005	4	..........a	-327.66
	249	0.05	6.39870E-001	1.40263E-008	0.00000E+000	6.40000E-001	-2.19978E-004	4	..........a	-327.66
	250	0.0502	6.30069E-001	1.37783E-008	0.00000E+000	6.30000E-001	8.00223E-005	4	..........a	-327.66
	251	0.0504	6.19669E-001	1.35153E-008	0.00000E+000	6.20000E-001	8.00223E-005	4	..........a	-327.66
	252	0.0506	6.09969E-001	1.32433E-008	0.00000E+000	6.10000E-001	8.00223E-005	4	..........a	-327.66
	253	0.0508	5.99769E-001	1.29543E-008	0.00000E+000	6.00000E-001	8.00223E-005	4	..........a	-327.66
	254	0.051	5.89969E-001	1.26493E-008	0.00000E+000	5.90000E-001	8.00223E-005	4	..........a	-327.66
	255	0.0512	5.79669E-001	1.23263E-008	0.00000E+000	5.80000E-001	8.00223E-005	4	..........a	-327.66
	256	0.0514	5.69869E-001	1.19912E-008	0.00000E+000	5.70000E-001	8.00223E-005	4	..........a	-327.66
	257	0.0516	5.59869E-001	1.16422E-008	0.00000E+000	5.60000E-001	8.00223E-005	4	..........a	-327.66
	258	0.0518	5.49969E-001	1.12722E-008	0.00000E+000	5.50000E-001	8.00223E-005	4	..........a	-327.66
	259	0.052	5.39769E-001	1.08902E-008	0.00000E+000	5.40000E-001	8.00223E-005	4	..........a	-327.66
	260	0.0522	5.29669E-001	1.04912E-008	0.00000E+000	5.30000E-001	8.00223E-005	4	..........a	-327.66
	261	0.0524	5.19870E-001	1.00812E-008	0.00000E+000	5.20000E-001	8.00223E-005	4	..........a	-327.66
	262	0.0526	5.09870E-001	9.65716E-009	0.00000E+000	5.10000E-001	8.00223E-005	4	..........a	-327.66
	263	0.0528	5.00170E-001	9.21614E-009	0.00000E+000	5.00000E-001	8.00223E-005	4	..........a	-327.66
	264	0.053	4.89970E-001	8.76412E-009	0.00000E+000	4.90000E-001	8.00223E-005	4	..........a	-327.66
	265	0.0532	4.80170E-001	8.30111E-009	0.00000E+000	4.80000E-001	8.00223E-005	4	..........a	-327.66
	266	0.0534	4.69870E-001	7.82409E-009	0.00000E+000	4.70000E-001	8.00223E-005	4	..........a	-327.66
	267	0.0536	4.59770E-001	7.33907E-009	0.00000E+000	4.60000E-001	8.00223E-005	4	..........a	-327.66
	268	0.0538	4.49670E-001	6.83205E-009	0.00000E+000	4.50000E-001	8.00223E-005	4	..........a	-327.66
	269	0.054	4.39870E-001	6.32503E-009	0.00000E+000	4.40000E-001	8.00223E-005	4	..........a	-327.66
	270	0.0542	4.30170E-001	5.80501E-009	0.00000E+000	4.30000E-001	8.00223E-005	4	..........a	-327.66
	271	0.0544	4.20070E-001	5.27699E-009	0.00000E+000	4.20000E-001	8.00223E-005	4	..........a	-327.66
	272	0.0546	4.09720E-001	4.73897E-009	0.00000E+000	4.10000E-001	8.00223E-005	4	..........a	-327.66
	273	0.0548	3.99870E-001	4.19895E-009	0.00000E+000	4.00000E-001	8.00223E-005	4	..........a	-327.66
	274	0.055	3.90070E-001	3.65593E-009	0.00000E+000	3.90000E-001	8.00223E-005	4	..........a	-327.66
	275	0.0552	3.79920E-001	3.11091E-009	0.00000E+000	3.80000E-001	8.00223E-005	4	..........a	-327.66
	276	0.0554	3.69870E-001	2.56389E-009	0.00000E+000	3.70000E-001	8.00223E-005	4	..........a	-327.66
	277	0.0556	3.60070E-001	2.02487E-009	0.00000E+000	3.60000E-001	8.00223E-005	4	..........a	-327.66
	278	0.0558	3.50070E-001	1.48284E-009	0.00000E+000	3.50000E-001	8.00223E-005	4	..........a	-327.66
	279	0.056	3.40170E-001	9.53824E-010	0.00000E+000	3.40000E-001	8.00223E-005	4	..........a	-327.66
	280	0.0562	3.29870E-001	4.23804E-010	0.00000E+000	3.30000E-001	8.00223E-005	4	..........a	-327.66
	281	0.0564	3.20070E-001	-9.52160E-011	0.00000E+000	3.20000E-001	8.00223E-005	4	..........a	-327.66
	282	0.0566	3.10070E-001	-6.14236E-010	0.00000E+000	3.10000E-001	-3.19978E-004	4	..........a	-327.66
	283	0.0568	2.99870E-001	-1.12226E-009	0.00000E+000	3.00000E-001	8.00223E-005	4	..........a	-327.66
	284	0.057	2.90070E-001	-1.61927E-009	0.00000E+000	2.90000E-001	8.00223E-005	4	..........a	-327.66
	285	0.0572	2.80070E-001	-2.11129E-009	0.00000E+000	2.80000E-001	8.00223E-005	4	..........a	-327.66
	286	0.0574	2.70070E-001	-2.59631E-009	0.00000E+000	2.70000E-001	8.00223E-005	4	..........a	-327.66
	287	0.0576	2.60170E-001	-3.06633E-009	0.00000E+000	2.60000E-001	8.00223E-005	4	..........a	-327.66
	288	0.0578	2.50070E-001	-3.53235E-009	0.00000E+000	2.50000E-001	8.00223E-005	4	..........a	-327.66
	289	0.058	2.39970E-001	-3.98137E-009	0.00000E+000	2.40000E-001	8.00223E-005	4	..........a	-327.66
	290	0.0582	2.29970E-001	-4.42638E-009	0.00000E+000	2.30000E-001	8.00223E-005	4	..........a	-327.66
	291	0.0584	2.20270E-001	-4.85840E-009	0.00000E+000	2.20000E-001	8.00223E-005	4	..........a	-327.66
	292	0.0586	2.10070E-001	-5.27342E-009	0.00000E+000	2.10000E-001	8.00223E-005	4	..........a	-327.66
	293	0.0588	1.99970E-001	-5.67843E-009	0.00000E+000	2.00000E-001	8.00223E-005	4	..........a	-327.66
	294	0.059	1.90070E-001	-6.07945E-009	0.00000E+000	1.90000E-001	8.00223E-005	4	..........a	-327.66
	295	0.0592	1.80170E-001	-6.46646E-009	0.00000E+000	1.80000E-001	-3.19978E-004	4	..........a	-327.66
	296	0.0594	1.69970E-001	-6.83848E-009	0.00000E+000	1.70000E-001	-2.19978E-004	4	..........a	-327.66
	297	0.0596	1.60070E-001	-7.20249E-009	0.00000E+000	1.60000E-001	8.00223E-005	4	..........a	-327.66
	298	0.0598	1.50070E-001	-7.55550E-009	0.00000E+000	1.50000E-001	8.00223E-005	4	..........a	-327.66
	299	0.06	1.40270E-001	-7.89752E-009	0.00000E+000	1.40000E-001	8.00223E-005	4	..........a	-327.66
	300	0.0602	1.30070E-001	-8.23453E-009	0.00000E+000	1.30000E-001	8.00223E-005	4	..........a	-327.66
	301	0.0604	1.20170E-001	-8.56154E-009	0.00000E+000	1.20000E-001	-3.19978E-004	4	..........a	-327.66
	302	0.0606	1.10170E-001	-8.87855E-009	0.00000E+000	1.10000E-001	8.00223E-005	4	..........a	-327.66
	303	0.0608	1.00170E-001	-9.18256E-009	0.00000E+000	1.00000E-001	8.00223E-005	4	..........a	-327.66
	304	0.061	9.00695E-002	-9.49058E-009	0.00000E+000	9.00000E-002	8.00223E-005	4	..........a	-327.66
	305	0.0612	7.99695E-002	-9.79259E-009	0.00000E+000	8.00000E-002	8.00223E-005	4	..........a	-327.66
	306	0.0614	7.00695E-002	-1.00846E-008	0.00000E+000	7.00000E-002	8.00223E-005	4	..........a	-327.66
	307	0.0616	5.99695E-002	-1.03726E-008	0.00000E+000	6.00000E-002	8.00223E-005	4	..........a	-327.66
	308	0.0618	4.99695E-002	-1.06546E-008	0.00000E+000	5.00000E-002	8.00223E-005	4	..........a	-327.66
	309	0.062	3.96695E-002	-1.09336E-008	0.00000E+000	4.00000E-002	8.00223E-005	4	..........a	-327.66
	310	0.0622	3.00695E-002	-1.12116E-008	0.00000E+000	3.00000E-002	8.00223E-005	4	..........a	-327.66
	311	0.0624	2.02195E-002	-1.14817E-008	0.00000E+000	2.00000E-002	8.00223E-005	4	..........a	-327.66
	312	0.0626	1.00695E-002	-1.17507E-008	0.00000E+000	1.00000E-002	8.00223E-005	4	..........a	-327.66
	313	0.0628	6.95192E-005	-1.20237E-008	0.00000E+000	7.45058E-009	8.00223E-005	4	..........a	-327.66
	314	0.063	-9.93048E-003	-1.22947E-008	0.00000E+000	-1.00000E-002	8.00223E-005	4	..........a	-327.66
	315	0.0632	-1.98305E-002	-1.25707E-008	0.00000E+000	-2.00000E-002	8.00223E-005	4	..........a	-327.66
	316	0.0634	-2.99305E-002	-1.28427E-008	0.00000E+000	-3.00000E-002	8.00223E-005	4	..........a	-327.66
	317	0.0636	-3.99305E-002	-1.31287E-008	0.00000E+000	-4.00000E-002	8.00223E-005	4	..........a	-327.66
	318	0.0638	-4.99305E-002	-1.34037E-008	0.00000E+000	-5.00000E-002	-3.19978E-004	4	..........a	-327.66
	319	0.064	-5.98305E-002	-1.36967E-008	0.00000E+000	-6.00000E-002	8.00223E-005	4	..........a	-327.66
	320	0.0642	-6.98305E-002	-1.39938E-008	0.00000E+000	-7.00000E-002	8.00223E-005	4	..........a	-327.66
	321	0.0644	-7.99305E-002	-1.42948E-008	0.00000E+000	-8.00000E-002	-1.19978E-004	4	..........a	-327.66
	322	0.0646	-8.99305E-002	-1.46068E-008	0.00000E+000	-9.00000E-002	8.00223E-005	4	..........a	-327.66
	323	0.0648	-9.95305E-002	-1.49128E-008	0.00000E+000	-1.00000E-001	8.00223E-005	4	..........a	-327.66
	324	0.065	-1.09930E-001	-1.52208E-008	0.00000E+000	-1.10000E-001	8.00223E-005	4	..........a	-327.66
	325	0.0652	-1.19830E-001	-1.55238E-008	0.00000E+000	-1.20000E-001	8.00223E-005	4	..........a	-327.66
	326	0.0654	-1.29930E-001	-1.58238E-008	0.00000E+000	-1.30000E-001	8.00223E-005	4	..........a	-327.66
	327	0.0656	-1.39780E-001	-1.61148E-008	0.00000E+000	-1.40000E-001	8.00223E-005	4	..........a	-327.66
	328	0.0658	-1.49930E-001	-1.63988E-008	0.00000E+000	-1.50000E-001	8.00223E-005	4	..........a	-327.66
	329	0.066	-1.59830E-001	-1.66769E-008	0.00000E+000	-1.60000E-001	8.00223E-005	4	..........a	-327.66
	330	0.0662	-1.69930E-001	-1.69409E-008	0.00000E+000	-1.70000E-001	8.00223E-005	4	..........a	-327.66
	331	0.0664	-1.79830E-001	-1.71979E-008	0.00000E+000	-1.80000E-001	8.00223E-005	4	..........a	-327.66
	332	0.0666	-1.90030E-001	-1.74549E-008	0.00000E+000	-1.90000E-001	8.00223E-005	4	..........a	-327.66
	333	0.0668	-1.99930E-001	-1.77049E-008	0.00000E+000	-2.00000E-001	8.00223E-005	4	..........a	-327.66
	334	0.067	-2.09830E-001	-1.79509E-008	0.00000E+000	-2.10000E-001	8.00223E-005	4	..........a	-327.66
	335	0.0672	-2.19830E-001	-1.81949E-008	0.00000E+000	-2.20000E-001	8.00223E-005	4	..........a	-327.66
	336	0.0674	-2.29730E-001	-1.84309E-008	0.00000E+000	-2.30000E-001	8.00223E-005	4	..........a	-327.66
	337	0.0676	-2.39830E-001	-1.86729E-008	0.00000E+000	-2.40000E-001	8.00223E-005	4	..........a	-327.66
	338	0.0678	-2.49930E-001	-1.89119E-008	0.00000E+000	-2.50000E-001	8.00223E-005	4	..........a	-327.66
	339	0.068	-2.59730E-001	-1.91489E-008	0.00000E+000	-2.60000E-001	8.00223E-005	4	..........a	-327.66
	340	0.0682	-2.69930E-001	-1.93890E-008	0.00000E+000	-2.70000E-001	8.00223E-005	4	..........a	-327.66
	341	0.0684	-2.79830E-001	-1.96300E-008	0.00000E+000	-2.80000E-001	8.00223E-005	4	..........a	-327.66
	342	0.0686	-2.89830E-001	-1.98700E-008	0.00000E+000	-2.90000E-001	8.00223E-005	4	..........a	-327.66
	343	0.0688	-2.99930E-001	-2.01170E-008	0.00000E+000	-3.00000E-001	8.00223E-005	4	..........a	-327.66
	344	0.069	-3.09930E-001	-2.03620E-008	0.00000E+000	-3.10000E-001	8.00223E-005	4	..........a	-327.66
[...]
	1485	0.2972	-5.19830E-001	-2.40611E-008	0.00000E+000	-5.20000E-001	8.00223E-005	4	..........a	-327.66
	1486	0.2974	-5.29930E-001	-2.44322E-008	0.00000E+000	-5.30000E-001	8.00223E-005	4	..........a	-327.66
	1487	0.2976	-5.39780E-001	-2.48182E-008	0.00000E+000	-5.40000E-001	8.00223E-005	4	..........a	-327.66
	1488	0.2978	-5.49931E-001	-2.52052E-008	0.00000E+000	-5.50000E-001	8.00223E-005	4	..........a	-327.66
	1489	0.298	-5.59730E-001	-2.55872E-008	0.00000E+000	-5.60000E-001	8.00223E-005	4	..........a	-327.66
	1490	0.2982	-5.69930E-001	-2.59712E-008	0.00000E+000	-5.70000E-001	-1.19978E-004	4	..........a	-327.66
	1491	0.2984	-5.79830E-001	-2.63482E-008	0.00000E+000	-5.80000E-001	8.00223E-005	4	..........a	-327.66
	1492	0.2986	-5.89830E-001	-2.67252E-008	0.00000E+000	-5.90000E-001	-3.19978E-004	4	..........a	-327.66
	1493	0.2988	-5.99930E-001	-2.70933E-008	0.00000E+000	-6.00000E-001	8.00223E-005	4	..........a	-327.66
	1494	0.299	-5.89930E-001	-2.72203E-008	0.00000E+000	-5.90000E-001	8.00223E-005	4	..........a	-327.66
	1495	0.2992	-5.79731E-001	-2.72763E-008	0.00000E+000	-5.80000E-001	-2.19978E-004	4	..........a	-327.66
	1496	0.2994	-5.69730E-001	-2.72993E-008	0.00000E+000	-5.70000E-001	8.00223E-005	4	..........a	-327.66
	1497	0.2996	-5.59931E-001	-2.72943E-008	0.00000E+000	-5.60000E-001	-2.19978E-004	4	..........a	-327.66
	1498	0.2998	-5.49630E-001	-2.72693E-008	0.00000E+000	-5.50000E-001	8.00223E-005	4	..........a	-327.66
	1499	0.3	-5.39531E-001	-2.72203E-008	0.00000E+000	-5.40000E-001	8.00223E-005	4	..........a	-327.66
	1500	0.3002	-5.29730E-001	-2.71633E-008	0.00000E+000	-5.30000E-001	8.00223E-005	4	..........a	-327.66
	1501	0.3004	-5.19731E-001	-2.70893E-008	0.00000E+000	-5.20000E-001	8.00223E-005	4	..........a	-327.66
	1502	0.3006	-5.09930E-001	-2.70092E-008	0.00000E+000	-5.10000E-001	8.00223E-005	4	..........a	-327.66
	1503	0.3008	-4.99830E-001	-2.69172E-008	0.00000E+000	-5.00000E-001	8.00223E-005	4	..........a	-327.66
	1504	0.301	-4.89930E-001	-2.68162E-008	0.00000E+000	-4.90000E-001	8.00223E-005	4	..........a	-327.66
	1505	0.3012	-4.79630E-001	-2.67062E-008	0.00000E+000	-4.80000E-001	8.00223E-005	4	..........a	-327.66
	1506	0.3014	-4.69730E-001	-2.65852E-008	0.00000E+000	-4.70000E-001	8.00223E-005	4	..........a	-327.66
	1507	0.3016	-4.59730E-001	-2.64632E-008	0.00000E+000	-4.60000E-001	8.00223E-005	4	..........a	-327.66
	1508	0.3018	-4.49730E-001	-2.63242E-008	0.00000E+000	-4.50000E-001	8.00223E-005	4	..........a	-327.66
	1509	0.302	-4.39730E-001	-2.61812E-008	0.00000E+000	-4.40000E-001	-2.19978E-004	4	..........a	-327.66
	1510	0.3022	-4.29730E-001	-2.60332E-008	0.00000E+000	-4.30000E-001	8.00223E-005	4	..........a	-327.66
	1511	0.3024	-4.19730E-001	-2.58732E-008	0.00000E+000	-4.20000E-001	8.00223E-005	4	..........a	-327.66
	1512	0.3026	-4.09930E-001	-2.57152E-008	0.00000E+000	-4.10000E-001	8.00223E-005	4	..........a	-327.66
	1513	0.3028	-3.99730E-001	-2.55412E-008	0.00000E+000	-4.00000E-001	8.00223E-005	4	..........a	-327.66
	1514	0.303	-3.89830E-001	-2.53742E-008	0.00000E+000	-3.90000E-001	8.00223E-005	4	..........a	-327.66
	1515	0.3032	-3.79930E-001	-2.51962E-008	0.00000E+000	-3.80000E-001	8.00223E-005	4	..........a	-327.66
	1516	0.3034	-3.69730E-001	-2.50152E-008	0.00000E+000	-3.70000E-001	-2.19978E-004	4	..........a	-327.66
	1517	0.3036	-3.59930E-001	-2.48302E-008	0.00000E+000	-3.60000E-001	8.00223E-005	4	..........a	-327.66
	1518	0.3038	-3.49830E-001	-2.46402E-008	0.00000E+000	-3.50000E-001	8.00223E-005	4	..........a	-327.66
	1519	0.304	-3.39730E-001	-2.44412E-008	0.00000E+000	-3.40000E-001	8.00223E-005	4	..........a	-327.66
	1520	0.3042	-3.29930E-001	-2.42521E-008	0.00000E+000	-3.30000E-001	8.00223E-005	4	..........a	-327.66
	1521	0.3044	-3.19930E-001	-2.40451E-008	0.00000E+000	-3.20000E-001	8.00223E-005	4	..........a	-327.66
	1522	0.3046	-3.09630E-001	-2.38451E-008	0.00000E+000	-3.10000E-001	8.00223E-005	4	..........a	-327.66
	1523	0.3048	-2.99630E-001	-2.36351E-008	0.00000E+000	-3.00000E-001	8.00223E-005	4	..........a	-327.66
	1524	0.305	-2.89830E-001	-2.34271E-008	0.00000E+000	-2.90000E-001	8.00223E-005	4	..........a	-327.66
	1525	0.3052	-2.79830E-001	-2.32121E-008	0.00000E+000	-2.80000E-001	8.00223E-005	4	..........a	-327.66
	1526	0.3054	-2.69930E-001	-2.29931E-008	0.00000E+000	-2.70000E-001	8.00223E-005	4	..........a	-327.66
	1527	0.3056	-2.59730E-001	-2.27711E-008	0.00000E+000	-2.60000E-001	8.00223E-005	4	..........a	-327.66
	1528	0.3058	-2.49930E-001	-2.25491E-008	0.00000E+000	-2.50000E-001	8.00223E-005	4	..........a	-327.66
	1529	0.306	-2.39730E-001	-2.23211E-008	0.00000E+000	-2.40000E-001	8.00223E-005	4	..........a	-327.66
	1530	0.3062	-2.29930E-001	-2.20921E-008	0.00000E+000	-2.30000E-001	8.00223E-005	4	..........a	-327.66
	1531	0.3064	-2.19930E-001	-2.18561E-008	0.00000E+000	-2.20000E-001	8.00223E-005	4	..........a	-327.66
	1532	0.3066	-2.10080E-001	-2.16260E-008	0.00000E+000	-2.10000E-001	8.00223E-005	4	..........a	-327.66
	1533	0.3068	-1.99930E-001	-2.13920E-008	0.00000E+000	-2.00000E-001	8.00223E-005	4	..........a	-327.66
	1534	0.307	-1.89930E-001	-2.11500E-008	0.00000E+000	-1.90000E-001	-5.19978E-004	4	..........a	-327.66
	1535	0.3072	-1.79730E-001	-2.09120E-008	0.00000E+000	-1.80000E-001	8.00223E-005	4	..........a	-327.66
	1536	0.3074	-1.70030E-001	-2.06750E-008	0.00000E+000	-1.70000E-001	8.00223E-005	4	..........a	-327.66
	1537	0.3076	-1.59830E-001	-2.04350E-008	0.00000E+000	-1.60000E-001	8.00223E-005	4	..........a	-327.66
	1538	0.3078	-1.49930E-001	-2.01970E-008	0.00000E+000	-1.50000E-001	8.00223E-005	4	..........a	-327.66
	1539	0.308	-1.39830E-001	-1.99480E-008	0.00000E+000	-1.40000E-001	8.00223E-005	4	..........a	-327.66
	1540	0.3082	-1.29930E-001	-1.97110E-008	0.00000E+000	-1.30000E-001	8.00223E-005	4	..........a	-327.66
	1541	0.3084	-1.19930E-001	-1.94620E-008	0.00000E+000	-1.20000E-001	-2.19978E-004	4	..........a	-327.66
	1542	0.3086	-1.09930E-001	-1.92159E-008	0.00000E+000	-1.10000E-001	8.00223E-005	4	..........a	-327.66
	1543	0.3088	-9.98305E-002	-1.89709E-008	0.00000E+000	-1.00000E-001	8.00223E-005	4	..........a	-327.66
	1544	0.309	-8.99305E-002	-1.87189E-008	0.00000E+000	-9.00000E-002	8.00223E-005	4	..........a	-327.66
	1545	0.3092	-7.98305E-002	-1.84649E-008	0.00000E+000	-8.00000E-002	8.00223E-005	4	..........a	-327.66
	1546	0.3094	-6.99305E-002	-1.82169E-008	0.00000E+000	-7.00000E-002	8.00223E-005	4	..........a	-327.66
	1547	0.3096	-5.98305E-002	-1.79609E-008	0.00000E+000	-6.00000E-002	8.00223E-005	4	..........a	-327.66
	1548	0.3098	-4.99305E-002	-1.77009E-008	0.00000E+000	-5.00000E-002	8.00223E-005	4	..........a	-327.66
	1549	0.31	-3.98305E-002	-1.74389E-008	0.00000E+000	-4.00000E-002	8.00223E-005	4	..........a	-327.66
	1550	0.3102	-2.98305E-002	-1.71789E-008	0.00000E+000	-3.00000E-002	-3.19978E-004	4	..........a	-327.66
	1551	0.3104	-1.99305E-002	-1.69089E-008	0.00000E+000	-2.00000E-002	8.00223E-005	4	..........a	-327.66
	1552	0.3106	-9.93048E-003	-1.66409E-008	0.00000E+000	-1.00000E-002	8.00223E-005	4	..........a	-327.66
	1553	0.3108	6.95192E-005	-1.63638E-008	0.00000E+000	7.45058E-009	8.00223E-005	4	..........a	-327.66
	1554	0.311	1.00695E-002	-1.60858E-008	0.00000E+000	1.00000E-002	8.00223E-005	4	..........a	-327.66
	1555	0.3112	2.00695E-002	-1.58048E-008	0.00000E+000	2.00000E-002	8.00223E-005	4	..........a	-327.66
	1556	0.3114	3.00695E-002	-1.55168E-008	0.00000E+000	3.00000E-002	8.00223E-005	4	..........a	-327.66
	1557	0.3116	3.98695E-002	-1.52278E-008	0.00000E+000	4.00000E-002	8.00223E-005	4	..........a	-327.66
	1558	0.3118	5.00695E-002	-1.49248E-008	0.00000E+000	5.00000E-002	8.00223E-005	4	..........a	-327.66
	1559	0.312	6.02695E-002	-1.46158E-008	0.00000E+000	6.00000E-002	8.00223E-005	4	..........a	-327.66
	1560	0.3122	7.00695E-002	-1.43038E-008	0.00000E+000	7.00000E-002	8.00223E-005	4	..........a	-327.66
	1561	0.3124	8.00195E-002	-1.39797E-008	0.00000E+000	8.00000E-002	8.00223E-005	4	..........a	-327.66
	1562	0.3126	9.00695E-002	-1.36467E-008	0.00000E+000	9.00000E-002	8.00223E-005	4	..........a	-327.66
	1563	0.3128	1.00170E-001	-1.33087E-008	0.00000E+000	1.00000E-001	8.00223E-005	4	..........a	-327.66
	1564	0.313	1.10170E-001	-1.29577E-008	0.00000E+000	1.10000E-001	8.00223E-005	4	..........a	-327.66
	1565	0.3132	1.20170E-001	-1.25907E-008	0.00000E+000	1.20000E-001	8.00223E-005	4	..........a	-327.66
	1566	0.3134	1.29970E-001	-1.22177E-008	0.00000E+000	1.30000E-001	8.00223E-005	4	..........a	-327.66
	1567	0.3136	1.40170E-001	-1.18307E-008	0.00000E+000	1.40000E-001	8.00223E-005	4	..........a	-327.66
	1568	0.3138	1.49970E-001	-1.14317E-008	0.00000E+000	1.50000E-001	-3.19978E-004	4	..........a	-327.66
	1569	0.314	1.60020E-001	-1.10186E-008	0.00000E+000	1.60000E-001	8.00223E-005	4	..........a	-327.66
	1570	0.3142	1.70070E-001	-1.05906E-008	0.00000E+000	1.70000E-001	8.00223E-005	4	..........a	-327.66
	1571	0.3144	1.80220E-001	-1.01466E-008	0.00000E+000	1.80000E-001	8.00223E-005	4	..........a	-327.66
	1572	0.3146	1.90070E-001	-9.68958E-009	0.00000E+000	1.90000E-001	8.00223E-005	4	..........a	-327.66
	1573	0.3148	2.00070E-001	-9.21757E-009	0.00000E+000	2.00000E-001	8.00223E-005	4	..........a	-327.66
	1574	0.315	2.10070E-001	-8.73055E-009	0.00000E+000	2.10000E-001	8.00223E-005	4	..........a	-327.66
	1575	0.3152	2.19670E-001	-8.21853E-009	0.00000E+000	2.20000E-001	8.00223E-005	4	..........a	-327.66
	1576	0.3154	2.29970E-001	-7.69751E-009	0.00000E+000	2.30000E-001	8.00223E-005	4	..........a	-327.66
	1577	0.3156	2.39970E-001	-7.15049E-009	0.00000E+000	2.40000E-001	8.00223E-005	4	..........a	-327.66
	1578	0.3158	2.49970E-001	-6.58047E-009	0.00000E+000	2.50000E-001	8.00223E-005	4	..........a	-327.66
	1579	0.316	2.60170E-001	-5.99644E-009	0.00000E+000	2.60000E-001	8.00223E-005	4	..........a	-327.66
	1580	0.3162	2.69970E-001	-5.39442E-009	0.00000E+000	2.70000E-001	8.00223E-005	4	..........a	-327.66
	1581	0.3164	2.79870E-001	-4.76440E-009	0.00000E+000	2.80000E-001	8.00223E-005	4	..........a	-327.66
	1582	0.3166	2.89970E-001	-4.11437E-009	0.00000E+000	2.90000E-001	8.00223E-005	4	..........a	-327.66
	1583	0.3168	2.99870E-001	-3.43434E-009	0.00000E+000	3.00000E-001	-5.19978E-004	4	..........a	-327.66
	1584	0.317	3.10170E-001	-2.74232E-009	0.00000E+000	3.10000E-001	8.00223E-005	4	..........a	-327.66
	1585	0.3172	3.19970E-001	-2.03429E-009	0.00000E+000	3.20000E-001	-3.19978E-004	4	..........a	-327.66
	1586	0.3174	3.30070E-001	-1.31526E-009	0.00000E+000	3.30000E-001	8.00223E-005	4	..........a	-327.66
	1587	0.3176	3.40270E-001	-5.89235E-010	0.00000E+000	3.40000E-001	8.00223E-005	4	..........a	-327.66
	1588	0.3178	3.49770E-001	1.27793E-010	0.00000E+000	3.50000E-001	8.00223E-005	4	..........a	-327.66
	1589	0.318	3.59970E-001	8.39820E-010	0.00000E+000	3.60000E-001	8.00223E-005	4	..........a	-327.66
	1590	0.3182	3.69970E-001	1.53085E-009	0.00000E+000	3.70000E-001	8.00223E-005	4	..........a	-327.66
	1591	0.3184	3.80070E-001	2.20787E-009	0.00000E+000	3.80000E-001	8.00223E-005	4	..........a	-327.66
	1592	0.3186	3.89970E-001	2.86790E-009	0.00000E+000	3.90000E-001	8.00223E-005	4	..........a	-327.66
	1593	0.3188	4.00170E-001	3.51092E-009	0.00000E+000	4.00000E-001	8.00223E-005	4	..........a	-327.66
	1594	0.319	4.09970E-001	4.12595E-009	0.00000E+000	4.10000E-001	8.00223E-005	4	..........a	-327.66
	1595	0.3192	4.19870E-001	4.72797E-009	0.00000E+000	4.20000E-001	8.00223E-005	4	..........a	-327.66
	1596	0.3194	4.29970E-001	5.30599E-009	0.00000E+000	4.30000E-001	8.00223E-005	4	..........a	-327.66
	1597	0.3196	4.39870E-001	5.86901E-009	0.00000E+000	4.40000E-001	8.00223E-005	4	..........a	-327.66
	1598	0.3198	4.50070E-001	6.41603E-009	0.00000E+000	4.50000E-001	8.00223E-005	4	..........a	-327.66
	1599	0.32	4.60170E-001	6.94805E-009	0.00000E+000	4.60000E-001	8.00223E-005	4	..........a	-327.66
	1600	0.3202	4.69770E-001	7.46407E-009	0.00000E+000	4.70000E-001	8.00223E-005	4	..........a	-327.66
	1601	0.3204	4.79920E-001	7.97309E-009	0.00000E+000	4.80000E-001	8.00223E-005	4	..........a	-327.66
	1602	0.3206	4.89770E-001	8.46711E-009	0.00000E+000	4.90000E-001	8.00223E-005	4	..........a	-327.66
	1603	0.3208	5.00069E-001	8.95513E-009	0.00000E+000	5.00000E-001	8.00223E-005	4	..........a	-327.66
	1604	0.321	5.09870E-001	9.41815E-009	0.00000E+000	5.10000E-001	8.00223E-005	4	..........a	-327.66
	1605	0.3212	5.19969E-001	9.88717E-009	0.00000E+000	5.20000E-001	8.00223E-005	4	..........a	-327.66
	1606	0.3214	5.29970E-001	1.03492E-008	0.00000E+000	5.30000E-001	8.00223E-005	4	..........a	-327.66
	1607	0.3216	5.40069E-001	1.08002E-008	0.00000E+000	5.40000E-001	-4.19978E-004	4	..........a	-327.66
	1608	0.3218	5.50020E-001	1.12462E-008	0.00000E+000	5.50000E-001	8.00223E-005	4	..........a	-327.66
	1609	0.322	5.60070E-001	1.16862E-008	0.00000E+000	5.60000E-001	8.00223E-005	4	..........a	-327.66
	1610	0.3222	5.69770E-001	1.21193E-008	0.00000E+000	5.70000E-001	-3.19978E-004	4	..........a	-327.66
	1611	0.3224	5.79719E-001	1.25573E-008	0.00000E+000	5.80000E-001	-3.19978E-004	4	..........a	-327.66
	1612	0.3226	5.89869E-001	1.29883E-008	0.00000E+000	5.90000E-001	8.00223E-005	4	..........a	-327.66
	1613	0.3228	5.99769E-001	1.34083E-008	0.00000E+000	6.00000E-001	8.00223E-005	4	..........a	-327.66
	1614	0.323	6.09769E-001	1.38293E-008	0.00000E+000	6.10000E-001	8.00223E-005	4	..........a	-327.66
	1615	0.3232	6.19769E-001	1.42393E-008	0.00000E+000	6.20000E-001	8.00223E-005	4	..........a	-327.66
	1616	0.3234	6.29869E-001	1.46494E-008	0.00000E+000	6.30000E-001	8.00223E-005	4	..........a	-327.66
	1617	0.3236	6.39769E-001	1.50534E-008	0.00000E+000	6.40000E-001	8.00223E-005	4	..........a	-327.66
	1618	0.3238	6.49769E-001	1.54444E-008	0.00000E+000	6.50000E-001	-4.19978E-004	4	..........a	-327.66
	1619	0.324	6.59769E-001	1.58384E-008	0.00000E+000	6.60000E-001	8.00223E-005	4	..........a	-327.66
	1620	0.3242	6.69869E-001	1.62244E-008	0.00000E+000	6.70000E-001	8.00223E-005	4	..........a	-327.66
	1621	0.3244	6.79869E-001	1.65984E-008	0.00000E+000	6.80000E-001	8.00223E-005	4	..........a	-327.66
	1622	0.3246	6.89770E-001	1.69674E-008	0.00000E+000	6.90000E-001	8.00223E-005	4	..........a	-327.66
	1623	0.3248	6.99969E-001	1.73305E-008	0.00000E+000	7.00000E-001	8.00223E-005	4	..........a	-327.66
	1624	0.325	7.09870E-001	1.76865E-008	0.00000E+000	7.10000E-001	-2.19978E-004	4	..........a	-327.66
	1625	0.3252	7.19869E-001	1.80335E-008	0.00000E+000	7.20000E-001	8.00223E-005	4	..........a	-327.66
	1626	0.3254	7.29769E-001	1.83725E-008	0.00000E+000	7.30000E-001	-3.19978E-004	4	..........a	-327.66
	1627	0.3256	7.39869E-001	1.87075E-008	0.00000E+000	7.40000E-001	8.00223E-005	4	..........a	-327.66
	1628	0.3258	7.49770E-001	1.90345E-008	0.00000E+000	7.50000E-001	8.00223E-005	4	..........a	-327.66
	1629	0.326	7.59769E-001	1.93605E-008	0.00000E+000	7.60000E-001	-3.19978E-004	4	..........a	-327.66
	1630	0.3262	7.69870E-001	1.96785E-008	0.00000E+000	7.70000E-001	8.00223E-005	4	..........a	-327.66
	1631	0.3264	7.79669E-001	1.99896E-008	0.00000E+000	7.80000E-001	8.00223E-005	4	..........a	-327.66
	1632	0.3266	7.89869E-001	2.03016E-008	0.00000E+000	7.90000E-001	8.00223E-005	4	..........a	-327.66
	1633	0.3268	7.99969E-001	2.06096E-008	0.00000E+000	8.00000E-001	8.00223E-005	4	..........a	-327.66
CURVE7	TABLE
	Pt	T	Vf	Im	Vu	Sig	Ach	IERange	Over	Temp
	#	s	V vs. Ref.	A	V	V	V	#	bits	deg C
	1634	0.327	7.89869E-001	2.07026E-008	0.00000E+000	7.90000E-001	8.00223E-005	4	..........a	-327.66
	1635	0.3272	7.79869E-001	2.07266E-008	0.00000E+000	7.80000E-001	8.00223E-005	4	..........a	-327.66
	1636	0.3274	7.69870E-001	2.07066E-008	0.00000E+000	7.70000E-001	8.00223E-005	4	..........a	-327.66
	1637	0.3276	7.59669E-001	2.06576E-008	0.00000E+000	7.60000E-001	8.00223E-005	4	..........a	-327.66
	1638	0.3278	7.49669E-001	2.05726E-008	0.00000E+000	7.50000E-001	-3.19978E-004	4	..........a	-327.66
	1639	0.328	7.39769E-001	2.04666E-008	0.00000E+000	7.40000E-001	8.00223E-005	4	..........a	-327.66
	1640	0.3282	7.29769E-001	2.03376E-008	0.00000E+000	7.30000E-001	8.00223E-005	4	..........a	-327.66
	1641	0.3284	7.19769E-001	2.01906E-008	0.00000E+000	7.20000E-001	8.00223E-005	4	..........a	-327.66
	1642	0.3286	7.09870E-001	2.00286E-008	0.00000E+000	7.10000E-001	8.00223E-005	4	..........a	-327.66
	1643	0.3288	6.99969E-001	1.98546E-008	0.00000E+000	7.00000E-001	8.00223E-005	4	..........a	-327.66
	1644	0.329	6.89869E-001	1.96545E-008	0.00000E+000	6.90000E-001	8.00223E-005	4	..........a	-327.66
	1645	0.3292	6.79869E-001	1.94475E-008	0.00000E+000	6.80000E-001	8.00223E-005	4	..........a	-327.66
	1646	0.3294	6.69869E-001	1.92205E-008	0.00000E+000	6.70000E-001	8.00223E-005	4	..........a	-327.66
	1647	0.3296	6.59970E-001	1.89805E-008	0.00000E+000	6.60000E-001	8.00223E-005	4	..........a	-327.66
	1648	0.3298	6.49870E-001	1.87255E-008	0.00000E+000	6.50000E-001	8.00223E-005	4	..........a	-327.66
	1649	0.33	6.39919E-001	1.84515E-008	0.00000E+000	6.40000E-001	8.00223E-005	4	..........a	-327.66
	1650	0.3302	6.29869E-001	1.81625E-008	0.00000E+000	6.30000E-001	8.00223E-005	4	..........a	-327.66
	1651	0.3304	6.19869E-001	1.78645E-008	0.00000E+000	6.20000E-001	8.00223E-005	4	..........a	-327.66
	1652	0.3306	6.09769E-001	1.75485E-008	0.00000E+000	6.10000E-001	8.00223E-005	4	..........a	-327.66
	1653	0.3308	5.99869E-001	1.72134E-008	0.00000E+000	6.00000E-001	8.00223E-005	4	..........a	-327.66
	1654	0.331	5.89969E-001	1.68624E-008	0.00000E+000	5.90000E-001	8.00223E-005	4	..........a	-327.66
	1655	0.3312	5.79919E-001	1.65024E-008	0.00000E+000	5.80000E-001	-3.19978E-004	4	..........a	-327.66
	1656	0.3314	5.69669E-001	1.61184E-008	0.00000E+000	5.70000E-001	8.00223E-005	4	..........a	-327.66
	1657	0.3316	5.59869E-001	1.57204E-008	0.00000E+000	5.60000E-001	8.00223E-005	4	..........a	-327.66
	1658	0.3318	5.49869E-001	1.53104E-008	0.00000E+000	5.50000E-001	8.00223E-005	4	..........a	-327.66
	1659	0.332	5.39670E-001	1.48804E-008	0.00000E+000	5.40000E-001	8.00223E-005	4	..........a	-327.66
	1660	0.3322	5.30069E-001	1.44383E-008	0.00000E+000	5.30000E-001	8.00223E-005	4	..........a	-327.66
	1661	0.3324	5.19669E-001	1.39893E-008	0.00000E+000	5.20000E-001	8.00223E-005	4	..........a	-327.66
	1662	0.3326	5.09870E-001	1.35153E-008	0.00000E+000	5.10000E-001	8.00223E-005	4	..........a	-327.66
	1663	0.3328	4.99970E-001	1.30333E-008	0.00000E+000	5.00000E-001	8.00223E-005	4	..........a	-327.66
	1664	0.333	4.89820E-001	1.25413E-008	0.00000E+000	4.90000E-001	8.00223E-005	4	..........a	-327.66
	1665	0.3332	4.79820E-001	1.20382E-008	0.00000E+000	4.80000E-001	8.00223E-005	4	..........a	-327.66
	1666	0.3334	4.69870E-001	1.15212E-008	0.00000E+000	4.70000E-001	-3.19978E-004	4	..........a	-327.66
	1667	0.3336	4.60020E-001	1.10002E-008	0.00000E+000	4.60000E-001	8.00223E-005	4	..........a	-327.66
	1668	0.3338	4.49870E-001	1.04632E-008	0.00000E+000	4.50000E-001	8.00223E-005	4	..........a	-327.66
	1669	0.334	4.39970E-001	9.92017E-009	0.00000E+000	4.40000E-001	8.00223E-005	4	..........a	-327.66
	1670	0.3342	4.29870E-001	9.37015E-009	0.00000E+000	4.30000E-001	8.00223E-005	4	..........a	-327.66
	1671	0.3344	4.19970E-001	8.80913E-009	0.00000E+000	4.20000E-001	8.00223E-005	4	..........a	-327.66
	1672	0.3346	4.10070E-001	8.23710E-009	0.00000E+000	4.10000E-001	-2.19978E-004	4	..........a	-327.66
	1673	0.3348	3.99770E-001	7.66408E-009	0.00000E+000	4.00000E-001	8.00223E-005	4	..........a	-327.66
	1674	0.335	3.89870E-001	7.09406E-009	0.00000E+000	3.90000E-001	8.00223E-005	4	..........a	-327.66
	1675	0.3352	3.80070E-001	6.51904E-009	0.00000E+000	3.80000E-001	8.00223E-005	4	..........a	-327.66
	1676	0.3354	3.69970E-001	5.94702E-009	0.00000E+000	3.70000E-001	8.00223E-005	4	..........a	-327.66
	1677	0.3356	3.59970E-001	5.37499E-009	0.00000E+000	3.60000E-001	8.00223E-005	4	..........a	-327.66
	1678	0.3358	3.50070E-001	4.80997E-009	0.00000E+000	3.50000E-001	8.00223E-005	4	..........a	-327.66
	1679	0.336	3.40070E-001	4.24995E-009	0.00000E+000	3.40000E-001	-4.19978E-004	4	..........a	-327.66
	1680	0.3362	3.30070E-001	3.68993E-009	0.00000E+000	3.30000E-001	8.00223E-005	4	..........a	-327.66