File: example_project/raw_outputs/20240321_ZZL_GM0016_HL03_E16_CV50k.DTA
EXPLAIN
TAG	CV
TITLE	LABEL	Cyclic Voltammetry	Test &Identifier
DATE	LABEL	3/21/2024	Date
TIME	LABEL	20:06:59	Time
NOTES	NOTES	1	&Notes...

PSTAT	PSTAT	REF600P-43058	Potentiostat
VINIT	POTEN	0.00000E+000	T	Initial &E (V)
VLIMIT1	POTEN	-6.00000E-001	F	Scan Limit &1 (V)
VLIMIT2	POTEN	8.00000E-001	F	Scan Limit &2 (V)
VFINAL	POTEN	0.00000E+000	T	Final &E (V)
SCANRATE	QUANT	4.99999E+004	&Scan Rate (mV/s)
STEPSIZE	QUANT	1.00000E+001	St&ep Size (mV)
CYCLES	IQUANT	10	C&ycles (#)
IMODE	SELECTOR	1	I/E Range &Mode
IRANGE	QUANT	1.00000E-005	&Max Current (mA)
AREA	QUANT	1.00000E+000	Electrode &Area (cm^2)
ELECTRODETYPE	SELECTOR	0	Electrode Type
STRIPPING	TOGGLE	F	Used for Stripping
POLARITY	TOGGLE	F	Signal Polarity
CONDIT	TWOPARAM	F	1.50000E+001	0.00000E+000	Conditionin&g	Time(s)	E(V)
DELAY	TWOPARAM	T	1.00000E+001	0.00000E+000	Init. De&lay	Time(s)	Stab.(mV/s)
EQDELAY	QUANT	1.00000E+001	Equil. &Time (s)
IRCOMP	SELECTOR	0	IRCom&p
PFCOR	QUANT	5.00000E+001	PF Corr. (ohm)
SAMPLINGMODE	SELECTOR	1	Sampling &Mode
OCVCURVE	TABLE	39
	Pt	T	Vf	Vm	Ach	Over	Temp
	#	s	V vs. Ref.	V	V	bits	deg C
	0	0.258333	2.97982E-001	2.97982E-001	2.45222E-004	..........a	-327.66
	1	0.516667	2.97990E-001	2.98395E-001	2.68022E-004	..........a	-327.66
	2	0.775	2.98032E-001	2.98436E-001	2.65756E-004	..........a	-327.66
	3	1.03333	2.98131E-001	2.98644E-001	2.48622E-004	..........a	-327.66
	4	1.29167	2.98280E-001	2.98899E-001	2.44489E-004	..........a	-327.66
	5	1.55	2.98461E-001	2.99191E-001	2.54956E-004	..........a	-327.66
	6	1.80833	2.98667E-001	2.99412E-001	2.61222E-004	..........a	-327.66
	7	2.06667	2.98899E-001	2.99664E-001	2.42289E-004	..........a	-327.66
	8	2.325	2.99147E-001	3.00021E-001	2.72689E-004	..........a	-327.66
	9	2.58333	2.99405E-001	3.00124E-001	2.61422E-004	..........a	-327.66
	10	2.84167	2.99663E-001	3.00317E-001	2.57556E-004	..........a	-327.66
	11	3.1	2.99905E-001	3.00614E-001	2.52556E-004	..........a	-327.66
	12	3.35833	3.00130E-001	3.00847E-001	2.65356E-004	..........a	-327.66
	13	3.61667	3.00352E-001	3.01059E-001	2.50022E-004	..........a	-327.66
	14	3.875	3.00585E-001	3.01478E-001	2.61022E-004	..........a	-327.66
	15	4.13333	3.00835E-001	3.01636E-001	2.68289E-004	..........a	-327.66
	16	4.39167	3.01099E-001	3.01799E-001	2.51889E-004	..........a	-327.66
	17	4.65	3.01357E-001	3.01997E-001	2.56222E-004	..........a	-327.66
	18	4.90833	3.01591E-001	3.02284E-001	2.56689E-004	..........a	-327.66
	19	5.16667	3.01807E-001	3.02506E-001	2.66956E-004	..........a	-327.66
	20	5.425	3.02024E-001	3.02712E-001	2.47622E-004	..........a	-327.66
	21	5.68333	3.02252E-001	3.03134E-001	2.58156E-004	..........a	-327.66
	22	5.94167	3.02496E-001	3.03241E-001	2.66622E-004	..........a	-327.66
	23	6.2	3.02751E-001	3.03423E-001	2.51489E-004	..........a	-327.66
	24	6.45833	3.02998E-001	3.03632E-001	2.43489E-004	..........a	-327.66
	25	6.71667	3.03223E-001	3.03917E-001	2.55289E-004	..........a	-327.66
	26	6.975	3.03435E-001	3.04145E-001	2.44556E-004	..........a	-327.66
	27	7.23333	3.03653E-001	3.04348E-001	2.44089E-004	..........a	-327.66
	28	7.49167	3.03884E-001	3.04771E-001	2.57756E-004	..........a	-327.66
	29	7.75	3.04130E-001	3.04833E-001	2.55822E-004	..........a	-327.66
	30	8.00833	3.04382E-001	3.05025E-001	2.54822E-004	..........a	-327.66
	31	8.26667	3.04621E-001	3.05245E-001	2.55622E-004	..........a	-327.66
	32	8.525	3.04837E-001	3.05534E-001	2.56422E-004	..........a	-327.66
	33	8.78333	3.05044E-001	3.05743E-001	2.61822E-004	..........a	-327.66
	34	9.04167	3.05260E-001	3.05911E-001	2.57756E-004	..........a	-327.66
	35	9.3	3.05486E-001	3.06303E-001	2.49489E-004	..........a	-327.66
	36	9.5583	3.05720E-001	3.06452E-001	2.65489E-004	..........a	-327.66
	37	9.8167	3.05961E-001	3.06606E-001	2.52156E-004	..........a	-327.66
	38	10.075	3.06196E-001	3.06782E-001	2.46289E-004	..........a	-327.66
EOC	QUANT	0.3061958	Open Circuit (V)
PSTATMODEL	IQUANT	7	Pstat Model
PSTATSECTION	LABEL	REF600P-43058	Pstat Section
PSTATSERIALNO	LABEL	43058	Pstat Serial Number
CTRLMODE	IQUANT	1	Control Mode
ELECTROMETER	IQUANT	0	RE=0 or CS=1
IESTAB	IQUANT	2	I/E Stability
CASPEED	IQUANT	4	Control Amp Speed
CONVENTION	IQUANT	1	Current Convention
ICHRANGE	IQUANT	2	Ich Range
ICHRANGEMODE	TOGGLE	F	Ich Auto Range
ICHOFFSETENABLE	TOGGLE	F	Ich Offset Enable
ICHOFFSET	QUANT	0	Ich Offset (V)
ICHFILTER	IQUANT	1	Ich Filter
VCHRANGE	IQUANT	2	Vch Range
VCHRANGEMODE	TOGGLE	F	Vch Auto Range
VCHOFFSETENABLE	TOGGLE	F	Vch Offset Enable
VCHOFFSET	QUANT	0	Vch Offset (V)
VCHFILTER	IQUANT	1	Vch Filter
ACHRANGE	IQUANT	2	Ach Range
ACHOFFSETENABLE	TOGGLE	F	Ach Offset Enable
ACHOFFSET	QUANT	0	Ach Offset (V)
ACHFILTER	IQUANT	1	Ach Filter
IERANGELOWERLIMIT	IQUANT	1	I/E Range Lower Limit
IERANGEMODE	TOGGLE	F	I/E AutoRange
IERANGE	IQUANT	4	I/E Range
POSFEEDENABLE	TOGGLE	F	Positive Feedback IR Comp
POSFEEDRESISTANCE	QUANT	0	Positive Feedback Resistance (ohm)
ACHSELECT	IQUANT	4	Ach Select
SENSECABLEID	IQUANT	7	Sense Cable ID
PWRCABLEID	IQUANT	7	Power Cable ID
DCCALDATE	LABEL	12/18/2023	DC Calibration Date
ACCALDATE	LABEL	12/18/2023	AC Calibration Date
THERMOSELECT	IQUANT	1	Thermo Select
FRAMEWORKVERSION	LABEL	7.8.4	Framework Version
INSTRUMENTVERSION	LABEL	4.42	Instrument Version
CURVE1	TABLE
	Pt	T	Vf	Im	Vu	Sig	Ach	IERange	Over	Temp
	#	s	V vs. Ref.	A	V	V	V	#	bits	deg C
	0	0.0002	3.06070E-001	4.07892E-011	0.00000E+000	3.06200E-001	8.00223E-005	4	..........a	-327.66
	1	0.0004	2.96070E-001	7.87665E-013	0.00000E+000	2.96200E-001	8.00223E-005	4	..........a	-327.66
	2	0.0006	2.86070E-001	-4.82142E-011	0.00000E+000	2.86200E-001	8.00223E-005	4	..........a	-327.66
	3	0.0008	2.76370E-001	-1.05216E-010	0.00000E+000	2.76200E-001	8.00223E-005	4	..........a	-327.66
	4	0.001	2.66170E-001	-1.70219E-010	0.00000E+000	2.66200E-001	8.00223E-005	4	..........a	-327.66
	5	0.0012	2.56270E-001	-2.38221E-010	0.00000E+000	2.56200E-001	8.00223E-005	4	..........a	-327.66
	6	0.0014	2.46570E-001	-3.10224E-010	0.00000E+000	2.46200E-001	8.00223E-005	4	..........a	-327.66
	7	0.0016	2.36170E-001	-3.88227E-010	0.00000E+000	2.36200E-001	8.00223E-005	4	..........a	-327.66
	8	0.0018	2.26270E-001	-4.67230E-010	0.00000E+000	2.26200E-001	8.00223E-005	4	..........a	-327.66
	9	0.002	2.16270E-001	-5.54234E-010	0.00000E+000	2.16200E-001	8.00223E-005	4	..........a	-327.66
	10	0.0022	2.06170E-001	-6.46237E-010	0.00000E+000	2.06200E-001	8.00223E-005	4	..........a	-327.66
	11	0.0024	1.96270E-001	-7.42241E-010	0.00000E+000	1.96200E-001	-2.19978E-004	4	..........a	-327.66
	12	0.0026	1.86270E-001	-8.42245E-010	0.00000E+000	1.86200E-001	8.00223E-005	4	..........a	-327.66
	13	0.0028	1.76370E-001	-9.38248E-010	0.00000E+000	1.76200E-001	8.00223E-005	4	..........a	-327.66
	14	0.003	1.66270E-001	-1.05225E-009	0.00000E+000	1.66200E-001	8.00223E-005	4	..........a	-327.66
	15	0.0032	1.56270E-001	-1.15726E-009	0.00000E+000	1.56200E-001	8.00223E-005	4	..........a	-327.66
	16	0.0034	1.46070E-001	-1.27426E-009	0.00000E+000	1.46200E-001	8.00223E-005	4	..........a	-327.66
	17	0.0036	1.36270E-001	-1.38427E-009	0.00000E+000	1.36200E-001	8.00223E-005	4	..........a	-327.66
	18	0.0038	1.26070E-001	-1.51127E-009	0.00000E+000	1.26200E-001	8.00223E-005	4	..........a	-327.66
	19	0.004	1.16370E-001	-1.63528E-009	0.00000E+000	1.16200E-001	8.00223E-005	4	..........a	-327.66
	20	0.0042	1.06370E-001	-1.76328E-009	0.00000E+000	1.06200E-001	8.00223E-005	4	..........a	-327.66
	21	0.0044	9.61695E-002	-1.89529E-009	0.00000E+000	9.62000E-002	8.00223E-005	4	..........a	-327.66
	22	0.0046	8.63695E-002	-2.02729E-009	0.00000E+000	8.62000E-002	8.00223E-005	4	..........a	-327.66
	23	0.0048	7.63695E-002	-2.16930E-009	0.00000E+000	7.62000E-002	8.00223E-005	4	..........a	-327.66
	24	0.005	6.62695E-002	-2.31430E-009	0.00000E+000	6.62000E-002	8.00223E-005	4	..........a	-327.66
	25	0.0052	5.62695E-002	-2.46631E-009	0.00000E+000	5.62000E-002	8.00223E-005	4	..........a	-327.66
	26	0.0054	4.61695E-002	-2.61131E-009	0.00000E+000	4.62000E-002	8.00223E-005	4	..........a	-327.66
	27	0.0056	3.62695E-002	-2.76632E-009	0.00000E+000	3.62000E-002	8.00223E-005	4	..........a	-327.66
	28	0.0058	2.63695E-002	-2.91232E-009	0.00000E+000	2.62000E-002	8.00223E-005	4	..........a	-327.66
	29	0.006	1.63695E-002	-3.07933E-009	0.00000E+000	1.62000E-002	8.00223E-005	4	..........a	-327.66
	30	0.0062	6.26952E-003	-3.24334E-009	0.00000E+000	6.20000E-003	8.00223E-005	4	..........a	-327.66
	31	0.0064	-3.83048E-003	-3.41434E-009	0.00000E+000	-3.80000E-003	8.00223E-005	4	..........a	-327.66
	32	0.0066	-1.38305E-002	-3.58035E-009	0.00000E+000	-1.38000E-002	8.00223E-005	4	..........a	-327.66
	33	0.0068	-2.37305E-002	-3.75536E-009	0.00000E+000	-2.38000E-002	8.00223E-005	4	..........a	-327.66
	34	0.007	-3.38305E-002	-3.93436E-009	0.00000E+000	-3.38000E-002	8.00223E-005	4	..........a	-327.66
	35	0.0072	-4.37305E-002	-4.12037E-009	0.00000E+000	-4.38000E-002	8.00223E-005	4	..........a	-327.66
	36	0.0074	-5.36305E-002	-4.30038E-009	0.00000E+000	-5.38000E-002	8.00223E-005	4	..........a	-327.66
	37	0.0076	-6.36305E-002	-4.48938E-009	0.00000E+000	-6.38000E-002	8.00223E-005	4	..........a	-327.66
	38	0.0078	-7.36305E-002	-4.67839E-009	0.00000E+000	-7.38000E-002	8.00223E-005	4	..........a	-327.66
	39	0.008	-8.37305E-002	-4.87440E-009	0.00000E+000	-8.38000E-002	8.00223E-005	4	..........a	-327.66
	40	0.0082	-9.38305E-002	-5.07041E-009	0.00000E+000	-9.38000E-002	8.00223E-005	4	..........a	-327.66
	41	0.0084	-1.03730E-001	-5.26941E-009	0.00000E+000	-1.03800E-001	8.00223E-005	4	..........a	-327.66
	42	0.0086	-1.13930E-001	-5.47042E-009	0.00000E+000	-1.13800E-001	8.00223E-005	4	..........a	-327.66
	43	0.0088	-1.23730E-001	-5.67943E-009	0.00000E+000	-1.23800E-001	8.00223E-005	4	..........a	-327.66
	44	0.009	-1.33880E-001	-5.88944E-009	0.00000E+000	-1.33800E-001	8.00223E-005	4	..........a	-327.66
	45	0.0092	-1.43730E-001	-6.10445E-009	0.00000E+000	-1.43800E-001	8.00223E-005	4	..........a	-327.66
	46	0.0094	-1.53630E-001	-6.31645E-009	0.00000E+000	-1.53800E-001	8.00223E-005	4	..........a	-327.66
	47	0.0096	-1.63630E-001	-6.53746E-009	0.00000E+000	-1.63800E-001	8.00223E-005	4	..........a	-327.66
	48	0.0098	-1.73630E-001	-6.75747E-009	0.00000E+000	-1.73800E-001	8.00223E-005	4	..........a	-327.66
	49	0.01	-1.83830E-001	-6.98248E-009	0.00000E+000	-1.83800E-001	8.00223E-005	4	..........a	-327.66
	50	0.0102	-1.93730E-001	-7.20549E-009	0.00000E+000	-1.93800E-001	8.00223E-005	4	..........a	-327.66
	51	0.0104	-2.03780E-001	-7.43550E-009	0.00000E+000	-2.03800E-001	8.00223E-005	4	..........a	-327.66
	52	0.0106	-2.13530E-001	-7.67251E-009	0.00000E+000	-2.13800E-001	8.00223E-005	4	..........a	-327.66
	53	0.0108	-2.23730E-001	-7.90352E-009	0.00000E+000	-2.23800E-001	8.00223E-005	4	..........a	-327.66
	54	0.011	-2.33730E-001	-8.13853E-009	0.00000E+000	-2.33800E-001	8.00223E-005	4	..........a	-327.66
	55	0.0112	-2.43630E-001	-8.37953E-009	0.00000E+000	-2.43800E-001	8.00223E-005	4	..........a	-327.66
	56	0.0114	-2.53730E-001	-8.62454E-009	0.00000E+000	-2.53800E-001	8.00223E-005	4	..........a	-327.66
	57	0.0116	-2.63630E-001	-8.87055E-009	0.00000E+000	-2.63800E-001	8.00223E-005	4	..........a	-327.66
	58	0.0118	-2.73730E-001	-9.11656E-009	0.00000E+000	-2.73800E-001	8.00223E-005	4	..........a	-327.66
	59	0.012	-2.83630E-001	-9.36357E-009	0.00000E+000	-2.83800E-001	8.00223E-005	4	..........a	-327.66
	60	0.0122	-2.93630E-001	-9.61558E-009	0.00000E+000	-2.93800E-001	-2.19978E-004	4	..........a	-327.66
	61	0.0124	-3.03630E-001	-9.86759E-009	0.00000E+000	-3.03800E-001	8.00223E-005	4	..........a	-327.66
	62	0.0126	-3.13730E-001	-1.01266E-008	0.00000E+000	-3.13800E-001	8.00223E-005	4	..........a	-327.66
	63	0.0128	-3.23630E-001	-1.03846E-008	0.00000E+000	-3.23800E-001	8.00223E-005	4	..........a	-327.66
	64	0.013	-3.33630E-001	-1.06436E-008	0.00000E+000	-3.33800E-001	8.00223E-005	4	..........a	-327.66
	65	0.0132	-3.43630E-001	-1.09096E-008	0.00000E+000	-3.43800E-001	8.00223E-005	4	..........a	-327.66
	66	0.0134	-3.53830E-001	-1.11766E-008	0.00000E+000	-3.53800E-001	8.00223E-005	4	..........a	-327.66
	67	0.0136	-3.63730E-001	-1.14407E-008	0.00000E+000	-3.63800E-001	8.00223E-005	4	..........a	-327.66
	68	0.0138	-3.73530E-001	-1.17097E-008	0.00000E+000	-3.73800E-001	8.00223E-005	4	..........a	-327.66
	69	0.014	-3.83730E-001	-1.19827E-008	0.00000E+000	-3.83800E-001	8.00223E-005	4	..........a	-327.66
	70	0.0142	-3.93530E-001	-1.22547E-008	0.00000E+000	-3.93800E-001	8.00223E-005	4	..........a	-327.66
	71	0.0144	-4.03630E-001	-1.25397E-008	0.00000E+000	-4.03800E-001	8.00223E-005	4	..........a	-327.66
	72	0.0146	-4.13630E-001	-1.28127E-008	0.00000E+000	-4.13800E-001	8.00223E-005	4	..........a	-327.66
	73	0.0148	-4.23530E-001	-1.30937E-008	0.00000E+000	-4.23800E-001	8.00223E-005	4	..........a	-327.66
	74	0.015	-4.33530E-001	-1.33747E-008	0.00000E+000	-4.33800E-001	8.00223E-005	4	..........a	-327.66
	75	0.0152	-4.43630E-001	-1.36617E-008	0.00000E+000	-4.43800E-001	8.00223E-005	4	..........a	-327.66
	76	0.0154	-4.53530E-001	-1.39477E-008	0.00000E+000	-4.53800E-001	8.00223E-005	4	..........a	-327.66
	77	0.0156	-4.63780E-001	-1.42408E-008	0.00000E+000	-4.63800E-001	8.00223E-005	4	..........a	-327.66
	78	0.0158	-4.73730E-001	-1.45278E-008	0.00000E+000	-4.73800E-001	8.00223E-005	4	..........a	-327.66
	79	0.016	-4.83730E-001	-1.48268E-008	0.00000E+000	-4.83800E-001	8.00223E-005	4	..........a	-327.66
	80	0.0162	-4.93530E-001	-1.51248E-008	0.00000E+000	-4.93800E-001	8.00223E-005	4	..........a	-327.66
	81	0.0164	-5.03630E-001	-1.54218E-008	0.00000E+000	-5.03800E-001	8.00223E-005	4	..........a	-327.66
	82	0.0166	-5.13830E-001	-1.57238E-008	0.00000E+000	-5.13800E-001	8.00223E-005	4	..........a	-327.66
	83	0.0168	-5.23731E-001	-1.60338E-008	0.00000E+000	-5.23800E-001	8.00223E-005	4	..........a	-327.66
	84	0.017	-5.33530E-001	-1.63468E-008	0.00000E+000	-5.33800E-001	8.00223E-005	4	..........a	-327.66
	85	0.0172	-5.43530E-001	-1.66609E-008	0.00000E+000	-5.43800E-001	8.00223E-005	4	..........a	-327.66
	86	0.0174	-5.53730E-001	-1.69749E-008	0.00000E+000	-5.53800E-001	-3.19978E-004	4	..........a	-327.66
	87	0.0176	-5.63531E-001	-1.72979E-008	0.00000E+000	-5.63800E-001	8.00223E-005	4	..........a	-327.66
	88	0.0178	-5.73430E-001	-1.76199E-008	0.00000E+000	-5.73800E-001	8.00223E-005	4	..........a	-327.66
	89	0.018	-5.83530E-001	-1.79509E-008	0.00000E+000	-5.83800E-001	8.00223E-005	4	..........a	-327.66
	90	0.0182	-5.93430E-001	-1.82839E-008	0.00000E+000	-5.93800E-001	8.00223E-005	4	..........a	-327.66
	91	0.0184	-6.03630E-001	-1.86229E-008	0.00000E+000	-6.03800E-001	8.00223E-005	4	..........a	-327.66
	92	0.0186	-5.93830E-001	-1.88189E-008	0.00000E+000	-5.93800E-001	8.00223E-005	4	..........a	-327.66
	93	0.0188	-5.83631E-001	-1.89849E-008	0.00000E+000	-5.83800E-001	8.00223E-005	4	..........a	-327.66
	94	0.019	-5.73430E-001	-1.91169E-008	0.00000E+000	-5.73800E-001	8.00223E-005	4	..........a	-327.66
	95	0.0192	-5.63531E-001	-1.92310E-008	0.00000E+000	-5.63800E-001	8.00223E-005	4	..........a	-327.66
	96	0.0194	-5.53630E-001	-1.93160E-008	0.00000E+000	-5.53800E-001	8.00223E-005	4	..........a	-327.66
	97	0.0196	-5.43630E-001	-1.93900E-008	0.00000E+000	-5.43800E-001	8.00223E-005	4	..........a	-327.66
	98	0.0198	-5.33530E-001	-1.94530E-008	0.00000E+000	-5.33800E-001	8.00223E-005	4	..........a	-327.66
	99	0.02	-5.23630E-001	-1.94910E-008	0.00000E+000	-5.23800E-001	8.00223E-005	4	..........a	-327.66
	100	0.0202	-5.13631E-001	-1.95250E-008	0.00000E+000	-5.13800E-001	8.00223E-005	4	..........a	-327.66
	101	0.0204	-5.03531E-001	-1.95450E-008	0.00000E+000	-5.03800E-001	8.00223E-005	4	..........a	-327.66
	102	0.0206	-4.93730E-001	-1.95570E-008	0.00000E+000	-4.93800E-001	8.00223E-005	4	..........a	-327.66
	103	0.0208	-4.83530E-001	-1.95570E-008	0.00000E+000	-4.83800E-001	-3.19978E-004	4	..........a	-327.66
	104	0.021	-4.73530E-001	-1.95510E-008	0.00000E+000	-4.73800E-001	8.00223E-005	4	..........a	-327.66
	105	0.0212	-4.63630E-001	-1.95320E-008	0.00000E+000	-4.63800E-001	8.00223E-005	4	..........a	-327.66
	106	0.0214	-4.53530E-001	-1.95050E-008	0.00000E+000	-4.53800E-001	8.00223E-005	4	..........a	-327.66
	107	0.0216	-4.43530E-001	-1.94680E-008	0.00000E+000	-4.43800E-001	8.00223E-005	4	..........a	-327.66
	108	0.0218	-4.33530E-001	-1.94290E-008	0.00000E+000	-4.33800E-001	8.00223E-005	4	..........a	-327.66
	109	0.022	-4.23630E-001	-1.93810E-008	0.00000E+000	-4.23800E-001	8.00223E-005	4	..........a	-327.66
	110	0.0222	-4.13530E-001	-1.93250E-008	0.00000E+000	-4.13800E-001	8.00223E-005	4	..........a	-327.66
	111	0.0224	-4.03530E-001	-1.92600E-008	0.00000E+000	-4.03800E-001	8.00223E-005	4	..........a	-327.66
	112	0.0226	-3.93730E-001	-1.91939E-008	0.00000E+000	-3.93800E-001	8.00223E-005	4	..........a	-327.66
	113	0.0228	-3.83680E-001	-1.91199E-008	0.00000E+000	-3.83800E-001	8.00223E-005	4	..........a	-327.66
	114	0.023	-3.73580E-001	-1.90359E-008	0.00000E+000	-3.73800E-001	8.00223E-005	4	..........a	-327.66
	115	0.0232	-3.63530E-001	-1.89519E-008	0.00000E+000	-3.63800E-001	8.00223E-005	4	..........a	-327.66
	116	0.0234	-3.53730E-001	-1.88599E-008	0.00000E+000	-3.53800E-001	8.00223E-005	4	..........a	-327.66
	117	0.0236	-3.43730E-001	-1.87629E-008	0.00000E+000	-3.43800E-001	8.00223E-005	4	..........a	-327.66
	118	0.0238	-3.33630E-001	-1.86639E-008	0.00000E+000	-3.33800E-001	8.00223E-005	4	..........a	-327.66
	119	0.024	-3.23730E-001	-1.85589E-008	0.00000E+000	-3.23800E-001	-2.19978E-004	4	..........a	-327.66
	120	0.0242	-3.13830E-001	-1.84489E-008	0.00000E+000	-3.13800E-001	8.00223E-005	4	..........a	-327.66
	121	0.0244	-3.03530E-001	-1.83339E-008	0.00000E+000	-3.03800E-001	8.00223E-005	4	..........a	-327.66
	122	0.0246	-2.93630E-001	-1.82129E-008	0.00000E+000	-2.93800E-001	8.00223E-005	4	..........a	-327.66
	123	0.0248	-2.83530E-001	-1.80909E-008	0.00000E+000	-2.83800E-001	8.00223E-005	4	..........a	-327.66
	124	0.025	-2.73530E-001	-1.79629E-008	0.00000E+000	-2.73800E-001	8.00223E-005	4	..........a	-327.66
	125	0.0252	-2.63630E-001	-1.78349E-008	0.00000E+000	-2.63800E-001	8.00223E-005	4	..........a	-327.66
	126	0.0254	-2.53630E-001	-1.77009E-008	0.00000E+000	-2.53800E-001	8.00223E-005	4	..........a	-327.66
	127	0.0256	-2.43680E-001	-1.75609E-008	0.00000E+000	-2.43800E-001	8.00223E-005	4	..........a	-327.66
	128	0.0258	-2.33830E-001	-1.74179E-008	0.00000E+000	-2.33800E-001	8.00223E-005	4	..........a	-327.66
	129	0.026	-2.23630E-001	-1.72709E-008	0.00000E+000	-2.23800E-001	8.00223E-005	4	..........a	-327.66
	130	0.0262	-2.13530E-001	-1.71219E-008	0.00000E+000	-2.13800E-001	8.00223E-005	4	..........a	-327.66
	131	0.0264	-2.03630E-001	-1.69689E-008	0.00000E+000	-2.03800E-001	8.00223E-005	4	..........a	-327.66
	132	0.0266	-1.93780E-001	-1.68159E-008	0.00000E+000	-1.93800E-001	8.00223E-005	4	..........a	-327.66
	133	0.0268	-1.83730E-001	-1.66609E-008	0.00000E+000	-1.83800E-001	8.00223E-005	4	..........a	-327.66
	134	0.027	-1.73730E-001	-1.64998E-008	0.00000E+000	-1.73800E-001	8.00223E-005	4	..........a	-327.66
	135	0.0272	-1.63530E-001	-1.63338E-008	0.00000E+000	-1.63800E-001	8.00223E-005	4	..........a	-327.66
	136	0.0274	-1.53630E-001	-1.61688E-008	0.00000E+000	-1.53800E-001	8.00223E-005	4	..........a	-327.66
	137	0.0276	-1.43730E-001	-1.60018E-008	0.00000E+000	-1.43800E-001	8.00223E-005	4	..........a	-327.66
	138	0.0278	-1.33730E-001	-1.58288E-008	0.00000E+000	-1.33800E-001	8.00223E-005	4	..........a	-327.66
	139	0.028	-1.23630E-001	-1.56568E-008	0.00000E+000	-1.23800E-001	8.00223E-005	4	..........a	-327.66
	140	0.0282	-1.13430E-001	-1.54788E-008	0.00000E+000	-1.13800E-001	8.00223E-005	4	..........a	-327.66
	141	0.0284	-1.03830E-001	-1.53038E-008	0.00000E+000	-1.03800E-001	8.00223E-005	4	..........a	-327.66
	142	0.0286	-9.35305E-002	-1.51288E-008	0.00000E+000	-9.38000E-002	8.00223E-005	4	..........a	-327.66
	143	0.0288	-8.37305E-002	-1.49408E-008	0.00000E+000	-8.38000E-002	8.00223E-005	4	..........a	-327.66
	144	0.029	-7.38305E-002	-1.47578E-008	0.00000E+000	-7.38000E-002	8.00223E-005	4	..........a	-327.66
	145	0.0292	-6.37305E-002	-1.45688E-008	0.00000E+000	-6.38000E-002	8.00223E-005	4	..........a	-327.66
	146	0.0294	-5.35305E-002	-1.43828E-008	0.00000E+000	-5.38000E-002	8.00223E-005	4	..........a	-327.66
	147	0.0296	-4.35305E-002	-1.41878E-008	0.00000E+000	-4.38000E-002	8.00223E-005	4	..........a	-327.66
	148	0.0298	-3.36305E-002	-1.39968E-008	0.00000E+000	-3.38000E-002	8.00223E-005	4	..........a	-327.66
	149	0.03	-2.36305E-002	-1.38037E-008	0.00000E+000	-2.38000E-002	8.00223E-005	4	..........a	-327.66
	150	0.0302	-1.36305E-002	-1.36087E-008	0.00000E+000	-1.38000E-002	8.00223E-005	4	..........a	-327.66
	151	0.0304	-3.78048E-003	-1.34057E-008	0.00000E+000	-3.80000E-003	8.00223E-005	4	..........a	-327.66
	152	0.0306	6.26952E-003	-1.32067E-008	0.00000E+000	6.20000E-003	8.00223E-005	4	..........a	-327.66
	153	0.0308	1.62695E-002	-1.30017E-008	0.00000E+000	1.62000E-002	8.00223E-005	4	..........a	-327.66
	154	0.031	2.62695E-002	-1.28007E-008	0.00000E+000	2.62000E-002	8.00223E-005	4	..........a	-327.66
	155	0.0312	3.63695E-002	-1.25887E-008	0.00000E+000	3.62000E-002	8.00223E-005	4	..........a	-327.66
	156	0.0314	4.63695E-002	-1.23817E-008	0.00000E+000	4.62000E-002	8.00223E-005	4	..........a	-327.66
	157	0.0316	5.60695E-002	-1.21687E-008	0.00000E+000	5.62000E-002	8.00223E-005	4	..........a	-327.66
	158	0.0318	6.63695E-002	-1.19607E-008	0.00000E+000	6.62000E-002	8.00223E-005	4	..........a	-327.66
	159	0.032	7.63695E-002	-1.17407E-008	0.00000E+000	7.62000E-002	8.00223E-005	4	..........a	-327.66
	160	0.0322	8.62695E-002	-1.15287E-008	0.00000E+000	8.62000E-002	8.00223E-005	4	..........a	-327.66
	161	0.0324	9.62695E-002	-1.13106E-008	0.00000E+000	9.62000E-002	8.00223E-005	4	..........a	-327.66
	162	0.0326	1.06470E-001	-1.10916E-008	0.00000E+000	1.06200E-001	8.00223E-005	4	..........a	-327.66
	163	0.0328	1.16270E-001	-1.08716E-008	0.00000E+000	1.16200E-001	8.00223E-005	4	..........a	-327.66
	164	0.033	1.26270E-001	-1.06526E-008	0.00000E+000	1.26200E-001	8.00223E-005	4	..........a	-327.66
	165	0.0332	1.36270E-001	-1.04196E-008	0.00000E+000	1.36200E-001	8.00223E-005	4	..........a	-327.66
	166	0.0334	1.46270E-001	-1.01976E-008	0.00000E+000	1.46200E-001	8.00223E-005	4	..........a	-327.66
	167	0.0336	1.56220E-001	-9.96959E-009	0.00000E+000	1.56200E-001	8.00223E-005	4	..........a	-327.66
	168	0.0338	1.66070E-001	-9.74059E-009	0.00000E+000	1.66200E-001	8.00223E-005	4	..........a	-327.66
	169	0.034	1.76270E-001	-9.51458E-009	0.00000E+000	1.76200E-001	8.00223E-005	4	..........a	-327.66
	170	0.0342	1.86070E-001	-9.27357E-009	0.00000E+000	1.86200E-001	8.00223E-005	4	..........a	-327.66
	171	0.0344	1.96270E-001	-9.03956E-009	0.00000E+000	1.96200E-001	8.00223E-005	4	..........a	-327.66
	172	0.0346	2.06170E-001	-8.80855E-009	0.00000E+000	2.06200E-001	-3.19978E-004	4	..........a	-327.66
	173	0.0348	2.16370E-001	-8.55654E-009	0.00000E+000	2.16200E-001	8.00223E-005	4	..........a	-327.66
	174	0.035	2.26370E-001	-8.32753E-009	0.00000E+000	2.26200E-001	8.00223E-005	4	..........a	-327.66
	175	0.0352	2.36370E-001	-8.07652E-009	0.00000E+000	2.36200E-001	8.00223E-005	4	..........a	-327.66
	176	0.0354	2.46170E-001	-7.84351E-009	0.00000E+000	2.46200E-001	8.00223E-005	4	..........a	-327.66
	177	0.0356	2.56220E-001	-7.59650E-009	0.00000E+000	2.56200E-001	8.00223E-005	4	..........a	-327.66
	178	0.0358	2.66170E-001	-7.35349E-009	0.00000E+000	2.66200E-001	8.00223E-005	4	..........a	-327.66
	179	0.036	2.76370E-001	-7.10349E-009	0.00000E+000	2.76200E-001	8.00223E-005	4	..........a	-327.66
	180	0.0362	2.86270E-001	-6.85048E-009	0.00000E+000	2.86200E-001	8.00223E-005	4	..........a	-327.66
	181	0.0364	2.96070E-001	-6.60047E-009	0.00000E+000	2.96200E-001	8.00223E-005	4	..........a	-327.66
	182	0.0366	3.06270E-001	-6.35046E-009	0.00000E+000	3.06200E-001	-3.19978E-004	4	..........a	-327.66
	183	0.0368	3.16170E-001	-6.09445E-009	0.00000E+000	3.16200E-001	8.00223E-005	4	..........a	-327.66
	184	0.037	3.26220E-001	-5.83744E-009	0.00000E+000	3.26200E-001	-4.19978E-004	4	..........a	-327.66
	185	0.0372	3.36170E-001	-5.58043E-009	0.00000E+000	3.36200E-001	8.00223E-005	4	..........a	-327.66
	186	0.0374	3.46170E-001	-5.32442E-009	0.00000E+000	3.46200E-001	8.00223E-005	4	..........a	-327.66
	187	0.0376	3.56370E-001	-5.06841E-009	0.00000E+000	3.56200E-001	8.00223E-005	4	..........a	-327.66
	188	0.0378	3.66170E-001	-4.80540E-009	0.00000E+000	3.66200E-001	8.00223E-005	4	..........a	-327.66
	189	0.038	3.76370E-001	-4.54239E-009	0.00000E+000	3.76200E-001	8.00223E-005	4	..........a	-327.66
	190	0.0382	3.86070E-001	-4.27938E-009	0.00000E+000	3.86200E-001	8.00223E-005	4	..........a	-327.66
	191	0.0384	3.96270E-001	-4.01537E-009	0.00000E+000	3.96200E-001	8.00223E-005	4	..........a	-327.66
	192	0.0386	4.06070E-001	-3.74636E-009	0.00000E+000	4.06200E-001	8.00223E-005	4	..........a	-327.66
	193	0.0388	4.16170E-001	-3.48035E-009	0.00000E+000	4.16200E-001	8.00223E-005	4	..........a	-327.66
	194	0.039	4.26270E-001	-3.21534E-009	0.00000E+000	4.26200E-001	8.00223E-005	4	..........a	-327.66
	195	0.0392	4.36170E-001	-2.94633E-009	0.00000E+000	4.36200E-001	8.00223E-005	4	..........a	-327.66
	196	0.0394	4.46070E-001	-2.67532E-009	0.00000E+000	4.46200E-001	8.00223E-005	4	..........a	-327.66
	197	0.0396	4.56170E-001	-2.40730E-009	0.00000E+000	4.56200E-001	8.00223E-005	4	..........a	-327.66
	198	0.0398	4.66170E-001	-2.13529E-009	0.00000E+000	4.66200E-001	8.00223E-005	4	..........a	-327.66
	199	0.04	4.75870E-001	-1.86828E-009	0.00000E+000	4.76200E-001	8.00223E-005	4	..........a	-327.66
	200	0.0402	4.86270E-001	-1.59227E-009	0.00000E+000	4.86200E-001	8.00223E-005	4	..........a	-327.66
	201	0.0404	4.96270E-001	-1.32026E-009	0.00000E+000	4.96200E-001	8.00223E-005	4	..........a	-327.66
	202	0.0406	5.06119E-001	-1.03725E-009	0.00000E+000	5.06200E-001	8.00223E-005	4	..........a	-327.66
	203	0.0408	5.16270E-001	-7.62242E-010	0.00000E+000	5.16200E-001	8.00223E-005	4	..........a	-327.66
	204	0.041	5.26069E-001	-4.75231E-010	0.00000E+000	5.26200E-001	8.00223E-005	4	..........a	-327.66
	205	0.0412	5.36070E-001	-2.00220E-010	0.00000E+000	5.36200E-001	8.00223E-005	4	..........a	-327.66
	206	0.0414	5.46169E-001	8.37908E-011	0.00000E+000	5.46200E-001	8.00223E-005	4	..........a	-327.66
	207	0.0416	5.56269E-001	3.68802E-010	0.00000E+000	5.56200E-001	8.00223E-005	4	..........a	-327.66
	208	0.0418	5.66069E-001	6.52813E-010	0.00000E+000	5.66200E-001	8.00223E-005	4	..........a	-327.66
	209	0.042	5.76270E-001	9.37824E-010	0.00000E+000	5.76200E-001	8.00223E-005	4	..........a	-327.66
	210	0.0422	5.85970E-001	1.22583E-009	0.00000E+000	5.86200E-001	8.00223E-005	4	..........a	-327.66
	211	0.0424	5.96169E-001	1.52085E-009	0.00000E+000	5.96200E-001	8.00223E-005	4	..........a	-327.66
	212	0.0426	6.06070E-001	1.81286E-009	0.00000E+000	6.06200E-001	8.00223E-005	4	..........a	-327.66
	213	0.0428	6.16170E-001	2.10787E-009	0.00000E+000	6.16200E-001	8.00223E-005	4	..........a	-327.66
	214	0.043	6.26170E-001	2.40488E-009	0.00000E+000	6.26200E-001	-1.19978E-004	4	..........a	-327.66
	215	0.0432	6.36169E-001	2.70789E-009	0.00000E+000	6.36200E-001	8.00223E-005	4	..........a	-327.66
	216	0.0434	6.46069E-001	3.00490E-009	0.00000E+000	6.46200E-001	8.00223E-005	4	..........a	-327.66
	217	0.0436	6.56169E-001	3.30891E-009	0.00000E+000	6.56200E-001	8.00223E-005	4	..........a	-327.66
	218	0.0438	6.66070E-001	3.62293E-009	0.00000E+000	6.66200E-001	1.80022E-004	4	..........a	-327.66
	219	0.044	6.76169E-001	3.93294E-009	0.00000E+000	6.76200E-001	8.00223E-005	4	..........a	-327.66
	220	0.0442	6.86170E-001	4.24895E-009	0.00000E+000	6.86200E-001	8.00223E-005	4	..........a	-327.66
	221	0.0444	6.96169E-001	4.56496E-009	0.00000E+000	6.96200E-001	8.00223E-005	4	..........a	-327.66
	222	0.0446	7.06069E-001	4.88598E-009	0.00000E+000	7.06200E-001	8.00223E-005	4	..........a	-327.66
	223	0.0448	7.16069E-001	5.20399E-009	0.00000E+000	7.16200E-001	8.00223E-005	4	..........a	-327.66
	224	0.045	7.26070E-001	5.53500E-009	0.00000E+000	7.26200E-001	8.00223E-005	4	..........a	-327.66
	225	0.0452	7.36070E-001	5.86601E-009	0.00000E+000	7.36200E-001	8.00223E-005	4	..........a	-327.66
	226	0.0454	7.46170E-001	6.20403E-009	0.00000E+000	7.46200E-001	8.00223E-005	4	..........a	-327.66
	227	0.0456	7.56269E-001	6.54804E-009	0.00000E+000	7.56200E-001	8.00223E-005	4	..........a	-327.66
	228	0.0458	7.66069E-001	6.89105E-009	0.00000E+000	7.66200E-001	8.00223E-005	4	..........a	-327.66
	229	0.046	7.76069E-001	7.24207E-009	0.00000E+000	7.76200E-001	8.00223E-005	4	..........a	-327.66
	230	0.0462	7.86069E-001	7.60408E-009	0.00000E+000	7.86200E-001	8.00223E-005	4	..........a	-327.66
	231	0.0464	7.96070E-001	7.96409E-009	0.00000E+000	7.96200E-001	1.80022E-004	4	..........a	-327.66
CURVE2	TABLE
	Pt	T	Vf	Im	Vu	Sig	Ach	IERange	Over	Temp
	#	s	V vs. Ref.	A	V	V	V	#	bits	deg C
	232	0.0466	7.89869E-001	8.22210E-009	0.00000E+000	7.90000E-001	8.00223E-005	4	..........a	-327.66
	233	0.0468	7.79869E-001	8.42011E-009	0.00000E+000	7.80000E-001	8.00223E-005	4	..........a	-327.66
	234	0.047	7.69870E-001	8.57012E-009	0.00000E+000	7.70000E-001	8.00223E-005	4	..........a	-327.66
	235	0.0472	7.59769E-001	8.69512E-009	0.00000E+000	7.60000E-001	8.00223E-005	4	..........a	-327.66
	236	0.0474	7.49969E-001	8.79013E-009	0.00000E+000	7.50000E-001	8.00223E-005	4	..........a	-327.66
	237	0.0476	7.40070E-001	8.87013E-009	0.00000E+000	7.40000E-001	8.00223E-005	4	..........a	-327.66
	238	0.0478	7.29869E-001	8.92413E-009	0.00000E+000	7.30000E-001	8.00223E-005	4	..........a	-327.66
	239	0.048	7.19869E-001	8.97213E-009	0.00000E+000	7.20000E-001	8.00223E-005	4	..........a	-327.66
	240	0.0482	7.09870E-001	9.00313E-009	0.00000E+000	7.10000E-001	8.00223E-005	4	..........a	-327.66
	241	0.0484	6.99969E-001	9.01713E-009	0.00000E+000	7.00000E-001	8.00223E-005	4	..........a	-327.66
	242	0.0486	6.90069E-001	9.02113E-009	0.00000E+000	6.90000E-001	8.00223E-005	4	..........a	-327.66
	243	0.0488	6.80070E-001	9.02013E-009	0.00000E+000	6.80000E-001	8.00223E-005	4	..........a	-327.66
	244	0.049	6.69819E-001	9.00513E-009	0.00000E+000	6.70000E-001	8.00223E-005	4	..........a	-327.66
	245	0.0492	6.59869E-001	8.98113E-009	0.00000E+000	6.60000E-001	8.00223E-005	4	..........a	-327.66
	246	0.0494	6.49669E-001	8.95213E-009	0.00000E+000	6.50000E-001	8.00223E-005	4	..........a	-327.66
	247	0.0496	6.39870E-001	8.90913E-009	0.00000E+000	6.40000E-001	8.00223E-005	4	..........a	-327.66
	248	0.0498	6.30069E-001	8.86013E-009	0.00000E+000	6.30000E-001	8.00223E-005	4	..........a	-327.66
	249	0.05	6.19969E-001	8.81013E-009	0.00000E+000	6.20000E-001	8.00223E-005	4	..........a	-327.66
	250	0.0502	6.09969E-001	8.74612E-009	0.00000E+000	6.10000E-001	8.00223E-005	4	..........a	-327.66
	251	0.0504	6.00069E-001	8.68212E-009	0.00000E+000	6.00000E-001	8.00223E-005	4	..........a	-327.66
	252	0.0506	5.89869E-001	8.61012E-009	0.00000E+000	5.90000E-001	8.00223E-005	4	..........a	-327.66
	253	0.0508	5.80169E-001	8.53611E-009	0.00000E+000	5.80000E-001	8.00223E-005	4	..........a	-327.66
	254	0.051	5.69719E-001	8.45211E-009	0.00000E+000	5.70000E-001	8.00223E-005	4	..........a	-327.66
	255	0.0512	5.59669E-001	8.36811E-009	0.00000E+000	5.60000E-001	8.00223E-005	4	..........a	-327.66
	256	0.0514	5.49969E-001	8.27310E-009	0.00000E+000	5.50000E-001	8.00223E-005	4	..........a	-327.66
	257	0.0516	5.39869E-001	8.17510E-009	0.00000E+000	5.40000E-001	8.00223E-005	4	..........a	-327.66
	258	0.0518	5.29970E-001	8.07410E-009	0.00000E+000	5.30000E-001	8.00223E-005	4	..........a	-327.66
	259	0.052	5.19769E-001	7.97209E-009	0.00000E+000	5.20000E-001	8.00223E-005	4	..........a	-327.66
	260	0.0522	5.10069E-001	7.85709E-009	0.00000E+000	5.10000E-001	8.00223E-005	4	..........a	-327.66
	261	0.0524	4.99870E-001	7.74209E-009	0.00000E+000	5.00000E-001	8.00223E-005	4	..........a	-327.66
	262	0.0526	4.89970E-001	7.62908E-009	0.00000E+000	4.90000E-001	8.00223E-005	4	..........a	-327.66
	263	0.0528	4.79770E-001	7.50508E-009	0.00000E+000	4.80000E-001	8.00223E-005	4	..........a	-327.66
	264	0.053	4.70070E-001	7.38007E-009	0.00000E+000	4.70000E-001	8.00223E-005	4	..........a	-327.66
	265	0.0532	4.59870E-001	7.25307E-009	0.00000E+000	4.60000E-001	8.00223E-005	4	..........a	-327.66
	266	0.0534	4.50070E-001	7.11706E-009	0.00000E+000	4.50000E-001	8.00223E-005	4	..........a	-327.66
	267	0.0536	4.39970E-001	6.98206E-009	0.00000E+000	4.40000E-001	8.00223E-005	4	..........a	-327.66
	268	0.0538	4.30070E-001	6.84105E-009	0.00000E+000	4.30000E-001	8.00223E-005	4	..........a	-327.66
	269	0.054	4.20070E-001	6.69804E-009	0.00000E+000	4.20000E-001	8.00223E-005	4	..........a	-327.66
	270	0.0542	4.09970E-001	6.55704E-009	0.00000E+000	4.10000E-001	8.00223E-005	4	..........a	-327.66
	271	0.0544	3.99870E-001	6.40703E-009	0.00000E+000	4.00000E-001	8.00223E-005	4	..........a	-327.66
	272	0.0546	3.90070E-001	6.24503E-009	0.00000E+000	3.90000E-001	8.00223E-005	4	..........a	-327.66
	273	0.0548	3.80070E-001	6.09402E-009	0.00000E+000	3.80000E-001	8.00223E-005	4	..........a	-327.66
	274	0.055	3.69970E-001	5.93702E-009	0.00000E+000	3.70000E-001	8.00223E-005	4	..........a	-327.66
	275	0.0552	3.59870E-001	5.77401E-009	0.00000E+000	3.60000E-001	8.00223E-005	4	..........a	-327.66
	276	0.0554	3.49870E-001	5.60500E-009	0.00000E+000	3.50000E-001	8.00223E-005	4	..........a	-327.66
	277	0.0556	3.40070E-001	5.43700E-009	0.00000E+000	3.40000E-001	8.00223E-005	4	..........a	-327.66
	278	0.0558	3.29970E-001	5.26499E-009	0.00000E+000	3.30000E-001	8.00223E-005	4	..........a	-327.66
	279	0.056	3.19970E-001	5.08898E-009	0.00000E+000	3.20000E-001	8.00223E-005	4	..........a	-327.66
	280	0.0562	3.09970E-001	4.90998E-009	0.00000E+000	3.10000E-001	8.00223E-005	4	..........a	-327.66
	281	0.0564	2.99870E-001	4.72697E-009	0.00000E+000	3.00000E-001	8.00223E-005	4	..........a	-327.66
	282	0.0566	2.89870E-001	4.54496E-009	0.00000E+000	2.90000E-001	8.00223E-005	4	..........a	-327.66
	283	0.0568	2.79870E-001	4.35795E-009	0.00000E+000	2.80000E-001	8.00223E-005	4	..........a	-327.66
	284	0.057	2.70070E-001	4.16595E-009	0.00000E+000	2.70000E-001	8.00223E-005	4	..........a	-327.66
	285	0.0572	2.60070E-001	3.96694E-009	0.00000E+000	2.60000E-001	8.00223E-005	4	..........a	-327.66
	286	0.0574	2.50070E-001	3.77393E-009	0.00000E+000	2.50000E-001	8.00223E-005	4	..........a	-327.66
	287	0.0576	2.39970E-001	3.57492E-009	0.00000E+000	2.40000E-001	-2.19978E-004	4	..........a	-327.66
	288	0.0578	2.29870E-001	3.36892E-009	0.00000E+000	2.30000E-001	8.00223E-005	4	..........a	-327.66
	289	0.058	2.20070E-001	3.16891E-009	0.00000E+000	2.20000E-001	8.00223E-005	4	..........a	-327.66
	290	0.0582	2.10070E-001	2.95790E-009	0.00000E+000	2.10000E-001	8.00223E-005	4	..........a	-327.66
	291	0.0584	2.00070E-001	2.74789E-009	0.00000E+000	2.00000E-001	8.00223E-005	4	..........a	-327.66
	292	0.0586	1.89970E-001	2.53188E-009	0.00000E+000	1.90000E-001	8.00223E-005	4	..........a	-327.66
	293	0.0588	1.80120E-001	2.31988E-009	0.00000E+000	1.80000E-001	8.00223E-005	4	..........a	-327.66
	294	0.059	1.70070E-001	2.09787E-009	0.00000E+000	1.70000E-001	8.00223E-005	4	..........a	-327.66
	295	0.0592	1.60070E-001	1.87986E-009	0.00000E+000	1.60000E-001	8.00223E-005	4	..........a	-327.66
	296	0.0594	1.50070E-001	1.65985E-009	0.00000E+000	1.50000E-001	8.00223E-005	4	..........a	-327.66
	297	0.0596	1.40170E-001	1.43884E-009	0.00000E+000	1.40000E-001	8.00223E-005	4	..........a	-327.66
	298	0.0598	1.30070E-001	1.20883E-009	0.00000E+000	1.30000E-001	8.00223E-005	4	..........a	-327.66
	299	0.06	1.20070E-001	9.79825E-010	0.00000E+000	1.20000E-001	8.00223E-005	4	..........a	-327.66
	300	0.0602	1.10070E-001	7.51816E-010	0.00000E+000	1.10000E-001	8.00223E-005	4	..........a	-327.66
	301	0.0604	1.00170E-001	5.24808E-010	0.00000E+000	1.00000E-001	8.00223E-005	4	..........a	-327.66
	302	0.0606	9.00695E-002	2.94799E-010	0.00000E+000	9.00000E-002	8.00223E-005	4	..........a	-327.66
	303	0.0608	8.00695E-002	6.17900E-011	0.00000E+000	8.00000E-002	8.00223E-005	4	..........a	-327.66
	304	0.061	6.98695E-002	-1.76219E-010	0.00000E+000	7.00000E-002	8.00223E-005	4	..........a	-327.66
	305	0.0612	6.00695E-002	-4.10228E-010	0.00000E+000	6.00000E-002	8.00223E-005	4	..........a	-327.66
	306	0.0614	4.97695E-002	-6.46237E-010	0.00000E+000	5.00000E-002	8.00223E-005	4	..........a	-327.66
	307	0.0616	3.99695E-002	-8.78246E-010	0.00000E+000	4.00000E-002	8.00223E-005	4	..........a	-327.66
	308	0.0618	3.00695E-002	-1.11926E-009	0.00000E+000	3.00000E-002	8.00223E-005	4	..........a	-327.66
	309	0.062	1.99695E-002	-1.35626E-009	0.00000E+000	2.00000E-002	8.00223E-005	4	..........a	-327.66
	310	0.0622	1.00695E-002	-1.59227E-009	0.00000E+000	1.00000E-002	8.00223E-005	4	..........a	-327.66
	311	0.0624	-3.04808E-005	-1.83828E-009	0.00000E+000	7.45058E-009	-2.19978E-004	4	..........a	-327.66
	312	0.0626	-1.00305E-002	-2.07229E-009	0.00000E+000	-1.00000E-002	8.00223E-005	4	..........a	-327.66
	313	0.0628	-1.98305E-002	-2.31430E-009	0.00000E+000	-2.00000E-002	8.00223E-005	4	..........a	-327.66
	314	0.063	-3.00305E-002	-2.55331E-009	0.00000E+000	-3.00000E-002	8.00223E-005	4	..........a	-327.66
	315	0.0632	-3.99305E-002	-2.79232E-009	0.00000E+000	-4.00000E-002	8.00223E-005	4	..........a	-327.66
	316	0.0634	-4.99305E-002	-3.02733E-009	0.00000E+000	-5.00000E-002	8.00223E-005	4	..........a	-327.66
	317	0.0636	-5.97305E-002	-3.26934E-009	0.00000E+000	-6.00000E-002	8.00223E-005	4	..........a	-327.66
	318	0.0638	-6.99305E-002	-3.51235E-009	0.00000E+000	-7.00000E-002	8.00223E-005	4	..........a	-327.66
	319	0.064	-7.98305E-002	-3.74936E-009	0.00000E+000	-8.00000E-002	-3.19978E-004	4	..........a	-327.66
	320	0.0642	-8.99305E-002	-3.99237E-009	0.00000E+000	-9.00000E-002	8.00223E-005	4	..........a	-327.66
	321	0.0644	-9.97305E-002	-4.23838E-009	0.00000E+000	-1.00000E-001	8.00223E-005	4	..........a	-327.66
	322	0.0646	-1.10030E-001	-4.47638E-009	0.00000E+000	-1.10000E-001	8.00223E-005	4	..........a	-327.66
	323	0.0648	-1.19930E-001	-4.71839E-009	0.00000E+000	-1.20000E-001	8.00223E-005	4	..........a	-327.66
	324	0.065	-1.30030E-001	-4.95340E-009	0.00000E+000	-1.30000E-001	8.00223E-005	4	..........a	-327.66
	325	0.0652	-1.39930E-001	-5.19841E-009	0.00000E+000	-1.40000E-001	8.00223E-005	4	..........a	-327.66
	326	0.0654	-1.49930E-001	-5.44242E-009	0.00000E+000	-1.50000E-001	8.00223E-005	4	..........a	-327.66
	327	0.0656	-1.59930E-001	-5.67943E-009	0.00000E+000	-1.60000E-001	8.00223E-005	4	..........a	-327.66
	328	0.0658	-1.69930E-001	-5.91944E-009	0.00000E+000	-1.70000E-001	8.00223E-005	4	..........a	-327.66
	329	0.066	-1.79830E-001	-6.16045E-009	0.00000E+000	-1.80000E-001	8.00223E-005	4	..........a	-327.66
	330	0.0662	-1.90230E-001	-6.40746E-009	0.00000E+000	-1.90000E-001	8.00223E-005	4	..........a	-327.66
	331	0.0664	-1.99830E-001	-6.65047E-009	0.00000E+000	-2.00000E-001	8.00223E-005	4	..........a	-327.66
	332	0.0666	-2.10030E-001	-6.88948E-009	0.00000E+000	-2.10000E-001	8.00223E-005	4	..........a	-327.66
	333	0.0668	-2.19830E-001	-7.13149E-009	0.00000E+000	-2.20000E-001	8.00223E-005	4	..........a	-327.66
	334	0.067	-2.29930E-001	-7.37250E-009	0.00000E+000	-2.30000E-001	8.00223E-005	4	..........a	-327.66
	335	0.0672	-2.39830E-001	-7.61450E-009	0.00000E+000	-2.40000E-001	8.00223E-005	4	..........a	-327.66
	336	0.0674	-2.49930E-001	-7.85151E-009	0.00000E+000	-2.50000E-001	8.00223E-005	4	..........a	-327.66
	337	0.0676	-2.59930E-001	-8.09652E-009	0.00000E+000	-2.60000E-001	8.00223E-005	4	..........a	-327.66
	338	0.0678	-2.69930E-001	-8.34453E-009	0.00000E+000	-2.70000E-001	8.00223E-005	4	..........a	-327.66
	339	0.068	-2.79930E-001	-8.58454E-009	0.00000E+000	-2.80000E-001	8.00223E-005	4	..........a	-327.66
	340	0.0682	-2.90030E-001	-8.82755E-009	0.00000E+000	-2.90000E-001	8.00223E-005	4	..........a	-327.66
	341	0.0684	-2.99830E-001	-9.06856E-009	0.00000E+000	-3.00000E-001	8.00223E-005	4	..........a	-327.66
	342	0.0686	-3.09930E-001	-9.31657E-009	0.00000E+000	-3.10000E-001	8.00223E-005	4	..........a	-327.66
	343	0.0688	-3.19530E-001	-9.55858E-009	0.00000E+000	-3.20000E-001	8.00223E-005	4	..........a	-327.66
	344	0.069	-3.29930E-001	-9.80159E-009	0.00000E+000	-3.30000E-001	8.00223E-005	4	..........a	-327.66
	345	0.0692	-3.39630E-001	-1.00466E-008	0.00000E+000	-3.40000E-001	8.00223E-005	4	..........a	-327.66
[...]
	2604	0.521	-5.29730E-001	-1.11566E-008	0.00000E+000	-5.30000E-001	8.00223E-005	4	..........a	-327.66
	2605	0.5212	-5.39831E-001	-1.14077E-008	0.00000E+000	-5.40000E-001	8.00223E-005	4	..........a	-327.66
	2606	0.5214	-5.49931E-001	-1.16747E-008	0.00000E+000	-5.50000E-001	8.00223E-005	4	..........a	-327.66
	2607	0.5216	-5.59730E-001	-1.19307E-008	0.00000E+000	-5.60000E-001	8.00223E-005	4	..........a	-327.66
	2608	0.5218	-5.69631E-001	-1.22047E-008	0.00000E+000	-5.70000E-001	8.00223E-005	4	..........a	-327.66
	2609	0.522	-5.79830E-001	-1.24687E-008	0.00000E+000	-5.80000E-001	8.00223E-005	4	..........a	-327.66
	2610	0.5222	-5.89930E-001	-1.27397E-008	0.00000E+000	-5.90000E-001	8.00223E-005	4	..........a	-327.66
	2611	0.5224	-5.99831E-001	-1.30137E-008	0.00000E+000	-6.00000E-001	8.00223E-005	4	..........a	-327.66
	2612	0.5226	-5.89930E-001	-1.31597E-008	0.00000E+000	-5.90000E-001	8.00223E-005	4	..........a	-327.66
	2613	0.5228	-5.79731E-001	-1.32757E-008	0.00000E+000	-5.80000E-001	8.00223E-005	4	..........a	-327.66
	2614	0.523	-5.69830E-001	-1.33737E-008	0.00000E+000	-5.70000E-001	8.00223E-005	4	..........a	-327.66
	2615	0.5232	-5.59931E-001	-1.34477E-008	0.00000E+000	-5.60000E-001	-3.19978E-004	4	..........a	-327.66
	2616	0.5234	-5.49931E-001	-1.35107E-008	0.00000E+000	-5.50000E-001	8.00223E-005	4	..........a	-327.66
	2617	0.5236	-5.39730E-001	-1.35557E-008	0.00000E+000	-5.40000E-001	8.00223E-005	4	..........a	-327.66
	2618	0.5238	-5.29730E-001	-1.35867E-008	0.00000E+000	-5.30000E-001	8.00223E-005	4	..........a	-327.66
	2619	0.524	-5.19830E-001	-1.36057E-008	0.00000E+000	-5.20000E-001	8.00223E-005	4	..........a	-327.66
	2620	0.5242	-5.09830E-001	-1.36187E-008	0.00000E+000	-5.10000E-001	8.00223E-005	4	..........a	-327.66
	2621	0.5244	-4.99830E-001	-1.36157E-008	0.00000E+000	-5.00000E-001	8.00223E-005	4	..........a	-327.66
	2622	0.5246	-4.89930E-001	-1.36077E-008	0.00000E+000	-4.90000E-001	8.00223E-005	4	..........a	-327.66
	2623	0.5248	-4.79830E-001	-1.35917E-008	0.00000E+000	-4.80000E-001	8.00223E-005	4	..........a	-327.66
	2624	0.525	-4.69780E-001	-1.35637E-008	0.00000E+000	-4.70000E-001	8.00223E-005	4	..........a	-327.66
	2625	0.5252	-4.59630E-001	-1.35377E-008	0.00000E+000	-4.60000E-001	8.00223E-005	4	..........a	-327.66
	2626	0.5254	-4.49930E-001	-1.34947E-008	0.00000E+000	-4.50000E-001	8.00223E-005	4	..........a	-327.66
	2627	0.5256	-4.39730E-001	-1.34457E-008	0.00000E+000	-4.40000E-001	8.00223E-005	4	..........a	-327.66
	2628	0.5258	-4.29930E-001	-1.33957E-008	0.00000E+000	-4.30000E-001	8.00223E-005	4	..........a	-327.66
	2629	0.526	-4.20330E-001	-1.33327E-008	0.00000E+000	-4.20000E-001	8.00223E-005	4	..........a	-327.66
	2630	0.5262	-4.09930E-001	-1.32667E-008	0.00000E+000	-4.10000E-001	8.00223E-005	4	..........a	-327.66
	2631	0.5264	-4.00030E-001	-1.32017E-008	0.00000E+000	-4.00000E-001	8.00223E-005	4	..........a	-327.66
	2632	0.5266	-3.89830E-001	-1.31247E-008	0.00000E+000	-3.90000E-001	8.00223E-005	4	..........a	-327.66
	2633	0.5268	-3.79930E-001	-1.30387E-008	0.00000E+000	-3.80000E-001	8.00223E-005	4	..........a	-327.66
	2634	0.527	-3.69830E-001	-1.29487E-008	0.00000E+000	-3.70000E-001	8.00223E-005	4	..........a	-327.66
	2635	0.5272	-3.59930E-001	-1.28617E-008	0.00000E+000	-3.60000E-001	8.00223E-005	4	..........a	-327.66
	2636	0.5274	-3.49830E-001	-1.27627E-008	0.00000E+000	-3.50000E-001	8.00223E-005	4	..........a	-327.66
	2637	0.5276	-3.39730E-001	-1.26627E-008	0.00000E+000	-3.40000E-001	8.00223E-005	4	..........a	-327.66
	2638	0.5278	-3.29930E-001	-1.25567E-008	0.00000E+000	-3.30000E-001	8.00223E-005	4	..........a	-327.66
	2639	0.528	-3.19730E-001	-1.24477E-008	0.00000E+000	-3.20000E-001	8.00223E-005	4	..........a	-327.66
	2640	0.5282	-3.09930E-001	-1.23387E-008	0.00000E+000	-3.10000E-001	-3.19978E-004	4	..........a	-327.66
	2641	0.5284	-2.99930E-001	-1.22167E-008	0.00000E+000	-3.00000E-001	8.00223E-005	4	..........a	-327.66
	2642	0.5286	-2.89930E-001	-1.20967E-008	0.00000E+000	-2.90000E-001	8.00223E-005	4	..........a	-327.66
	2643	0.5288	-2.80030E-001	-1.19737E-008	0.00000E+000	-2.80000E-001	8.00223E-005	4	..........a	-327.66
	2644	0.529	-2.69930E-001	-1.18457E-008	0.00000E+000	-2.70000E-001	8.00223E-005	4	..........a	-327.66
	2645	0.5292	-2.59830E-001	-1.17157E-008	0.00000E+000	-2.60000E-001	8.00223E-005	4	..........a	-327.66
	2646	0.5294	-2.50030E-001	-1.15787E-008	0.00000E+000	-2.50000E-001	8.00223E-005	4	..........a	-327.66
	2647	0.5296	-2.39930E-001	-1.14427E-008	0.00000E+000	-2.40000E-001	8.00223E-005	4	..........a	-327.66
	2648	0.5298	-2.29930E-001	-1.13066E-008	0.00000E+000	-2.30000E-001	8.00223E-005	4	..........a	-327.66
	2649	0.53	-2.19830E-001	-1.11626E-008	0.00000E+000	-2.20000E-001	8.00223E-005	4	..........a	-327.66
	2650	0.5302	-2.09930E-001	-1.10186E-008	0.00000E+000	-2.10000E-001	8.00223E-005	4	..........a	-327.66
	2651	0.5304	-1.99830E-001	-1.08696E-008	0.00000E+000	-2.00000E-001	8.00223E-005	4	..........a	-327.66
	2652	0.5306	-1.89830E-001	-1.07226E-008	0.00000E+000	-1.90000E-001	8.00223E-005	4	..........a	-327.66
	2653	0.5308	-1.79830E-001	-1.05676E-008	0.00000E+000	-1.80000E-001	8.00223E-005	4	..........a	-327.66
	2654	0.531	-1.69930E-001	-1.04126E-008	0.00000E+000	-1.70000E-001	8.00223E-005	4	..........a	-327.66
	2655	0.5312	-1.59930E-001	-1.02506E-008	0.00000E+000	-1.60000E-001	8.00223E-005	4	..........a	-327.66
	2656	0.5314	-1.49930E-001	-1.00946E-008	0.00000E+000	-1.50000E-001	-3.19978E-004	4	..........a	-327.66
	2657	0.5316	-1.39830E-001	-9.93459E-009	0.00000E+000	-1.40000E-001	8.00223E-005	4	..........a	-327.66
	2658	0.5318	-1.29930E-001	-9.76859E-009	0.00000E+000	-1.30000E-001	8.00223E-005	4	..........a	-327.66
	2659	0.532	-1.19930E-001	-9.60358E-009	0.00000E+000	-1.20000E-001	8.00223E-005	4	..........a	-327.66
	2660	0.5322	-1.10030E-001	-9.43758E-009	0.00000E+000	-1.10000E-001	-3.19978E-004	4	..........a	-327.66
	2661	0.5324	-9.99305E-002	-9.26657E-009	0.00000E+000	-1.00000E-001	-3.19978E-004	4	..........a	-327.66
	2662	0.5326	-8.99305E-002	-9.09656E-009	0.00000E+000	-9.00000E-002	8.00223E-005	4	..........a	-327.66
	2663	0.5328	-7.96305E-002	-8.92556E-009	0.00000E+000	-8.00000E-002	8.00223E-005	4	..........a	-327.66
	2664	0.533	-6.98305E-002	-8.75255E-009	0.00000E+000	-7.00000E-002	8.00223E-005	4	..........a	-327.66
	2665	0.5332	-5.97305E-002	-8.58054E-009	0.00000E+000	-6.00000E-002	8.00223E-005	4	..........a	-327.66
	2666	0.5334	-4.99305E-002	-8.39553E-009	0.00000E+000	-5.00000E-002	8.00223E-005	4	..........a	-327.66
	2667	0.5336	-3.99305E-002	-8.21653E-009	0.00000E+000	-4.00000E-002	8.00223E-005	4	..........a	-327.66
	2668	0.5338	-2.99305E-002	-8.02852E-009	0.00000E+000	-3.00000E-002	8.00223E-005	4	..........a	-327.66
	2669	0.534	-1.99305E-002	-7.85051E-009	0.00000E+000	-2.00000E-002	8.00223E-005	4	..........a	-327.66
	2670	0.5342	-9.93048E-003	-7.66651E-009	0.00000E+000	-1.00000E-002	8.00223E-005	4	..........a	-327.66
	2671	0.5344	1.69519E-004	-7.47850E-009	0.00000E+000	7.45058E-009	8.00223E-005	4	..........a	-327.66
	2672	0.5346	1.00695E-002	-7.29249E-009	0.00000E+000	1.00000E-002	8.00223E-005	4	..........a	-327.66
	2673	0.5348	2.01695E-002	-7.10049E-009	0.00000E+000	2.00000E-002	8.00223E-005	4	..........a	-327.66
	2674	0.535	3.00695E-002	-6.91148E-009	0.00000E+000	3.00000E-002	8.00223E-005	4	..........a	-327.66
	2675	0.5352	4.01695E-002	-6.71747E-009	0.00000E+000	4.00000E-002	-1.19978E-004	4	..........a	-327.66
	2676	0.5354	5.01695E-002	-6.52346E-009	0.00000E+000	5.00000E-002	8.00223E-005	4	..........a	-327.66
	2677	0.5356	6.00695E-002	-6.32546E-009	0.00000E+000	6.00000E-002	8.00223E-005	4	..........a	-327.66
	2678	0.5358	6.99695E-002	-6.13145E-009	0.00000E+000	7.00000E-002	8.00223E-005	4	..........a	-327.66
	2679	0.536	8.01695E-002	-5.93044E-009	0.00000E+000	8.00000E-002	8.00223E-005	4	..........a	-327.66
	2680	0.5362	9.00695E-002	-5.73043E-009	0.00000E+000	9.00000E-002	8.00223E-005	4	..........a	-327.66
	2681	0.5364	1.00070E-001	-5.53242E-009	0.00000E+000	1.00000E-001	8.00223E-005	4	..........a	-327.66
	2682	0.5366	1.10070E-001	-5.32742E-009	0.00000E+000	1.10000E-001	8.00223E-005	4	..........a	-327.66
	2683	0.5368	1.20170E-001	-5.11841E-009	0.00000E+000	1.20000E-001	8.00223E-005	4	..........a	-327.66
	2684	0.537	1.30070E-001	-4.91040E-009	0.00000E+000	1.30000E-001	8.00223E-005	4	..........a	-327.66
	2685	0.5372	1.40120E-001	-4.70239E-009	0.00000E+000	1.40000E-001	8.00223E-005	4	..........a	-327.66
	2686	0.5374	1.50070E-001	-4.49139E-009	0.00000E+000	1.50000E-001	8.00223E-005	4	..........a	-327.66
	2687	0.5376	1.60070E-001	-4.28038E-009	0.00000E+000	1.60000E-001	8.00223E-005	4	..........a	-327.66
	2688	0.5378	1.70070E-001	-4.06237E-009	0.00000E+000	1.70000E-001	8.00223E-005	4	..........a	-327.66
	2689	0.538	1.80120E-001	-3.84636E-009	0.00000E+000	1.80000E-001	8.00223E-005	4	..........a	-327.66
	2690	0.5382	1.90070E-001	-3.62535E-009	0.00000E+000	1.90000E-001	8.00223E-005	4	..........a	-327.66
	2691	0.5384	2.00070E-001	-3.40534E-009	0.00000E+000	2.00000E-001	8.00223E-005	4	..........a	-327.66
	2692	0.5386	2.09970E-001	-3.18033E-009	0.00000E+000	2.10000E-001	8.00223E-005	4	..........a	-327.66
	2693	0.5388	2.20070E-001	-2.96033E-009	0.00000E+000	2.20000E-001	8.00223E-005	4	..........a	-327.66
	2694	0.539	2.30070E-001	-2.73632E-009	0.00000E+000	2.30000E-001	8.00223E-005	4	..........a	-327.66
	2695	0.5392	2.40070E-001	-2.50631E-009	0.00000E+000	2.40000E-001	8.00223E-005	4	..........a	-327.66
	2696	0.5394	2.49870E-001	-2.27830E-009	0.00000E+000	2.50000E-001	8.00223E-005	4	..........a	-327.66
	2697	0.5396	2.60070E-001	-2.04229E-009	0.00000E+000	2.60000E-001	8.00223E-005	4	..........a	-327.66
	2698	0.5398	2.69970E-001	-1.80628E-009	0.00000E+000	2.70000E-001	-3.19978E-004	4	..........a	-327.66
	2699	0.54	2.80070E-001	-1.57427E-009	0.00000E+000	2.80000E-001	8.00223E-005	4	..........a	-327.66
	2700	0.5402	2.90070E-001	-1.33526E-009	0.00000E+000	2.90000E-001	8.00223E-005	4	..........a	-327.66
	2701	0.5404	3.00170E-001	-1.09625E-009	0.00000E+000	3.00000E-001	8.00223E-005	4	..........a	-327.66
	2702	0.5406	3.10070E-001	-8.59245E-010	0.00000E+000	3.10000E-001	8.00223E-005	4	..........a	-327.66
	2703	0.5408	3.20070E-001	-6.14236E-010	0.00000E+000	3.20000E-001	8.00223E-005	4	..........a	-327.66
	2704	0.541	3.30070E-001	-3.66226E-010	0.00000E+000	3.30000E-001	8.00223E-005	4	..........a	-327.66
	2705	0.5412	3.39970E-001	-1.23217E-010	0.00000E+000	3.40000E-001	8.00223E-005	4	..........a	-327.66
	2706	0.5414	3.49870E-001	1.27793E-010	0.00000E+000	3.50000E-001	8.00223E-005	4	..........a	-327.66
	2707	0.5416	3.59970E-001	3.75802E-010	0.00000E+000	3.60000E-001	8.00223E-005	4	..........a	-327.66
	2708	0.5418	3.70070E-001	6.29812E-010	0.00000E+000	3.70000E-001	8.00223E-005	4	..........a	-327.66
	2709	0.542	3.80070E-001	8.80821E-010	0.00000E+000	3.80000E-001	8.00223E-005	4	..........a	-327.66
	2710	0.5422	3.90070E-001	1.13683E-009	0.00000E+000	3.90000E-001	8.00223E-005	4	..........a	-327.66
	2711	0.5424	4.00170E-001	1.39284E-009	0.00000E+000	4.00000E-001	8.00223E-005	4	..........a	-327.66
	2712	0.5426	4.10070E-001	1.64785E-009	0.00000E+000	4.10000E-001	8.00223E-005	4	..........a	-327.66
	2713	0.5428	4.19870E-001	1.90486E-009	0.00000E+000	4.20000E-001	8.00223E-005	4	..........a	-327.66
	2714	0.543	4.29920E-001	2.16487E-009	0.00000E+000	4.30000E-001	8.00223E-005	4	..........a	-327.66
	2715	0.5432	4.39820E-001	2.42588E-009	0.00000E+000	4.40000E-001	8.00223E-005	4	..........a	-327.66
	2716	0.5434	4.49670E-001	2.68789E-009	0.00000E+000	4.50000E-001	8.00223E-005	4	..........a	-327.66
	2717	0.5436	4.60270E-001	2.95190E-009	0.00000E+000	4.60000E-001	8.00223E-005	4	..........a	-327.66
	2718	0.5438	4.70070E-001	3.22091E-009	0.00000E+000	4.70000E-001	8.00223E-005	4	..........a	-327.66
	2719	0.544	4.79770E-001	3.48392E-009	0.00000E+000	4.80000E-001	8.00223E-005	4	..........a	-327.66
	2720	0.5442	4.89870E-001	3.74793E-009	0.00000E+000	4.90000E-001	8.00223E-005	4	..........a	-327.66
	2721	0.5444	4.99770E-001	4.01994E-009	0.00000E+000	5.00000E-001	8.00223E-005	4	..........a	-327.66
	2722	0.5446	5.09969E-001	4.29695E-009	0.00000E+000	5.10000E-001	-3.19978E-004	4	..........a	-327.66
	2723	0.5448	5.19870E-001	4.56696E-009	0.00000E+000	5.20000E-001	8.00223E-005	4	..........a	-327.66
	2724	0.545	5.30069E-001	4.83997E-009	0.00000E+000	5.30000E-001	8.00223E-005	4	..........a	-327.66
	2725	0.5452	5.40169E-001	5.12198E-009	0.00000E+000	5.40000E-001	-3.19978E-004	4	..........a	-327.66
	2726	0.5454	5.49969E-001	5.39599E-009	0.00000E+000	5.50000E-001	-3.19978E-004	4	..........a	-327.66
	2727	0.5456	5.59869E-001	5.67401E-009	0.00000E+000	5.60000E-001	8.00223E-005	4	..........a	-327.66
	2728	0.5458	5.69969E-001	5.95502E-009	0.00000E+000	5.70000E-001	8.00223E-005	4	..........a	-327.66
	2729	0.546	5.79969E-001	6.24203E-009	0.00000E+000	5.80000E-001	-1.19978E-004	4	..........a	-327.66
	2730	0.5462	5.89969E-001	6.52804E-009	0.00000E+000	5.90000E-001	8.00223E-005	4	..........a	-327.66
	2731	0.5464	5.99970E-001	6.81705E-009	0.00000E+000	6.00000E-001	-3.19978E-004	4	..........a	-327.66
	2732	0.5466	6.09869E-001	7.10406E-009	0.00000E+000	6.10000E-001	8.00223E-005	4	..........a	-327.66
	2733	0.5468	6.19869E-001	7.39607E-009	0.00000E+000	6.20000E-001	8.00223E-005	4	..........a	-327.66
	2734	0.547	6.29969E-001	7.69208E-009	0.00000E+000	6.30000E-001	8.00223E-005	4	..........a	-327.66
	2735	0.5472	6.39969E-001	7.99009E-009	0.00000E+000	6.40000E-001	8.00223E-005	4	..........a	-327.66
	2736	0.5474	6.50069E-001	8.28911E-009	0.00000E+000	6.50000E-001	8.00223E-005	4	..........a	-327.66
	2737	0.5476	6.59869E-001	8.59312E-009	0.00000E+000	6.60000E-001	8.00223E-005	4	..........a	-327.66
	2738	0.5478	6.69869E-001	8.89813E-009	0.00000E+000	6.70000E-001	-2.19978E-004	4	..........a	-327.66
	2739	0.548	6.79769E-001	9.20414E-009	0.00000E+000	6.80000E-001	8.00223E-005	4	..........a	-327.66
	2740	0.5482	6.89770E-001	9.51515E-009	0.00000E+000	6.90000E-001	8.00223E-005	4	..........a	-327.66
	2741	0.5484	6.99769E-001	9.83017E-009	0.00000E+000	7.00000E-001	8.00223E-005	4	..........a	-327.66
	2742	0.5486	7.09870E-001	1.01442E-008	0.00000E+000	7.10000E-001	8.00223E-005	4	..........a	-327.66
	2743	0.5488	7.19769E-001	1.04622E-008	0.00000E+000	7.20000E-001	8.00223E-005	4	..........a	-327.66
	2744	0.549	7.30069E-001	1.07932E-008	0.00000E+000	7.30000E-001	8.00223E-005	4	..........a	-327.66
	2745	0.5492	7.39769E-001	1.11202E-008	0.00000E+000	7.40000E-001	8.00223E-005	4	..........a	-327.66
	2746	0.5494	7.49869E-001	1.14542E-008	0.00000E+000	7.50000E-001	8.00223E-005	4	..........a	-327.66
	2747	0.5496	7.59669E-001	1.17882E-008	0.00000E+000	7.60000E-001	8.00223E-005	4	..........a	-327.66
	2748	0.5498	7.69769E-001	1.21353E-008	0.00000E+000	7.70000E-001	8.00223E-005	4	..........a	-327.66
	2749	0.55	7.79869E-001	1.24843E-008	0.00000E+000	7.80000E-001	8.00223E-005	4	..........a	-327.66
	2750	0.5502	7.89970E-001	1.28363E-008	0.00000E+000	7.90000E-001	8.00223E-005	4	..........a	-327.66
	2751	0.5504	7.99869E-001	1.31933E-008	0.00000E+000	8.00000E-001	-2.19978E-004	4	..........a	-327.66
CURVE11	TABLE
	Pt	T	Vf	Im	Vu	Sig	Ach	IERange	Over	Temp
	#	s	V vs. Ref.	A	V	V	V	#	bits	deg C
	2752	0.5506	7.89869E-001	1.34253E-008	0.00000E+000	7.90000E-001	8.00223E-005	4	..........a	-327.66
	2753	0.5508	7.79769E-001	1.35953E-008	0.00000E+000	7.80000E-001	8.00223E-005	4	..........a	-327.66
	2754	0.551	7.69969E-001	1.37373E-008	0.00000E+000	7.70000E-001	8.00223E-005	4	..........a	-327.66
	2755	0.5512	7.59869E-001	1.38493E-008	0.00000E+000	7.60000E-001	8.00223E-005	4	..........a	-327.66
	2756	0.5514	7.49869E-001	1.39343E-008	0.00000E+000	7.50000E-001	8.00223E-005	4	..........a	-327.66
	2757	0.5516	7.39769E-001	1.40003E-008	0.00000E+000	7.40000E-001	8.00223E-005	4	..........a	-327.66
	2758	0.5518	7.29869E-001	1.40443E-008	0.00000E+000	7.30000E-001	-2.19978E-004	4	..........a	-327.66
	2759	0.552	7.19769E-001	1.40773E-008	0.00000E+000	7.20000E-001	8.00223E-005	4	..........a	-327.66
	2760	0.5522	7.09870E-001	1.40953E-008	0.00000E+000	7.10000E-001	8.00223E-005	4	..........a	-327.66
	2761	0.5524	6.99769E-001	1.41003E-008	0.00000E+000	7.00000E-001	8.00223E-005	4	..........a	-327.66
	2762	0.5526	6.89869E-001	1.40953E-008	0.00000E+000	6.90000E-001	8.00223E-005	4	..........a	-327.66
	2763	0.5528	6.79669E-001	1.40753E-008	0.00000E+000	6.80000E-001	8.00223E-005	4	..........a	-327.66
	2764	0.553	6.69869E-001	1.40463E-008	0.00000E+000	6.70000E-001	8.00223E-005	4	..........a	-327.66
	2765	0.5532	6.59869E-001	1.40143E-008	0.00000E+000	6.60000E-001	8.00223E-005	4	..........a	-327.66
	2766	0.5534	6.49769E-001	1.39703E-008	0.00000E+000	6.50000E-001	8.00223E-005	4	..........a	-327.66
	2767	0.5536	6.39669E-001	1.39143E-008	0.00000E+000	6.40000E-001	8.00223E-005	4	..........a	-327.66
	2768	0.5538	6.29869E-001	1.38583E-008	0.00000E+000	6.30000E-001	8.00223E-005	4	..........a	-327.66
	2769	0.554	6.19769E-001	1.37933E-008	0.00000E+000	6.20000E-001	-2.19978E-004	4	..........a	-327.66
	2770	0.5542	6.09769E-001	1.37193E-008	0.00000E+000	6.10000E-001	8.00223E-005	4	..........a	-327.66
	2771	0.5544	5.99819E-001	1.36413E-008	0.00000E+000	6.00000E-001	8.00223E-005	4	..........a	-327.66
	2772	0.5546	5.89969E-001	1.35573E-008	0.00000E+000	5.90000E-001	8.00223E-005	4	..........a	-327.66
	2773	0.5548	5.79870E-001	1.34623E-008	0.00000E+000	5.80000E-001	8.00223E-005	4	..........a	-327.66
	2774	0.555	5.69869E-001	1.33663E-008	0.00000E+000	5.70000E-001	8.00223E-005	4	..........a	-327.66
	2775	0.5552	5.59770E-001	1.32643E-008	0.00000E+000	5.60000E-001	8.00223E-005	4	..........a	-327.66
	2776	0.5554	5.49919E-001	1.31553E-008	0.00000E+000	5.50000E-001	8.00223E-005	4	..........a	-327.66
	2777	0.5556	5.39970E-001	1.30443E-008	0.00000E+000	5.40000E-001	8.00223E-005	4	..........a	-327.66
	2778	0.5558	5.29970E-001	1.29263E-008	0.00000E+000	5.30000E-001	8.00223E-005	4	..........a	-327.66
	2779	0.556	5.19870E-001	1.28063E-008	0.00000E+000	5.20000E-001	8.00223E-005	4	..........a	-327.66
	2780	0.5562	5.09870E-001	1.26803E-008	0.00000E+000	5.10000E-001	8.00223E-005	4	..........a	-327.66
	2781	0.5564	5.00170E-001	1.25473E-008	0.00000E+000	5.00000E-001	8.00223E-005	4	..........a	-327.66
	2782	0.5566	4.89870E-001	1.24153E-008	0.00000E+000	4.90000E-001	8.00223E-005	4	..........a	-327.66
	2783	0.5568	4.79970E-001	1.22753E-008	0.00000E+000	4.80000E-001	8.00223E-005	4	..........a	-327.66
	2784	0.557	4.70020E-001	1.21333E-008	0.00000E+000	4.70000E-001	8.00223E-005	4	..........a	-327.66
	2785	0.5572	4.59970E-001	1.19882E-008	0.00000E+000	4.60000E-001	8.00223E-005	4	..........a	-327.66
	2786	0.5574	4.49670E-001	1.18352E-008	0.00000E+000	4.50000E-001	8.00223E-005	4	..........a	-327.66
	2787	0.5576	4.39970E-001	1.16802E-008	0.00000E+000	4.40000E-001	8.00223E-005	4	..........a	-327.66
	2788	0.5578	4.29820E-001	1.15232E-008	0.00000E+000	4.30000E-001	8.00223E-005	4	..........a	-327.66
	2789	0.558	4.19970E-001	1.13562E-008	0.00000E+000	4.20000E-001	8.00223E-005	4	..........a	-327.66
	2790	0.5582	4.09970E-001	1.11942E-008	0.00000E+000	4.10000E-001	8.00223E-005	4	..........a	-327.66
	2791	0.5584	3.99770E-001	1.10232E-008	0.00000E+000	4.00000E-001	8.00223E-005	4	..........a	-327.66
	2792	0.5586	3.89970E-001	1.08462E-008	0.00000E+000	3.90000E-001	8.00223E-005	4	..........a	-327.66
	2793	0.5588	3.79870E-001	1.06772E-008	0.00000E+000	3.80000E-001	8.00223E-005	4	..........a	-327.66
	2794	0.559	3.69770E-001	1.04982E-008	0.00000E+000	3.70000E-001	8.00223E-005	4	..........a	-327.66
	2795	0.5592	3.59970E-001	1.03082E-008	0.00000E+000	3.60000E-001	8.00223E-005	4	..........a	-327.66
	2796	0.5594	3.49970E-001	1.01252E-008	0.00000E+000	3.50000E-001	8.00223E-005	4	..........a	-327.66
	2797	0.5596	3.40070E-001	9.93417E-009	0.00000E+000	3.40000E-001	8.00223E-005	4	..........a	-327.66
	2798	0.5598	3.30070E-001	9.73716E-009	0.00000E+000	3.30000E-001	8.00223E-005	4	..........a	-327.66
	2799	0.56	3.20070E-001	9.54415E-009	0.00000E+000	3.20000E-001	8.00223E-005	4	..........a	-327.66
	2800	0.5602	3.09970E-001	9.34215E-009	0.00000E+000	3.10000E-001	8.00223E-005	4	..........a	-327.66