File: example_project/raw_outputs/20240424_ZQ_GM0016_HL03_E11_CV50.DTA
EXPLAIN
TAG	CV
TITLE	LABEL	Cyclic Voltammetry	Test &Identifier
DATE	LABEL	4/24/2024	Date
TIME	LABEL	19:06:35	Time
NOTES	NOTES	1	&Notes...

PSTAT	PSTAT	REF600P-43058	Potentiostat
VINIT	POTEN	0.00000E+000	T	Initial &E (V)
VLIMIT1	POTEN	-6.00000E-001	F	Scan Limit &1 (V)
VLIMIT2	POTEN	8.00000E-001	F	Scan Limit &2 (V)
VFINAL	POTEN	0.00000E+000	T	Final &E (V)
SCANRATE	QUANT	4.99999E+001	&Scan Rate (mV/s)
STEPSIZE	QUANT	1.00000E+001	St&ep Size (mV)
CYCLES	IQUANT	4	C&ycles (#)
IMODE	SELECTOR	0	I/E Range &Mode
IRANGE	QUANT	1.00000E-005	&Max Current (mA)
AREA	QUANT	1.00000E+000	Electrode &Area (cm^2)
ELECTRODETYPE	SELECTOR	0	Electrode Type
STRIPPING	TOGGLE	F	Used for Stripping
POLARITY	TOGGLE	F	Signal Polarity
CONDIT	TWOPARAM	F	1.50000E+001	0.00000E+000	Conditionin&g	Time(s)	E(V)
DELAY	TWOPARAM	T	1.00000E+001	0.00000E+000	Init. De&lay	Time(s)	Stab.(mV/s)
EQDELAY	QUANT	1.00000E+001	Equil. &Time (s)
IRCOMP	SELECTOR	0	IRCom&p
PFCOR	QUANT	5.00000E+001	PF Corr. (ohm)
SAMPLINGMODE	SELECTOR	1	Sampling &Mode
OCVCURVE	TABLE	39
	Pt	T	Vf	Vm	Ach	Over	Temp
	#	s	V vs. Ref.	V	V	bits	deg C
	0	0.258333	-1.23083E-002	-1.23083E-002	2.35326E-004	..........a	-327.66
	1	0.516667	-1.23086E-002	-1.23211E-002	2.43726E-004	..........a	-327.66
	2	0.775	-1.23100E-002	-1.23331E-002	2.45526E-004	..........a	-327.66
	3	1.03333	-1.23143E-002	-1.23452E-002	2.51526E-004	..........a	-327.66
	4	1.29167	-1.23219E-002	-1.23564E-002	2.35859E-004	..........a	-327.66
	5	1.55	-1.23321E-002	-1.23690E-002	2.51126E-004	..........a	-327.66
	6	1.80833	-1.23437E-002	-1.23819E-002	2.46126E-004	..........a	-327.66
	7	2.06667	-1.23558E-002	-1.23921E-002	2.30192E-004	..........a	-327.66
	8	2.325	-1.23679E-002	-1.24031E-002	2.50792E-004	..........a	-327.66
	9	2.58333	-1.23798E-002	-1.24171E-002	2.44326E-004	..........a	-327.66
	10	2.84167	-1.23916E-002	-1.24282E-002	2.53926E-004	..........a	-327.66
	11	3.1	-1.24033E-002	-1.24390E-002	2.41526E-004	..........a	-327.66
	12	3.35833	-1.24151E-002	-1.24480E-002	2.38992E-004	..........a	-327.66
	13	3.61667	-1.24266E-002	-1.24600E-002	2.44126E-004	..........a	-327.66
	14	3.875	-1.24375E-002	-1.24692E-002	2.38726E-004	..........a	-327.66
	15	4.13333	-1.24481E-002	-1.24791E-002	2.38259E-004	..........a	-327.66
	16	4.39167	-1.24584E-002	-1.24886E-002	2.51792E-004	..........a	-327.66
	17	4.65	-1.24685E-002	-1.25021E-002	2.54992E-004	..........a	-327.66
	18	4.90833	-1.24787E-002	-1.25114E-002	2.46859E-004	..........a	-327.66
	19	5.16667	-1.24892E-002	-1.25218E-002	2.44526E-004	..........a	-327.66
	20	5.425	-1.24999E-002	-1.25317E-002	2.46726E-004	..........a	-327.66
	21	5.68333	-1.25105E-002	-1.25419E-002	2.37859E-004	..........a	-327.66
	22	5.94167	-1.25208E-002	-1.25520E-002	2.48259E-004	..........a	-327.66
	23	6.2	-1.25310E-002	-1.25602E-002	2.34392E-004	..........a	-327.66
	24	6.45833	-1.25408E-002	-1.25673E-002	2.38526E-004	..........a	-327.66
	25	6.71667	-1.25502E-002	-1.25775E-002	2.34459E-004	..........a	-327.66
	26	6.975	-1.25591E-002	-1.25866E-002	2.50992E-004	..........a	-327.66
	27	7.23333	-1.25679E-002	-1.25982E-002	2.37659E-004	..........a	-327.66
	28	7.49167	-1.25771E-002	-1.26070E-002	2.45259E-004	..........a	-327.66
	29	7.75	-1.25866E-002	-1.26158E-002	2.45726E-004	..........a	-327.66
	30	8.00833	-1.25964E-002	-1.26247E-002	2.40859E-004	..........a	-327.66
	31	8.26667	-1.26059E-002	-1.26339E-002	2.41792E-004	..........a	-327.66
	32	8.525	-1.26151E-002	-1.26431E-002	2.53526E-004	..........a	-327.66
	33	8.78333	-1.26242E-002	-1.26520E-002	2.40859E-004	..........a	-327.66
	34	9.04167	-1.26332E-002	-1.26598E-002	2.36259E-004	..........a	-327.66
	35	9.3	-1.26422E-002	-1.26702E-002	2.42059E-004	..........a	-327.66
	36	9.5583	-1.26511E-002	-1.26792E-002	2.47592E-004	..........a	-327.66
	37	9.8167	-1.26600E-002	-1.26875E-002	2.45259E-004	..........a	-327.66
	38	10.075	-1.26691E-002	-1.26955E-002	2.38659E-004	..........a	-327.66
EOC	QUANT	-0.0126691	Open Circuit (V)
PSTATMODEL	IQUANT	7	Pstat Model
PSTATSECTION	LABEL	REF600P-43058	Pstat Section
PSTATSERIALNO	LABEL	43058	Pstat Serial Number
CTRLMODE	IQUANT	1	Control Mode
ELECTROMETER	IQUANT	0	RE=0 or CS=1
IESTAB	IQUANT	2	I/E Stability
CASPEED	IQUANT	4	Control Amp Speed
CONVENTION	IQUANT	1	Current Convention
ICHRANGE	IQUANT	2	Ich Range
ICHRANGEMODE	TOGGLE	F	Ich Auto Range
ICHOFFSETENABLE	TOGGLE	F	Ich Offset Enable
ICHOFFSET	QUANT	0	Ich Offset (V)
ICHFILTER	IQUANT	2	Ich Filter
VCHRANGE	IQUANT	2	Vch Range
VCHRANGEMODE	TOGGLE	F	Vch Auto Range
VCHOFFSETENABLE	TOGGLE	F	Vch Offset Enable
VCHOFFSET	QUANT	0	Vch Offset (V)
VCHFILTER	IQUANT	2	Vch Filter
ACHRANGE	IQUANT	2	Ach Range
ACHOFFSETENABLE	TOGGLE	F	Ach Offset Enable
ACHOFFSET	QUANT	0	Ach Offset (V)
ACHFILTER	IQUANT	1	Ach Filter
IERANGELOWERLIMIT	IQUANT	1	I/E Range Lower Limit
IERANGEMODE	TOGGLE	T	I/E AutoRange
IERANGE	IQUANT	4	I/E Range
POSFEEDENABLE	TOGGLE	F	Positive Feedback IR Comp
POSFEEDRESISTANCE	QUANT	0	Positive Feedback Resistance (ohm)
ACHSELECT	IQUANT	4	Ach Select
SENSECABLEID	IQUANT	7	Sense Cable ID
PWRCABLEID	IQUANT	7	Power Cable ID
DCCALDATE	LABEL	3/22/2024	DC Calibration Date
ACCALDATE	LABEL	3/22/2024	AC Calibration Date
THERMOSELECT	IQUANT	1	Thermo Select
FRAMEWORKVERSION	LABEL	7.8.4	Framework Version
INSTRUMENTVERSION	LABEL	4.42	Instrument Version
CURVE1	TABLE
	Pt	T	Vf	Im	Vu	Sig	Ach	IERange	Over	Temp
	#	s	V vs. Ref.	A	V	V	V	#	bits	deg C
	0	0.2	-1.25664E-002	3.30779E-010	0.00000E+000	-1.26500E-002	9.96892E-004	5	..........a	-327.66
	1	0.4	-2.26074E-002	-2.87975E-009	0.00000E+000	-2.26500E-002	9.83092E-004	5	..........a	-327.66
	2	0.6	-3.25202E-002	-5.18185E-009	0.00000E+000	-3.26500E-002	1.01629E-003	5	..........a	-327.66
	3	0.8	-4.26048E-002	-7.14107E-009	0.00000E+000	-4.26500E-002	9.97492E-004	5	..........a	-327.66
	4	1	-5.25666E-002	-8.87702E-009	0.00000E+000	-5.26500E-002	1.01289E-003	5	..........a	-327.66
	5	1.2	-6.25361E-002	-1.05774E-008	0.00000E+000	-6.26500E-002	1.01459E-003	5	..........a	-327.66
	6	1.4	-7.25161E-002	-1.20888E-008	0.00000E+000	-7.26500E-002	9.94092E-004	5	..........a	-327.66
	7	1.6	-8.26043E-002	-1.36186E-008	0.00000E+000	-8.26500E-002	1.00739E-003	5	..........a	-327.66
	8	1.8	-9.25662E-002	-1.50355E-008	0.00000E+000	-9.26500E-002	1.00759E-003	5	..........a	-327.66
	9	2	-1.02616E-001	-1.64670E-008	0.00000E+000	-1.02650E-001	1.02029E-003	5	..........a	-327.66
	10	2.2	-1.12489E-001	-1.78766E-008	0.00000E+000	-1.12650E-001	1.01429E-003	5	..........a	-327.66
	11	2.4	-1.22604E-001	-1.92798E-008	0.00000E+000	-1.22650E-001	1.00219E-003	5	..........a	-327.66
	12	2.6	-1.32592E-001	-2.06568E-008	0.00000E+000	-1.32650E-001	1.02449E-003	5	..........a	-327.66
	13	2.8	-1.42611E-001	-2.20405E-008	0.00000E+000	-1.42650E-001	1.01629E-003	5	..........a	-327.66
	14	3	-1.52533E-001	-2.34177E-008	0.00000E+000	-1.52650E-001	1.00469E-003	5	..........a	-327.66
	15	3.2	-1.62604E-001	-2.47575E-008	0.00000E+000	-1.62650E-001	1.01879E-003	5	..........a	-327.66
	16	3.4	-1.72584E-001	-2.61180E-008	0.00000E+000	-1.72650E-001	1.01959E-003	5	..........a	-327.66
	17	3.6	-1.82608E-001	-2.74644E-008	0.00000E+000	-1.82650E-001	1.02209E-003	5	..........a	-327.66
	18	3.8	-1.92566E-001	-2.88011E-008	0.00000E+000	-1.92650E-001	1.00359E-003	5	..........a	-327.66
	19	4	-2.02602E-001	-3.01481E-008	0.00000E+000	-2.02650E-001	1.00169E-003	5	..........a	-327.66
	20	4.2	-2.12527E-001	-3.15002E-008	0.00000E+000	-2.12650E-001	1.01159E-003	5	..........a	-327.66
	21	4.4	-2.22573E-001	-3.28434E-008	0.00000E+000	-2.22650E-001	1.02679E-003	5	..........a	-327.66
	22	4.6	-2.32474E-001	-3.41902E-008	0.00000E+000	-2.32650E-001	9.97092E-004	5	..........a	-327.66
	23	4.8	-2.42593E-001	-3.55775E-008	0.00000E+000	-2.42650E-001	1.02019E-003	5	..........a	-327.66
	24	5	-2.52565E-001	-3.69774E-008	0.00000E+000	-2.52650E-001	1.02059E-003	5	..........a	-327.66
	25	5.2	-2.62568E-001	-3.84069E-008	0.00000E+000	-2.62650E-001	9.96592E-004	5	..........a	-327.66
	26	5.4	-2.72508E-001	-3.98414E-008	0.00000E+000	-2.72650E-001	1.01329E-003	5	..........a	-327.66
	27	5.6	-2.82568E-001	-4.14018E-008	0.00000E+000	-2.82650E-001	9.84092E-004	5	..........a	-327.66
	28	5.8	-2.92501E-001	-4.29053E-008	0.00000E+000	-2.92650E-001	1.01429E-003	5	..........a	-327.66
	29	6	-3.02569E-001	-4.45171E-008	0.00000E+000	-3.02650E-001	9.94892E-004	5	..........a	-327.66
	30	6.2	-3.12450E-001	-4.61097E-008	0.00000E+000	-3.12650E-001	1.01629E-003	5	..........a	-327.66
	31	6.4	-3.22565E-001	-4.77822E-008	0.00000E+000	-3.22650E-001	9.92192E-004	5	..........a	-327.66
	32	6.6	-3.32549E-001	-4.94945E-008	0.00000E+000	-3.32650E-001	9.99192E-004	5	..........a	-327.66
	33	6.8	-3.42570E-001	-5.12841E-008	0.00000E+000	-3.42650E-001	1.00239E-003	5	..........a	-327.66
	34	7	-3.52487E-001	-5.30773E-008	0.00000E+000	-3.52650E-001	1.02039E-003	5	..........a	-327.66
	35	7.2	-3.62559E-001	-5.49351E-008	0.00000E+000	-3.62650E-001	1.00689E-003	5	..........a	-327.66
	36	7.4	-3.72517E-001	-5.68763E-008	0.00000E+000	-3.72650E-001	1.00179E-003	5	..........a	-327.66
	37	7.6	-3.82552E-001	-5.88101E-008	0.00000E+000	-3.82650E-001	1.00439E-003	5	..........a	-327.66
	38	7.8	-3.92454E-001	-6.08062E-008	0.00000E+000	-3.92650E-001	1.02149E-003	5	..........a	-327.66
	39	8	-4.02550E-001	-6.28552E-008	0.00000E+000	-4.02650E-001	1.01489E-003	5	..........a	-327.66
	40	8.2	-4.12509E-001	-6.49027E-008	0.00000E+000	-4.12650E-001	9.98992E-004	5	..........a	-327.66
	41	8.4	-4.22536E-001	-6.70248E-008	0.00000E+000	-4.22650E-001	1.01229E-003	5	..........a	-327.66
	42	8.6	-4.32444E-001	-6.91590E-008	0.00000E+000	-4.32650E-001	1.01389E-003	5	..........a	-327.66
	43	8.8	-4.42517E-001	-7.13614E-008	0.00000E+000	-4.42650E-001	1.00299E-003	5	..........a	-327.66
	44	9	-4.52515E-001	-7.35620E-008	0.00000E+000	-4.52650E-001	1.01379E-003	5	..........a	-327.66
	45	9.2	-4.62518E-001	-7.58053E-008	0.00000E+000	-4.62650E-001	1.00639E-003	5	..........a	-327.66
	46	9.4	-4.72395E-001	-7.80784E-008	0.00000E+000	-4.72650E-001	1.01629E-003	5	..........a	-327.66
	47	9.6	-4.82501E-001	-8.03387E-008	0.00000E+000	-4.82650E-001	1.02059E-003	5	..........a	-327.66
	48	9.8	-4.92517E-001	-8.26869E-008	0.00000E+000	-4.92650E-001	1.01619E-003	5	..........a	-327.66
	49	10	-5.02513E-001	-8.49511E-008	0.00000E+000	-5.02650E-001	1.00829E-003	5	..........a	-327.66
	50	10.2	-5.12443E-001	-8.72463E-008	0.00000E+000	-5.12650E-001	1.00849E-003	5	..........a	-327.66
	51	10.4	-5.22525E-001	-8.95219E-008	0.00000E+000	-5.22650E-001	9.96892E-004	5	..........a	-327.66
	52	10.6	-5.32503E-001	-9.17796E-008	0.00000E+000	-5.32650E-001	1.00379E-003	5	..........a	-327.66
	53	10.8	-5.42519E-001	-9.40415E-008	0.00000E+000	-5.42650E-001	9.98092E-004	5	..........a	-327.66
	54	11	-5.52467E-001	-9.62448E-008	0.00000E+000	-5.52650E-001	1.02279E-003	5	..........a	-327.66
	55	11.2	-5.62530E-001	-9.84633E-008	0.00000E+000	-5.62650E-001	9.92092E-004	5	..........a	-327.66
	56	11.4	-5.72476E-001	-1.00650E-007	0.00000E+000	-5.72650E-001	1.02059E-003	5	..........a	-327.66
	57	11.6	-5.82506E-001	-1.02866E-007	0.00000E+000	-5.82650E-001	1.01279E-003	5	..........a	-327.66
	58	11.8	-5.92435E-001	-1.05066E-007	0.00000E+000	-5.92650E-001	1.01129E-003	5	..........a	-327.66
	59	12	-6.02502E-001	-1.07273E-007	0.00000E+000	-6.02650E-001	1.00799E-003	5	..........a	-327.66
	60	12.2	-5.92449E-001	-9.48168E-008	0.00000E+000	-5.92650E-001	1.01239E-003	5	..........a	-327.66
	61	12.4	-5.82505E-001	-8.64084E-008	0.00000E+000	-5.82650E-001	1.01739E-003	5	..........a	-327.66
	62	12.6	-5.72470E-001	-7.97340E-008	0.00000E+000	-5.72650E-001	1.01419E-003	5	..........a	-327.66
	63	12.8	-5.62546E-001	-7.41393E-008	0.00000E+000	-5.62650E-001	9.94392E-004	5	..........a	-327.66
	64	13	-5.52474E-001	-6.92258E-008	0.00000E+000	-5.52650E-001	1.01369E-003	5	..........a	-327.66
	65	13.2	-5.42534E-001	-6.48058E-008	0.00000E+000	-5.42650E-001	1.01049E-003	5	..........a	-327.66
	66	13.4	-5.32532E-001	-6.07913E-008	0.00000E+000	-5.32650E-001	9.85292E-004	5	..........a	-327.66
	67	13.6	-5.22572E-001	-5.70881E-008	0.00000E+000	-5.22650E-001	1.00109E-003	5	..........a	-327.66
	68	13.8	-5.12455E-001	-5.36262E-008	0.00000E+000	-5.12650E-001	1.01929E-003	5	..........a	-327.66
	69	14	-5.02530E-001	-5.03669E-008	0.00000E+000	-5.02650E-001	9.95092E-004	5	..........a	-327.66
	70	14.2	-4.92548E-001	-4.73357E-008	0.00000E+000	-4.92650E-001	1.01899E-003	5	..........a	-327.66
	71	14.4	-4.82539E-001	-4.44461E-008	0.00000E+000	-4.82650E-001	9.86792E-004	5	..........a	-327.66
	72	14.6	-4.72441E-001	-4.17130E-008	0.00000E+000	-4.72650E-001	9.87692E-004	5	..........a	-327.66
	73	14.8	-4.62508E-001	-3.90628E-008	0.00000E+000	-4.62650E-001	1.00149E-003	5	..........a	-327.66
	74	15	-4.52493E-001	-3.65579E-008	0.00000E+000	-4.52650E-001	1.00029E-003	5	..........a	-327.66
	75	15.2	-4.42540E-001	-3.41716E-008	0.00000E+000	-4.42650E-001	9.88992E-004	5	..........a	-327.66
	76	15.4	-4.32450E-001	-3.18734E-008	0.00000E+000	-4.32650E-001	1.02769E-003	5	..........a	-327.66
	77	15.6	-4.22541E-001	-2.96661E-008	0.00000E+000	-4.22650E-001	1.00909E-003	5	..........a	-327.66
	78	15.8	-4.12549E-001	-2.75526E-008	0.00000E+000	-4.12650E-001	9.98092E-004	5	..........a	-327.66
	79	16	-4.02569E-001	-2.55351E-008	0.00000E+000	-4.02650E-001	1.00519E-003	5	..........a	-327.66
	80	16.2	-3.92454E-001	-2.35343E-008	0.00000E+000	-3.92650E-001	1.01179E-003	5	..........a	-327.66
	81	16.4	-3.82583E-001	-2.16354E-008	0.00000E+000	-3.82650E-001	1.04059E-003	5	..........a	-327.66
	82	16.6	-3.72535E-001	-1.98013E-008	0.00000E+000	-3.72650E-001	1.00819E-003	5	..........a	-327.66
	83	16.8	-3.62547E-001	-1.80181E-008	0.00000E+000	-3.62650E-001	1.01429E-003	5	..........a	-327.66
	84	17	-3.52501E-001	-1.63104E-008	0.00000E+000	-3.52650E-001	1.00269E-003	5	..........a	-327.66
	85	17.2	-3.42573E-001	-1.46331E-008	0.00000E+000	-3.42650E-001	1.00839E-003	5	..........a	-327.66
	86	17.4	-3.32586E-001	-1.30409E-008	0.00000E+000	-3.32650E-001	1.00889E-003	5	..........a	-327.66
	87	17.6	-3.22574E-001	-1.14686E-008	0.00000E+000	-3.22650E-001	9.97592E-004	5	..........a	-327.66
	88	17.8	-3.12453E-001	-9.91624E-009	0.00000E+000	-3.12650E-001	1.01899E-003	5	..........a	-327.66
	89	18	-3.02580E-001	-8.45200E-009	0.00000E+000	-3.02650E-001	9.98592E-004	5	..........a	-327.66
	90	18.2	-2.92530E-001	-7.00391E-009	0.00000E+000	-2.92650E-001	1.02749E-003	5	..........a	-327.66
	91	18.4	-2.82575E-001	-5.62508E-009	0.00000E+000	-2.82650E-001	9.90892E-004	5	..........a	-327.66
	92	18.6	-2.72532E-001	-4.24476E-009	0.00000E+000	-2.72650E-001	1.00879E-003	5	..........a	-327.66
	93	18.8	-2.62576E-001	-2.93574E-009	0.00000E+000	-2.62650E-001	1.00759E-003	5	..........a	-327.66
	94	19	-2.52583E-001	-1.60706E-009	0.00000E+000	-2.52650E-001	1.02639E-003	5	..........a	-327.66
	95	19.2	-2.42585E-001	-3.48226E-010	0.00000E+000	-2.42650E-001	1.01359E-003	5	..........a	-327.66
	96	19.4	-2.32476E-001	9.29961E-010	0.00000E+000	-2.32650E-001	1.01039E-003	5	..........a	-327.66
	97	19.6	-2.22570E-001	2.16396E-009	0.00000E+000	-2.22650E-001	9.90992E-004	5	..........a	-327.66
	98	19.8	-2.12588E-001	3.38268E-009	0.00000E+000	-2.12650E-001	1.02509E-003	5	..........a	-327.66
	99	20	-2.02603E-001	4.57033E-009	0.00000E+000	-2.02650E-001	9.84992E-004	5	..........a	-327.66
	100	20.2	-1.92571E-001	5.73884E-009	0.00000E+000	-1.92650E-001	1.02379E-003	5	..........a	-327.66
	101	20.4	-1.82609E-001	6.85495E-009	0.00000E+000	-1.82650E-001	1.00799E-003	5	..........a	-327.66
	102	20.6	-1.72638E-001	7.98364E-009	0.00000E+000	-1.72650E-001	1.02739E-003	5	..........a	-327.66
	103	20.8	-1.62613E-001	9.09307E-009	0.00000E+000	-1.62650E-001	9.98292E-004	5	..........a	-327.66
	104	21	-1.52550E-001	1.01537E-008	0.00000E+000	-1.52650E-001	9.80992E-004	5	..........a	-327.66
	105	21.2	-1.42611E-001	1.12317E-008	0.00000E+000	-1.42650E-001	9.97192E-004	5	..........a	-327.66
	106	21.4	-1.32596E-001	1.23239E-008	0.00000E+000	-1.32650E-001	1.01869E-003	5	..........a	-327.66
	107	21.6	-1.22626E-001	1.33639E-008	0.00000E+000	-1.22650E-001	1.00999E-003	5	..........a	-327.66
	108	21.8	-1.12484E-001	1.43779E-008	0.00000E+000	-1.12650E-001	1.01929E-003	5	..........a	-327.66
	109	22	-1.02630E-001	1.53889E-008	0.00000E+000	-1.02650E-001	1.01219E-003	5	..........a	-327.66
	110	22.2	-9.26116E-002	1.64328E-008	0.00000E+000	-9.26500E-002	1.01219E-003	5	..........a	-327.66
	111	22.4	-8.25877E-002	1.74473E-008	0.00000E+000	-8.26500E-002	1.00519E-003	5	..........a	-327.66
	112	22.6	-7.25377E-002	1.84542E-008	0.00000E+000	-7.26500E-002	1.00539E-003	5	..........a	-327.66
	113	22.8	-6.25921E-002	1.94653E-008	0.00000E+000	-6.26500E-002	1.00199E-003	5	..........a	-327.66
	114	23	-5.26479E-002	2.04448E-008	0.00000E+000	-5.26500E-002	1.00539E-003	5	..........a	-327.66
	115	23.2	-4.26040E-002	2.14618E-008	0.00000E+000	-4.26500E-002	9.99992E-004	5	..........a	-327.66
	116	23.4	-3.24824E-002	2.25031E-008	0.00000E+000	-3.26500E-002	1.01329E-003	5	..........a	-327.66
	117	23.6	-2.26365E-002	2.35080E-008	0.00000E+000	-2.26500E-002	1.00509E-003	5	..........a	-327.66
	118	23.8	-1.25924E-002	2.45250E-008	0.00000E+000	-1.26500E-002	9.97292E-004	5	..........a	-327.66
	119	24	-2.62531E-003	2.55777E-008	0.00000E+000	-2.64999E-003	1.01639E-003	5	..........a	-327.66
	120	24.2	7.47774E-003	2.66194E-008	0.00000E+000	7.35001E-003	1.01369E-003	5	..........a	-327.66
	121	24.4	1.74027E-002	2.76844E-008	0.00000E+000	1.73500E-002	1.00709E-003	5	..........a	-327.66
	122	24.6	2.73611E-002	2.87403E-008	0.00000E+000	2.73500E-002	9.89992E-004	5	..........a	-327.66
	123	24.8	3.74033E-002	2.97668E-008	0.00000E+000	3.73500E-002	9.88192E-004	5	..........a	-327.66
	124	25	4.75194E-002	3.08034E-008	0.00000E+000	4.73500E-002	1.01089E-003	5	..........a	-327.66
	125	25.2	5.73711E-002	3.18812E-008	0.00000E+000	5.73500E-002	1.00299E-003	5	..........a	-327.66
	126	25.4	6.74148E-002	3.29290E-008	0.00000E+000	6.73500E-002	1.01599E-003	5	..........a	-327.66
	127	25.6	7.73538E-002	3.39930E-008	0.00000E+000	7.73500E-002	1.00819E-003	5	..........a	-327.66
	128	25.8	8.74468E-002	3.50613E-008	0.00000E+000	8.73500E-002	1.00299E-003	5	..........a	-327.66
	129	26	9.73737E-002	3.61163E-008	0.00000E+000	9.73500E-002	1.01609E-003	5	..........a	-327.66
	130	26.2	1.07401E-001	3.72191E-008	0.00000E+000	1.07350E-001	1.00649E-003	5	..........a	-327.66
	131	26.4	1.17246E-001	3.82941E-008	0.00000E+000	1.17350E-001	1.01699E-003	5	..........a	-327.66
	132	26.6	1.27506E-001	3.94455E-008	0.00000E+000	1.27350E-001	1.02969E-003	5	..........a	-327.66
	133	26.8	1.37404E-001	4.05797E-008	0.00000E+000	1.37350E-001	1.00259E-003	5	..........a	-327.66
	134	27	1.47386E-001	4.17695E-008	0.00000E+000	1.47350E-001	1.00649E-003	5	..........a	-327.66
	135	27.2	1.57400E-001	4.29763E-008	0.00000E+000	1.57350E-001	1.01909E-003	5	..........a	-327.66
	136	27.4	1.67521E-001	4.42571E-008	0.00000E+000	1.67350E-001	1.01729E-003	5	..........a	-327.66
	137	27.6	1.77376E-001	4.56949E-008	0.00000E+000	1.77350E-001	1.02249E-003	5	..........a	-327.66
	138	27.8	1.87380E-001	4.73391E-008	0.00000E+000	1.87350E-001	1.01749E-003	5	..........a	-327.66
	139	28	1.97363E-001	4.88391E-008	0.00000E+000	1.97350E-001	1.00189E-003	5	..........a	-327.66
	140	28.2	2.07455E-001	5.01890E-008	0.00000E+000	2.07350E-001	1.01559E-003	5	..........a	-327.66
	141	28.4	2.17371E-001	5.13343E-008	0.00000E+000	2.17350E-001	1.01679E-003	5	..........a	-327.66
	142	28.6	2.27313E-001	5.24354E-008	0.00000E+000	2.27350E-001	1.03089E-003	5	..........a	-327.66
	143	28.8	2.37346E-001	5.36105E-008	0.00000E+000	2.37350E-001	1.00009E-003	5	..........a	-327.66
	144	29	2.47488E-001	5.48857E-008	0.00000E+000	2.47350E-001	1.02369E-003	5	..........a	-327.66
	145	29.2	2.57350E-001	5.62348E-008	0.00000E+000	2.57350E-001	9.94692E-004	5	..........a	-327.66
	146	29.4	2.67367E-001	5.77386E-008	0.00000E+000	2.67350E-001	1.02149E-003	5	..........a	-327.66
	147	29.6	2.77334E-001	5.92768E-008	0.00000E+000	2.77350E-001	1.01329E-003	5	..........a	-327.66
	148	29.8	2.87408E-001	6.10136E-008	0.00000E+000	2.87350E-001	1.00179E-003	5	..........a	-327.66
	149	30	2.97354E-001	6.29118E-008	0.00000E+000	2.97350E-001	1.00919E-003	5	..........a	-327.66
	150	30.2	3.07283E-001	6.48723E-008	0.00000E+000	3.07350E-001	1.01529E-003	5	..........a	-327.66
	151	30.4	3.17369E-001	6.69862E-008	0.00000E+000	3.17350E-001	1.00309E-003	5	..........a	-327.66
	152	30.6	3.27443E-001	6.92412E-008	0.00000E+000	3.27350E-001	1.00109E-003	5	..........a	-327.66
	153	30.8	3.37342E-001	7.15985E-008	0.00000E+000	3.37350E-001	1.02059E-003	5	..........a	-327.66
	154	31	3.47316E-001	7.40819E-008	0.00000E+000	3.47350E-001	9.96792E-004	5	..........a	-327.66
	155	31.2	3.57345E-001	7.66661E-008	0.00000E+000	3.57350E-001	1.01179E-003	5	..........a	-327.66
	156	31.4	3.67392E-001	7.93263E-008	0.00000E+000	3.67350E-001	1.01699E-003	5	..........a	-327.66
	157	31.6	3.77301E-001	8.20640E-008	0.00000E+000	3.77350E-001	1.00769E-003	5	..........a	-327.66
	158	31.8	3.87256E-001	8.49171E-008	0.00000E+000	3.87350E-001	1.03099E-003	5	..........a	-327.66
	159	32	3.97339E-001	8.77556E-008	0.00000E+000	3.97350E-001	1.00369E-003	5	..........a	-327.66
	160	32.2	4.07433E-001	9.06695E-008	0.00000E+000	4.07350E-001	1.01269E-003	5	..........a	-327.66
	161	32.4	4.17327E-001	9.35937E-008	0.00000E+000	4.17350E-001	1.00859E-003	5	..........a	-327.66
	162	32.6	4.27241E-001	9.65927E-008	0.00000E+000	4.27350E-001	1.00379E-003	5	..........a	-327.66
	163	32.8	4.37266E-001	9.96188E-008	0.00000E+000	4.37350E-001	1.00419E-003	5	..........a	-327.66
	164	33	4.47349E-001	1.02674E-007	0.00000E+000	4.47350E-001	1.00019E-003	5	..........a	-327.66
	165	33.2	4.57250E-001	1.05761E-007	0.00000E+000	4.57350E-001	1.01849E-003	5	..........a	-327.66
	166	33.4	4.67284E-001	1.08885E-007	0.00000E+000	4.67350E-001	1.02049E-003	5	..........a	-327.66
	167	33.6	4.77288E-001	1.11959E-007	0.00000E+000	4.77350E-001	1.00109E-003	5	..........a	-327.66
	168	33.8	4.87327E-001	1.15083E-007	0.00000E+000	4.87350E-001	1.00429E-003	5	..........a	-327.66
	169	34	4.97333E-001	1.18131E-007	0.00000E+000	4.97350E-001	1.00819E-003	5	..........a	-327.66
	170	34.2	5.07248E-001	1.21167E-007	0.00000E+000	5.07350E-001	1.01969E-003	5	..........a	-327.66
	171	34.4	5.17288E-001	1.24230E-007	0.00000E+000	5.17350E-001	1.00269E-003	5	..........a	-327.66
	172	34.6	5.27360E-001	1.27200E-007	0.00000E+000	5.27350E-001	9.87592E-004	5	..........a	-327.66
	173	34.8	5.37242E-001	1.30114E-007	0.00000E+000	5.37350E-001	1.01309E-003	5	..........a	-327.66
	174	35	5.47300E-001	1.33031E-007	0.00000E+000	5.47350E-001	1.01429E-003	5	..........a	-327.66
	175	35.2	5.57234E-001	1.35906E-007	0.00000E+000	5.57350E-001	1.01979E-003	5	..........a	-327.66
	176	35.4	5.67332E-001	1.38724E-007	0.00000E+000	5.67350E-001	1.00349E-003	5	..........a	-327.66
	177	35.6	5.77306E-001	1.41551E-007	0.00000E+000	5.77350E-001	1.00249E-003	5	..........a	-327.66
	178	35.8	5.87233E-001	1.44348E-007	0.00000E+000	5.87350E-001	1.00689E-003	5	..........a	-327.66
	179	36	5.97282E-001	1.47198E-007	0.00000E+000	5.97350E-001	1.00609E-003	5	..........a	-327.66
	180	36.2	6.07352E-001	1.49958E-007	0.00000E+000	6.07350E-001	9.94692E-004	5	..........a	-327.66
	181	36.4	6.17227E-001	1.52752E-007	0.00000E+000	6.17350E-001	9.98092E-004	5	..........a	-327.66
	182	36.6	6.27242E-001	1.55578E-007	0.00000E+000	6.27350E-001	1.00839E-003	5	..........a	-327.66
	183	36.8	6.37228E-001	1.58409E-007	0.00000E+000	6.37350E-001	1.02349E-003	5	..........a	-327.66
	184	37	6.47267E-001	1.61268E-007	0.00000E+000	6.47350E-001	1.00179E-003	5	..........a	-327.66
	185	37.2	6.57199E-001	1.64144E-007	0.00000E+000	6.57350E-001	1.01909E-003	5	..........a	-327.66
	186	37.4	6.67171E-001	1.67146E-007	0.00000E+000	6.67350E-001	1.01509E-003	5	..........a	-327.66
	187	37.6	6.77232E-001	1.70145E-007	0.00000E+000	6.77350E-001	1.01069E-003	5	..........a	-327.66
	188	37.8	6.87272E-001	1.73329E-007	0.00000E+000	6.87350E-001	9.98892E-004	5	..........a	-327.66
	189	38	6.97221E-001	1.76503E-007	0.00000E+000	6.97350E-001	1.01119E-003	5	..........a	-327.66
	190	38.2	7.07197E-001	1.79819E-007	0.00000E+000	7.07350E-001	1.01099E-003	5	..........a	-327.66
	191	38.4	7.17182E-001	1.83257E-007	0.00000E+000	7.17350E-001	1.01729E-003	5	..........a	-327.66
	192	38.6	7.27234E-001	1.86885E-007	0.00000E+000	7.27350E-001	1.00419E-003	5	..........a	-327.66
	193	38.8	7.37230E-001	1.90771E-007	0.00000E+000	7.37350E-001	1.00769E-003	5	..........a	-327.66
	194	39	7.47206E-001	1.94799E-007	0.00000E+000	7.47350E-001	1.02209E-003	5	..........a	-327.66
	195	39.2	7.57261E-001	1.99163E-007	0.00000E+000	7.57350E-001	1.01409E-003	5	..........a	-327.66
	196	39.4	7.67222E-001	2.03804E-007	0.00000E+000	7.67350E-001	1.00649E-003	5	..........a	-327.66
	197	39.6	7.77240E-001	2.08767E-007	0.00000E+000	7.77350E-001	1.00489E-003	5	..........a	-327.66
	198	39.8	7.87147E-001	2.14068E-007	0.00000E+000	7.87350E-001	1.01039E-003	5	..........a	-327.66
	199	40	7.97186E-001	2.19678E-007	0.00000E+000	7.97350E-001	9.97092E-004	5	..........a	-327.66
CURVE2	TABLE
	Pt	T	Vf	Im	Vu	Sig	Ach	IERange	Over	Temp
	#	s	V vs. Ref.	A	V	V	V	#	bits	deg C
	200	40.2	7.89957E-001	1.85382E-007	0.00000E+000	7.90000E-001	1.03779E-003	5	..........a	-327.66
	201	40.4	7.79868E-001	1.58174E-007	0.00000E+000	7.80000E-001	1.00879E-003	5	..........a	-327.66
	202	40.6	7.69888E-001	1.38830E-007	0.00000E+000	7.70000E-001	1.01909E-003	5	..........a	-327.66
	203	40.8	7.59895E-001	1.24052E-007	0.00000E+000	7.60000E-001	1.01279E-003	5	..........a	-327.66
	204	41	7.49971E-001	1.12228E-007	0.00000E+000	7.50000E-001	1.01819E-003	5	..........a	-327.66
	205	41.2	7.39896E-001	1.02515E-007	0.00000E+000	7.40000E-001	9.97592E-004	5	..........a	-327.66
	206	41.4	7.29879E-001	9.43777E-008	0.00000E+000	7.30000E-001	1.01189E-003	5	..........a	-327.66
	207	41.6	7.19900E-001	8.73464E-008	0.00000E+000	7.20000E-001	1.01749E-003	5	..........a	-327.66
	208	41.8	7.09976E-001	8.11009E-008	0.00000E+000	7.10000E-001	1.02979E-003	5	..........a	-327.66
	209	42	6.99910E-001	7.55768E-008	0.00000E+000	7.00000E-001	1.02209E-003	5	..........a	-327.66
	210	42.2	6.89911E-001	7.05822E-008	0.00000E+000	6.90000E-001	1.00459E-003	5	..........a	-327.66
	211	42.4	6.79959E-001	6.59856E-008	0.00000E+000	6.80000E-001	1.00609E-003	5	..........a	-327.66
	212	42.6	6.69971E-001	6.17405E-008	0.00000E+000	6.70000E-001	1.00769E-003	5	..........a	-327.66
	213	42.8	6.59936E-001	5.78019E-008	0.00000E+000	6.60000E-001	1.00759E-003	5	..........a	-327.66
	214	43	6.49890E-001	5.41413E-008	0.00000E+000	6.50000E-001	1.00789E-003	5	..........a	-327.66
	215	43.2	6.39898E-001	5.06691E-008	0.00000E+000	6.40000E-001	1.02839E-003	5	..........a	-327.66
	216	43.4	6.30042E-001	4.74238E-008	0.00000E+000	6.30000E-001	1.00149E-003	5	..........a	-327.66
	217	43.6	6.19923E-001	4.42806E-008	0.00000E+000	6.20000E-001	1.01749E-003	5	..........a	-327.66
	218	43.8	6.09949E-001	4.12955E-008	0.00000E+000	6.10000E-001	1.02919E-003	5	..........a	-327.66
	219	44	5.99970E-001	3.84404E-008	0.00000E+000	6.00000E-001	1.00619E-003	5	..........a	-327.66
	220	44.2	5.90022E-001	3.57298E-008	0.00000E+000	5.90000E-001	1.01879E-003	5	..........a	-327.66
	221	44.4	5.80033E-001	3.31146E-008	0.00000E+000	5.80000E-001	1.01059E-003	5	..........a	-327.66
	222	44.6	5.69958E-001	3.06274E-008	0.00000E+000	5.70000E-001	1.00509E-003	5	..........a	-327.66
	223	44.8	5.59934E-001	2.82503E-008	0.00000E+000	5.60000E-001	1.02459E-003	5	..........a	-327.66
	224	45	5.50036E-001	2.59448E-008	0.00000E+000	5.50000E-001	1.00919E-003	5	..........a	-327.66
	225	45.2	5.39981E-001	2.37144E-008	0.00000E+000	5.40000E-001	9.99092E-004	5	..........a	-327.66
	226	45.4	5.29956E-001	2.15311E-008	0.00000E+000	5.30000E-001	1.02749E-003	5	..........a	-327.66
	227	45.6	5.19980E-001	1.94055E-008	0.00000E+000	5.20000E-001	1.03619E-003	5	..........a	-327.66
	228	45.8	5.09960E-001	1.73163E-008	0.00000E+000	5.10000E-001	1.04159E-003	5	..........a	-327.66
	229	46	5.00050E-001	1.53222E-008	0.00000E+000	5.00000E-001	1.00269E-003	5	..........a	-327.66
	230	46.2	4.89908E-001	1.33962E-008	0.00000E+000	4.90000E-001	1.01709E-003	5	..........a	-327.66
	231	46.4	4.79926E-001	1.15186E-008	0.00000E+000	4.80000E-001	1.00569E-003	5	..........a	-327.66
	232	46.6	4.70025E-001	9.62912E-009	0.00000E+000	4.70000E-001	9.95192E-004	5	..........a	-327.66
	233	46.8	4.60002E-001	7.80282E-009	0.00000E+000	4.60000E-001	9.97492E-004	5	..........a	-327.66
	234	47	4.49755E-001	5.98872E-009	0.00000E+000	4.50000E-001	1.00339E-003	5	..........a	-327.66
	235	47.2	4.39956E-001	4.20286E-009	0.00000E+000	4.40000E-001	1.02849E-003	5	..........a	-327.66
	236	47.4	4.29957E-001	2.37483E-009	0.00000E+000	4.30000E-001	1.03399E-003	5	..........a	-327.66
	237	47.6	4.20023E-001	5.54737E-010	0.00000E+000	4.20000E-001	1.00299E-003	5	..........a	-327.66
	238	47.8	4.09967E-001	-1.30502E-009	0.00000E+000	4.10000E-001	9.99992E-004	5	..........a	-327.66
	239	48	4.00047E-001	-3.13353E-009	0.00000E+000	4.00000E-001	9.97492E-004	5	..........a	-327.66
	240	48.2	3.90080E-001	-4.90920E-009	0.00000E+000	3.90000E-001	1.01579E-003	5	..........a	-327.66
	241	48.4	3.80082E-001	-6.75655E-009	0.00000E+000	3.80000E-001	9.97392E-004	5	..........a	-327.66
	242	48.6	3.70068E-001	-8.64285E-009	0.00000E+000	3.70000E-001	1.00829E-003	5	..........a	-327.66
	243	48.8	3.60032E-001	-1.05078E-008	0.00000E+000	3.60000E-001	1.02709E-003	5	..........a	-327.66
	244	49	3.50023E-001	-1.23912E-008	0.00000E+000	3.50000E-001	1.02259E-003	5	..........a	-327.66
	245	49.2	3.40113E-001	-1.43166E-008	0.00000E+000	3.40000E-001	1.01169E-003	5	..........a	-327.66
	246	49.4	3.30023E-001	-1.63325E-008	0.00000E+000	3.30000E-001	1.02049E-003	5	..........a	-327.66
	247	49.6	3.20052E-001	-1.83247E-008	0.00000E+000	3.20000E-001	1.01689E-003	5	..........a	-327.66
	248	49.8	3.10068E-001	-2.04244E-008	0.00000E+000	3.10000E-001	1.01389E-003	5	..........a	-327.66
	249	50	3.00092E-001	-2.26135E-008	0.00000E+000	3.00000E-001	1.01489E-003	5	..........a	-327.66
	250	50.2	2.90074E-001	-2.48135E-008	0.00000E+000	2.90000E-001	9.97792E-004	5	..........a	-327.66
	251	50.4	2.79985E-001	-2.71164E-008	0.00000E+000	2.80000E-001	1.01939E-003	5	..........a	-327.66
	252	50.6	2.70088E-001	-2.95231E-008	0.00000E+000	2.70000E-001	1.00809E-003	5	..........a	-327.66
	253	50.8	2.60072E-001	-3.20027E-008	0.00000E+000	2.60000E-001	1.02059E-003	5	..........a	-327.66
	254	51	2.50041E-001	-3.44975E-008	0.00000E+000	2.50000E-001	1.02659E-003	5	..........a	-327.66
	255	51.2	2.40055E-001	-3.69714E-008	0.00000E+000	2.40000E-001	1.02059E-003	5	..........a	-327.66
	256	51.4	2.30025E-001	-3.93869E-008	0.00000E+000	2.30000E-001	1.01379E-003	5	..........a	-327.66
	257	51.6	2.20080E-001	-4.17381E-008	0.00000E+000	2.20000E-001	9.90792E-004	5	..........a	-327.66
	258	51.8	2.10045E-001	-4.37667E-008	0.00000E+000	2.10000E-001	1.01579E-003	5	..........a	-327.66
	259	52	2.00085E-001	-4.54860E-008	0.00000E+000	2.00000E-001	9.93492E-004	5	..........a	-327.66
	260	52.2	1.90130E-001	-4.68242E-008	0.00000E+000	1.90000E-001	9.90092E-004	5	..........a	-327.66
	261	52.4	1.80128E-001	-4.77057E-008	0.00000E+000	1.80000E-001	9.93092E-004	5	..........a	-327.66
	262	52.6	1.70096E-001	-4.81482E-008	0.00000E+000	1.70000E-001	1.00459E-003	5	..........a	-327.66
	263	52.8	1.60067E-001	-4.81969E-008	0.00000E+000	1.60000E-001	1.00949E-003	5	..........a	-327.66
	264	53	1.50076E-001	-4.78967E-008	0.00000E+000	1.50000E-001	1.00419E-003	5	..........a	-327.66
	265	53.2	1.40135E-001	-4.73498E-008	0.00000E+000	1.40000E-001	1.00179E-003	5	..........a	-327.66
	266	53.4	1.30084E-001	-4.66796E-008	0.00000E+000	1.30000E-001	1.01319E-003	5	..........a	-327.66
	267	53.6	1.20084E-001	-4.59014E-008	0.00000E+000	1.20000E-001	1.00329E-003	5	..........a	-327.66
	268	53.8	1.10136E-001	-4.51488E-008	0.00000E+000	1.10000E-001	1.00439E-003	5	..........a	-327.66
	269	54	1.00130E-001	-4.45551E-008	0.00000E+000	1.00000E-001	1.00139E-003	5	..........a	-327.66
	270	54.2	9.01053E-002	-4.40093E-008	0.00000E+000	9.00000E-002	1.00079E-003	5	..........a	-327.66
	271	54.4	8.00478E-002	-4.35888E-008	0.00000E+000	8.00000E-002	1.01839E-003	5	..........a	-327.66
	272	54.6	7.00383E-002	-4.33697E-008	0.00000E+000	7.00000E-002	1.02559E-003	5	..........a	-327.66
	273	54.8	6.01266E-002	-4.33174E-008	0.00000E+000	6.00000E-002	1.00889E-003	5	..........a	-327.66
	274	55	5.00616E-002	-4.34122E-008	0.00000E+000	5.00000E-002	1.01999E-003	5	..........a	-327.66
	275	55.2	4.00775E-002	-4.36537E-008	0.00000E+000	4.00000E-002	1.00279E-003	5	..........a	-327.66
	276	55.4	3.00846E-002	-4.39438E-008	0.00000E+000	3.00000E-002	9.95692E-004	5	..........a	-327.66
	277	55.6	2.01865E-002	-4.42759E-008	0.00000E+000	2.00000E-002	1.00339E-003	5	..........a	-327.66
	278	55.8	1.01368E-002	-4.47651E-008	0.00000E+000	1.00000E-002	1.01429E-003	5	..........a	-327.66
	279	56	7.57417E-005	-4.53926E-008	0.00000E+000	7.45058E-009	1.01629E-003	5	..........a	-327.66
	280	56.2	-9.87406E-003	-4.67177E-008	0.00000E+000	-1.00000E-002	1.01099E-003	5	..........a	-327.66
	281	56.4	-1.98892E-002	-4.66728E-008	0.00000E+000	-2.00000E-002	9.90492E-004	5	..........a	-327.66
	282	56.6	-2.99208E-002	-4.70404E-008	0.00000E+000	-3.00000E-002	1.02549E-003	5	..........a	-327.66
	283	56.8	-3.98972E-002	-4.75771E-008	0.00000E+000	-4.00000E-002	1.00119E-003	5	..........a	-327.66
	284	57	-4.99070E-002	-4.83113E-008	0.00000E+000	-5.00000E-002	1.01219E-003	5	..........a	-327.66
	285	57.2	-5.98423E-002	-4.90535E-008	0.00000E+000	-6.00000E-002	9.91792E-004	5	..........a	-327.66
	286	57.4	-6.98785E-002	-4.97900E-008	0.00000E+000	-7.00000E-002	1.01019E-003	5	..........a	-327.66
	287	57.6	-7.99155E-002	-5.05798E-008	0.00000E+000	-8.00000E-002	9.98692E-004	5	..........a	-327.66
	288	57.8	-8.98841E-002	-5.14464E-008	0.00000E+000	-9.00000E-002	1.02259E-003	5	..........a	-327.66
	289	58	-9.98664E-002	-5.22041E-008	0.00000E+000	-1.00000E-001	1.00059E-003	5	..........a	-327.66
	290	58.2	-1.09974E-001	-5.31419E-008	0.00000E+000	-1.10000E-001	1.01659E-003	5	..........a	-327.66
	291	58.4	-1.19908E-001	-5.43391E-008	0.00000E+000	-1.20000E-001	1.00929E-003	5	..........a	-327.66
	292	58.6	-1.29911E-001	-5.49521E-008	0.00000E+000	-1.30000E-001	1.01039E-003	5	..........a	-327.66
	293	58.8	-1.39856E-001	-5.59579E-008	0.00000E+000	-1.40000E-001	1.02559E-003	5	..........a	-327.66
	294	59	-1.49915E-001	-5.69941E-008	0.00000E+000	-1.50000E-001	1.01519E-003	5	..........a	-327.66
	295	59.2	-1.59996E-001	-5.82190E-008	0.00000E+000	-1.60000E-001	1.02869E-003	5	..........a	-327.66
	296	59.4	-1.69880E-001	-5.90607E-008	0.00000E+000	-1.70000E-001	1.00719E-003	5	..........a	-327.66
	297	59.6	-1.79858E-001	-6.02476E-008	0.00000E+000	-1.80000E-001	1.00789E-003	5	..........a	-327.66
	298	59.8	-1.90014E-001	-6.13558E-008	0.00000E+000	-1.90000E-001	9.91192E-004	5	..........a	-327.66
	299	60	-1.99914E-001	-6.24569E-008	0.00000E+000	-2.00000E-001	1.01589E-003	5	..........a	-327.66
	300	60.2	-2.09896E-001	-6.36608E-008	0.00000E+000	-2.10000E-001	1.01779E-003	5	..........a	-327.66
	301	60.4	-2.19841E-001	-6.47822E-008	0.00000E+000	-2.20000E-001	1.00619E-003	5	..........a	-327.66
	302	60.6	-2.29897E-001	-6.60386E-008	0.00000E+000	-2.30000E-001	9.97492E-004	5	..........a	-327.66
	303	60.8	-2.39868E-001	-6.74082E-008	0.00000E+000	-2.40000E-001	1.01909E-003	5	..........a	-327.66
	304	61	-2.49871E-001	-6.88058E-008	0.00000E+000	-2.50000E-001	1.00069E-003	5	..........a	-327.66
	305	61.2	-2.59761E-001	-7.00468E-008	0.00000E+000	-2.60000E-001	1.00059E-003	5	..........a	-327.66
	306	61.4	-2.69843E-001	-7.14859E-008	0.00000E+000	-2.70000E-001	1.00529E-003	5	..........a	-327.66
	307	61.6	-2.79890E-001	-7.29863E-008	0.00000E+000	-2.80000E-001	1.00069E-003	5	..........a	-327.66
	308	61.8	-2.89903E-001	-7.43908E-008	0.00000E+000	-2.90000E-001	1.01629E-003	5	..........a	-327.66
	309	62	-2.99820E-001	-7.59379E-008	0.00000E+000	-3.00000E-001	9.90092E-004	5	..........a	-327.66
	310	62.2	-3.09888E-001	-7.76006E-008	0.00000E+000	-3.10000E-001	9.98392E-004	5	..........a	-327.66
	311	62.4	-3.19853E-001	-7.90937E-008	0.00000E+000	-3.20000E-001	1.00459E-003	5	..........a	-327.66
	312	62.6	-3.29867E-001	-8.06443E-008	0.00000E+000	-3.30000E-001	1.00919E-003	5	..........a	-327.66
	313	62.8	-3.39775E-001	-8.22263E-008	0.00000E+000	-3.40000E-001	9.97892E-004	5	..........a	-327.66
	314	63	-3.49864E-001	-8.39757E-008	0.00000E+000	-3.50000E-001	9.84592E-004	5	..........a	-327.66
	315	63.2	-3.59826E-001	-8.55503E-008	0.00000E+000	-3.60000E-001	1.01439E-003	5	..........a	-327.66
	316	63.4	-3.69834E-001	-8.72551E-008	0.00000E+000	-3.70000E-001	1.00079E-003	5	..........a	-327.66
	317	63.6	-3.79800E-001	-8.89301E-008	0.00000E+000	-3.80000E-001	9.99092E-004	5	..........a	-327.66
	318	63.8	-3.89867E-001	-9.05355E-008	0.00000E+000	-3.90000E-001	1.01039E-003	5	..........a	-327.66
	319	64	-3.99831E-001	-9.22427E-008	0.00000E+000	-4.00000E-001	1.00269E-003	5	..........a	-327.66
	320	64.2	-4.09864E-001	-9.39824E-008	0.00000E+000	-4.10000E-001	1.01369E-003	5	..........a	-327.66
	321	64.4	-4.19762E-001	-9.55968E-008	0.00000E+000	-4.20000E-001	9.96492E-004	5	..........a	-327.66
	322	64.6	-4.29830E-001	-9.74154E-008	0.00000E+000	-4.30000E-001	1.01409E-003	5	..........a	-327.66
	323	64.8	-4.39857E-001	-9.90326E-008	0.00000E+000	-4.40000E-001	1.02489E-003	5	..........a	-327.66
	324	65	-4.49823E-001	-1.00675E-007	0.00000E+000	-4.50000E-001	9.95692E-004	5	..........a	-327.66
	325	65.2	-4.59773E-001	-1.02307E-007	0.00000E+000	-4.60000E-001	9.88092E-004	5	..........a	-327.66
	326	65.4	-4.69828E-001	-1.03977E-007	0.00000E+000	-4.70000E-001	1.01269E-003	5	..........a	-327.66
	327	65.6	-4.79828E-001	-1.05635E-007	0.00000E+000	-4.80000E-001	1.00579E-003	5	..........a	-327.66
	328	65.8	-4.89825E-001	-1.07308E-007	0.00000E+000	-4.90000E-001	1.00709E-003	5	..........a	-327.66
	329	66	-4.99798E-001	-1.08962E-007	0.00000E+000	-5.00000E-001	9.93492E-004	5	..........a	-327.66
	330	66.2	-5.09829E-001	-1.10693E-007	0.00000E+000	-5.10000E-001	9.96492E-004	5	..........a	-327.66
	331	66.4	-5.19831E-001	-1.12376E-007	0.00000E+000	-5.20000E-001	1.02609E-003	5	..........a	-327.66
	332	66.6	-5.29829E-001	-1.14043E-007	0.00000E+000	-5.30000E-001	1.02559E-003	5	..........a	-327.66
	333	66.8	-5.39739E-001	-1.15736E-007	0.00000E+000	-5.40000E-001	1.00539E-003	5	..........a	-327.66
	334	67	-5.49850E-001	-1.17310E-007	0.00000E+000	-5.50000E-001	1.01699E-003	5	..........a	-327.66
	335	67.2	-5.59849E-001	-1.18989E-007	0.00000E+000	-5.60000E-001	1.02009E-003	5	..........a	-327.66
	336	67.4	-5.69846E-001	-1.20673E-007	0.00000E+000	-5.70000E-001	1.00969E-003	5	..........a	-327.66
	337	67.6	-5.79776E-001	-1.22393E-007	0.00000E+000	-5.80000E-001	9.97192E-004	5	..........a	-327.66
	338	67.8	-5.89846E-001	-1.24095E-007	0.00000E+000	-5.90000E-001	1.00709E-003	5	..........a	-327.66
	339	68	-5.99864E-001	-1.25969E-007	0.00000E+000	-6.00000E-001	9.98192E-004	5	..........a	-327.66
	340	68.2	-5.89832E-001	-1.11261E-007	0.00000E+000	-5.90000E-001	1.00869E-003	5	..........a	-327.66
	341	68.4	-5.79781E-001	-1.01377E-007	0.00000E+000	-5.80000E-001	1.00419E-003	5	..........a	-327.66
	342	68.6	-5.69853E-001	-9.36622E-008	0.00000E+000	-5.70000E-001	1.00749E-003	5	..........a	-327.66
	343	68.8	-5.59855E-001	-8.72733E-008	0.00000E+000	-5.60000E-001	1.01629E-003	5	..........a	-327.66
	344	69	-5.49860E-001	-8.17750E-008	0.00000E+000	-5.50000E-001	1.01039E-003	5	..........a	-327.66
	345	69.2	-5.39769E-001	-7.65522E-008	0.00000E+000	-5.40000E-001	1.02209E-003	5	..........a	-327.66
	346	69.4	-5.29833E-001	-7.20878E-008	0.00000E+000	-5.30000E-001	1.00999E-003	5	..........a	-327.66
	347	69.6	-5.19900E-001	-6.79615E-008	0.00000E+000	-5.20000E-001	1.01799E-003	5	..........a	-327.66
	348	69.8	-5.09918E-001	-6.40879E-008	0.00000E+000	-5.10000E-001	1.01959E-003	5	..........a	-327.66
	349	70	-4.99817E-001	-6.04753E-008	0.00000E+000	-5.00000E-001	9.94392E-004	5	..........a	-327.66
	350	70.2	-4.89838E-001	-5.70256E-008	0.00000E+000	-4.90000E-001	1.02119E-003	5	..........a	-327.66
	351	70.4	-4.79870E-001	-5.38540E-008	0.00000E+000	-4.80000E-001	1.00899E-003	5	..........a	-327.66
	352	70.6	-4.69842E-001	-5.08092E-008	0.00000E+000	-4.70000E-001	9.90992E-004	5	..........a	-327.66
[...]
	920	184.2	-3.89960E-001	-3.27801E-008	0.00000E+000	-3.90000E-001	1.01489E-003	5	..........a	-327.66
	921	184.4	-3.79841E-001	-3.05067E-008	0.00000E+000	-3.80000E-001	1.01109E-003	5	..........a	-327.66
	922	184.6	-3.69897E-001	-2.83124E-008	0.00000E+000	-3.70000E-001	1.00249E-003	5	..........a	-327.66
	923	184.8	-3.59909E-001	-2.61743E-008	0.00000E+000	-3.60000E-001	1.00459E-003	5	..........a	-327.66
	924	185	-3.49853E-001	-2.40861E-008	0.00000E+000	-3.50000E-001	1.00089E-003	5	..........a	-327.66
	925	185.2	-3.39848E-001	-2.20835E-008	0.00000E+000	-3.40000E-001	9.99792E-004	5	..........a	-327.66
	926	185.4	-3.29891E-001	-2.01101E-008	0.00000E+000	-3.30000E-001	1.01189E-003	5	..........a	-327.66
	927	185.6	-3.19878E-001	-1.82150E-008	0.00000E+000	-3.20000E-001	1.00329E-003	5	..........a	-327.66
	928	185.8	-3.09895E-001	-1.63192E-008	0.00000E+000	-3.10000E-001	1.01259E-003	5	..........a	-327.66
	929	186	-2.99845E-001	-1.45099E-008	0.00000E+000	-3.00000E-001	9.96592E-004	5	..........a	-327.66
	930	186.2	-2.89965E-001	-1.27412E-008	0.00000E+000	-2.90000E-001	1.02119E-003	5	..........a	-327.66
	931	186.4	-2.79898E-001	-1.09852E-008	0.00000E+000	-2.80000E-001	1.00439E-003	5	..........a	-327.66
	932	186.6	-2.69882E-001	-9.29491E-009	0.00000E+000	-2.70000E-001	1.01349E-003	5	..........a	-327.66
	933	186.8	-2.59812E-001	-7.65126E-009	0.00000E+000	-2.60000E-001	9.91592E-004	5	..........a	-327.66
	934	187	-2.49881E-001	-6.01822E-009	0.00000E+000	-2.50000E-001	1.00749E-003	5	..........a	-327.66
	935	187.2	-2.39854E-001	-4.41907E-009	0.00000E+000	-2.40000E-001	1.01439E-003	5	..........a	-327.66
	936	187.4	-2.29906E-001	-2.92540E-009	0.00000E+000	-2.30000E-001	1.01429E-003	5	..........a	-327.66
	937	187.6	-2.19897E-001	-1.39310E-009	0.00000E+000	-2.20000E-001	1.00169E-003	5	..........a	-327.66
	938	187.8	-2.09951E-001	6.32788E-011	0.00000E+000	-2.10000E-001	1.02809E-003	5	..........a	-327.66
	939	188	-1.99996E-001	1.57140E-009	0.00000E+000	-2.00000E-001	1.01499E-003	5	..........a	-327.66
	940	188.2	-1.89937E-001	3.00227E-009	0.00000E+000	-1.90000E-001	1.00029E-003	5	..........a	-327.66
	941	188.4	-1.79936E-001	4.40476E-009	0.00000E+000	-1.80000E-001	1.00029E-003	5	..........a	-327.66
	942	188.6	-1.69924E-001	5.76398E-009	0.00000E+000	-1.70000E-001	1.02199E-003	5	..........a	-327.66
	943	188.8	-1.60014E-001	7.12561E-009	0.00000E+000	-1.60000E-001	1.01509E-003	5	..........a	-327.66
	944	189	-1.49985E-001	8.45665E-009	0.00000E+000	-1.50000E-001	1.00739E-003	5	..........a	-327.66
	945	189.2	-1.39917E-001	9.75353E-009	0.00000E+000	-1.40000E-001	9.90692E-004	5	..........a	-327.66
	946	189.4	-1.29979E-001	1.10577E-008	0.00000E+000	-1.30000E-001	1.02909E-003	5	..........a	-327.66
	947	189.6	-1.19951E-001	1.23325E-008	0.00000E+000	-1.20000E-001	9.97792E-004	5	..........a	-327.66
	948	189.8	-1.09986E-001	1.36093E-008	0.00000E+000	-1.10000E-001	1.00959E-003	5	..........a	-327.66
	949	190	-9.99328E-002	1.48647E-008	0.00000E+000	-1.00000E-001	9.80192E-004	5	..........a	-327.66
	950	190.2	-8.99158E-002	1.61222E-008	0.00000E+000	-9.00000E-002	9.92792E-004	5	..........a	-327.66
	951	190.4	-8.00046E-002	1.73614E-008	0.00000E+000	-8.00000E-002	1.01429E-003	5	..........a	-327.66
	952	190.6	-6.99427E-002	1.86083E-008	0.00000E+000	-7.00000E-002	1.01689E-003	5	..........a	-327.66
	953	190.8	-5.98859E-002	1.98193E-008	0.00000E+000	-6.00000E-002	9.90492E-004	5	..........a	-327.66
	954	191	-4.99311E-002	2.10570E-008	0.00000E+000	-5.00000E-002	1.00039E-003	5	..........a	-327.66
	955	191.2	-3.99369E-002	2.22891E-008	0.00000E+000	-4.00000E-002	1.00919E-003	5	..........a	-327.66
	956	191.4	-2.99922E-002	2.35082E-008	0.00000E+000	-3.00000E-002	1.01959E-003	5	..........a	-327.66
	957	191.6	-1.99422E-002	2.47160E-008	0.00000E+000	-2.00000E-002	9.92692E-004	5	..........a	-327.66
	958	191.8	-9.90796E-003	2.59173E-008	0.00000E+000	-1.00000E-002	1.01199E-003	5	..........a	-327.66
	959	192	-2.86083E-005	2.71379E-008	0.00000E+000	7.45058E-009	1.00819E-003	5	..........a	-327.66
	960	192.2	1.00302E-002	2.83325E-008	0.00000E+000	1.00000E-002	1.00709E-003	5	..........a	-327.66
	961	192.4	2.00798E-002	2.95588E-008	0.00000E+000	2.00000E-002	1.01419E-003	5	..........a	-327.66
	962	192.6	3.00087E-002	3.07312E-008	0.00000E+000	3.00000E-002	1.00589E-003	5	..........a	-327.66
	963	192.8	3.99709E-002	3.19658E-008	0.00000E+000	4.00000E-002	1.02879E-003	5	..........a	-327.66
	964	193	4.99749E-002	3.31714E-008	0.00000E+000	5.00000E-002	1.00799E-003	5	..........a	-327.66
	965	193.2	6.00653E-002	3.43634E-008	0.00000E+000	6.00000E-002	1.00069E-003	5	..........a	-327.66
	966	193.4	6.99971E-002	3.55574E-008	0.00000E+000	7.00000E-002	1.01029E-003	5	..........a	-327.66
	967	193.6	8.00181E-002	3.67740E-008	0.00000E+000	8.00000E-002	1.01039E-003	5	..........a	-327.66
	968	193.8	9.00752E-002	3.79574E-008	0.00000E+000	9.00000E-002	1.01629E-003	5	..........a	-327.66
	969	194	1.00057E-001	3.91601E-008	0.00000E+000	1.00000E-001	1.01239E-003	5	..........a	-327.66
	970	194.2	1.10069E-001	4.04247E-008	0.00000E+000	1.10000E-001	9.97392E-004	5	..........a	-327.66
	971	194.4	1.19973E-001	4.22482E-008	0.00000E+000	1.20000E-001	1.01369E-003	5	..........a	-327.66
	972	194.6	1.29968E-001	4.34036E-008	0.00000E+000	1.30000E-001	1.02389E-003	5	..........a	-327.66
	973	194.8	1.40077E-001	4.42546E-008	0.00000E+000	1.40000E-001	9.99792E-004	5	..........a	-327.66
	974	195	1.50022E-001	4.53761E-008	0.00000E+000	1.50000E-001	1.01129E-003	5	..........a	-327.66
	975	195.2	1.60024E-001	4.66041E-008	0.00000E+000	1.60000E-001	1.01659E-003	5	..........a	-327.66
	976	195.4	1.70058E-001	4.78345E-008	0.00000E+000	1.70000E-001	1.00129E-003	5	..........a	-327.66
	977	195.6	1.80019E-001	4.90177E-008	0.00000E+000	1.80000E-001	9.96092E-004	5	..........a	-327.66
	978	195.8	1.90078E-001	5.02238E-008	0.00000E+000	1.90000E-001	9.93092E-004	5	..........a	-327.66
	979	196	1.99990E-001	5.13975E-008	0.00000E+000	2.00000E-001	1.01289E-003	5	..........a	-327.66
	980	196.2	2.09985E-001	5.26603E-008	0.00000E+000	2.10000E-001	1.02359E-003	5	..........a	-327.66
	981	196.4	2.19994E-001	5.38439E-008	0.00000E+000	2.20000E-001	1.00509E-003	5	..........a	-327.66
	982	196.6	2.29970E-001	5.50235E-008	0.00000E+000	2.30000E-001	1.02979E-003	5	..........a	-327.66
	983	196.8	2.40010E-001	5.61800E-008	0.00000E+000	2.40000E-001	1.03019E-003	5	..........a	-327.66
	984	197	2.49961E-001	5.73861E-008	0.00000E+000	2.50000E-001	1.01339E-003	5	..........a	-327.66
	985	197.2	2.60001E-001	5.85429E-008	0.00000E+000	2.60000E-001	1.00929E-003	5	..........a	-327.66
	986	197.4	2.70059E-001	5.97021E-008	0.00000E+000	2.70000E-001	9.89392E-004	5	..........a	-327.66
	987	197.6	2.79963E-001	6.08884E-008	0.00000E+000	2.80000E-001	1.02559E-003	5	..........a	-327.66
	988	197.8	2.90011E-001	6.21007E-008	0.00000E+000	2.90000E-001	1.00829E-003	5	..........a	-327.66
	989	198	3.00048E-001	6.33323E-008	0.00000E+000	3.00000E-001	9.93992E-004	5	..........a	-327.66
	990	198.2	3.09965E-001	6.45644E-008	0.00000E+000	3.10000E-001	1.01669E-003	5	..........a	-327.66
	991	198.4	3.20003E-001	6.58232E-008	0.00000E+000	3.20000E-001	1.01949E-003	5	..........a	-327.66
	992	198.6	3.30001E-001	6.71788E-008	0.00000E+000	3.30000E-001	1.00939E-003	5	..........a	-327.66
	993	198.8	3.40045E-001	6.85203E-008	0.00000E+000	3.40000E-001	1.02479E-003	5	..........a	-327.66
	994	199	3.49973E-001	6.99531E-008	0.00000E+000	3.50000E-001	1.02749E-003	5	..........a	-327.66
	995	199.2	3.59967E-001	7.13853E-008	0.00000E+000	3.60000E-001	9.95592E-004	5	..........a	-327.66
	996	199.4	3.70011E-001	7.29655E-008	0.00000E+000	3.70000E-001	1.01929E-003	5	..........a	-327.66
	997	199.6	3.80023E-001	7.45134E-008	0.00000E+000	3.80000E-001	9.92092E-004	5	..........a	-327.66
	998	199.8	3.90032E-001	7.61929E-008	0.00000E+000	3.90000E-001	9.93392E-004	5	..........a	-327.66
	999	200	3.99995E-001	7.79085E-008	0.00000E+000	4.00000E-001	9.99992E-004	5	..........a	-327.66
	1000	200.2	4.09902E-001	7.97148E-008	0.00000E+000	4.10000E-001	1.01819E-003	5	..........a	-327.66
	1001	200.4	4.19966E-001	8.15810E-008	0.00000E+000	4.20000E-001	1.00669E-003	5	..........a	-327.66
	1002	200.6	4.29963E-001	8.35945E-008	0.00000E+000	4.30000E-001	1.00889E-003	5	..........a	-327.66
	1003	200.8	4.39916E-001	8.56244E-008	0.00000E+000	4.40000E-001	1.02769E-003	5	..........a	-327.66
	1004	201	4.49757E-001	8.77089E-008	0.00000E+000	4.50000E-001	9.94092E-004	5	..........a	-327.66
	1005	201.2	4.59948E-001	8.98635E-008	0.00000E+000	4.60000E-001	9.91992E-004	5	..........a	-327.66
	1006	201.4	4.70003E-001	9.21002E-008	0.00000E+000	4.70000E-001	1.02239E-003	5	..........a	-327.66
	1007	201.6	4.79905E-001	9.43593E-008	0.00000E+000	4.80000E-001	1.03069E-003	5	..........a	-327.66
	1008	201.8	4.89938E-001	9.66670E-008	0.00000E+000	4.90000E-001	1.02909E-003	5	..........a	-327.66
	1009	202	4.99998E-001	9.90789E-008	0.00000E+000	5.00000E-001	9.87392E-004	5	..........a	-327.66
	1010	202.2	5.09969E-001	1.01506E-007	0.00000E+000	5.10000E-001	1.00239E-003	5	..........a	-327.66
	1011	202.4	5.19944E-001	1.03975E-007	0.00000E+000	5.20000E-001	1.02739E-003	5	..........a	-327.66
	1012	202.6	5.29931E-001	1.06407E-007	0.00000E+000	5.30000E-001	1.01399E-003	5	..........a	-327.66
	1013	202.8	5.39949E-001	1.08798E-007	0.00000E+000	5.40000E-001	1.00229E-003	5	..........a	-327.66
	1014	203	5.49992E-001	1.11117E-007	0.00000E+000	5.50000E-001	1.00929E-003	5	..........a	-327.66
	1015	203.2	5.59908E-001	1.13419E-007	0.00000E+000	5.60000E-001	1.00179E-003	5	..........a	-327.66
	1016	203.4	5.69902E-001	1.15603E-007	0.00000E+000	5.70000E-001	1.00619E-003	5	..........a	-327.66
	1017	203.6	5.79914E-001	1.17726E-007	0.00000E+000	5.80000E-001	9.99892E-004	5	..........a	-327.66
	1018	203.8	5.89984E-001	1.19825E-007	0.00000E+000	5.90000E-001	9.99592E-004	5	..........a	-327.66
	1019	204	5.99919E-001	1.21878E-007	0.00000E+000	6.00000E-001	9.85292E-004	5	..........a	-327.66
	1020	204.2	6.09929E-001	1.23997E-007	0.00000E+000	6.10000E-001	1.02329E-003	5	..........a	-327.66
	1021	204.4	6.19893E-001	1.26119E-007	0.00000E+000	6.20000E-001	1.00489E-003	5	..........a	-327.66
	1022	204.6	6.30005E-001	1.28286E-007	0.00000E+000	6.30000E-001	1.00119E-003	5	..........a	-327.66
	1023	204.8	6.39860E-001	1.30498E-007	0.00000E+000	6.40000E-001	1.00449E-003	5	..........a	-327.66
	1024	205	6.49898E-001	1.32803E-007	0.00000E+000	6.50000E-001	1.00449E-003	5	..........a	-327.66
	1025	205.2	6.59895E-001	1.35172E-007	0.00000E+000	6.60000E-001	1.00479E-003	5	..........a	-327.66
	1026	205.4	6.69952E-001	1.37674E-007	0.00000E+000	6.70000E-001	1.00839E-003	5	..........a	-327.66
	1027	205.6	6.79891E-001	1.40260E-007	0.00000E+000	6.80000E-001	9.95092E-004	5	..........a	-327.66
	1028	205.8	6.89876E-001	1.43012E-007	0.00000E+000	6.90000E-001	1.01559E-003	5	..........a	-327.66
	1029	206	6.99883E-001	1.45969E-007	0.00000E+000	7.00000E-001	1.00709E-003	5	..........a	-327.66
	1030	206.2	7.09964E-001	1.49124E-007	0.00000E+000	7.10000E-001	1.01669E-003	5	..........a	-327.66
	1031	206.4	7.19868E-001	1.52530E-007	0.00000E+000	7.20000E-001	1.02249E-003	5	..........a	-327.66
	1032	206.6	7.29883E-001	1.56218E-007	0.00000E+000	7.30000E-001	1.00959E-003	5	..........a	-327.66
	1033	206.8	7.39867E-001	1.60197E-007	0.00000E+000	7.40000E-001	9.85992E-004	5	..........a	-327.66
	1034	207	7.49957E-001	1.64533E-007	0.00000E+000	7.50000E-001	1.02819E-003	5	..........a	-327.66
	1035	207.2	7.59865E-001	1.69337E-007	0.00000E+000	7.60000E-001	9.97392E-004	5	..........a	-327.66
	1036	207.4	7.69863E-001	1.74368E-007	0.00000E+000	7.70000E-001	1.00909E-003	5	..........a	-327.66
	1037	207.6	7.79857E-001	1.79729E-007	0.00000E+000	7.80000E-001	9.95892E-004	5	..........a	-327.66
	1038	207.8	7.89957E-001	1.85600E-007	0.00000E+000	7.90000E-001	1.02489E-003	5	..........a	-327.66
	1039	208	7.99856E-001	1.91930E-007	0.00000E+000	8.00000E-001	1.01589E-003	5	..........a	-327.66
CURVE5	TABLE
	Pt	T	Vf	Im	Vu	Sig	Ach	IERange	Over	Temp
	#	s	V vs. Ref.	A	V	V	V	#	bits	deg C
	1040	208.2	7.89966E-001	1.57155E-007	0.00000E+000	7.90000E-001	1.00819E-003	5	..........a	-327.66
	1041	208.4	7.79874E-001	1.34825E-007	0.00000E+000	7.80000E-001	1.01359E-003	5	..........a	-327.66
	1042	208.6	7.69927E-001	1.18638E-007	0.00000E+000	7.70000E-001	1.00579E-003	5	..........a	-327.66
	1043	208.8	7.59889E-001	1.06228E-007	0.00000E+000	7.60000E-001	1.01049E-003	5	..........a	-327.66
	1044	209	7.49981E-001	9.62523E-008	0.00000E+000	7.50000E-001	1.00739E-003	5	..........a	-327.66
	1045	209.2	7.39923E-001	8.79797E-008	0.00000E+000	7.40000E-001	1.01949E-003	5	..........a	-327.66
	1046	209.4	7.29910E-001	8.09256E-008	0.00000E+000	7.30000E-001	1.01179E-003	5	..........a	-327.66
	1047	209.6	7.19905E-001	7.48990E-008	0.00000E+000	7.20000E-001	1.02649E-003	5	..........a	-327.66
	1048	209.8	7.09947E-001	6.94391E-008	0.00000E+000	7.10000E-001	1.02189E-003	5	..........a	-327.66
	1049	210	6.99916E-001	6.46312E-008	0.00000E+000	7.00000E-001	1.00109E-003	5	..........a	-327.66
	1050	210.2	6.89917E-001	6.01747E-008	0.00000E+000	6.90000E-001	1.03449E-003	5	..........a	-327.66
	1051	210.4	6.79959E-001	5.60839E-008	0.00000E+000	6.80000E-001	1.01459E-003	5	..........a	-327.66
	1052	210.6	6.69977E-001	5.23032E-008	0.00000E+000	6.70000E-001	1.01869E-003	5	..........a	-327.66
	1053	210.8	6.59934E-001	4.87435E-008	0.00000E+000	6.60000E-001	1.01769E-003	5	..........a	-327.66
	1054	211	6.49947E-001	4.54018E-008	0.00000E+000	6.50000E-001	1.01179E-003	5	..........a	-327.66
	1055	211.2	6.39880E-001	4.22438E-008	0.00000E+000	6.40000E-001	1.01999E-003	5	..........a	-327.66
	1056	211.4	6.29998E-001	3.91917E-008	0.00000E+000	6.30000E-001	1.00709E-003	5	..........a	-327.66
	1057	211.6	6.19944E-001	3.63229E-008	0.00000E+000	6.20000E-001	1.00729E-003	5	..........a	-327.66
	1058	211.8	6.09937E-001	3.35511E-008	0.00000E+000	6.10000E-001	1.02399E-003	5	..........a	-327.66
	1059	212	5.99985E-001	3.09067E-008	0.00000E+000	6.00000E-001	1.01629E-003	5	..........a	-327.66
	1060	212.2	5.89975E-001	2.84252E-008	0.00000E+000	5.90000E-001	1.02039E-003	5	..........a	-327.66
	1061	212.4	5.80025E-001	2.60677E-008	0.00000E+000	5.80000E-001	1.00729E-003	5	..........a	-327.66
	1062	212.6	5.69942E-001	2.38453E-008	0.00000E+000	5.70000E-001	1.00829E-003	5	..........a	-327.66
	1063	212.8	5.59945E-001	2.17048E-008	0.00000E+000	5.60000E-001	1.02749E-003	5	..........a	-327.66
	1064	213	5.50041E-001	1.95404E-008	0.00000E+000	5.50000E-001	1.01219E-003	5	..........a	-327.66
	1065	213.2	5.40008E-001	1.74419E-008	0.00000E+000	5.40000E-001	1.00419E-003	5	..........a	-327.66
	1066	213.4	5.29969E-001	1.54066E-008	0.00000E+000	5.30000E-001	1.02319E-003	5	..........a	-327.66
	1067	213.6	5.19961E-001	1.34008E-008	0.00000E+000	5.20000E-001	1.02459E-003	5	..........a	-327.66
	1068	213.8	5.09980E-001	1.14716E-008	0.00000E+000	5.10000E-001	1.02339E-003	5	..........a	-327.66
	1069	214	5.00051E-001	9.64949E-009	0.00000E+000	5.00000E-001	9.95692E-004	5	..........a	-327.66
	1070	214.2	4.89939E-001	7.89419E-009	0.00000E+000	4.90000E-001	1.01559E-003	5	..........a	-327.66
	1071	214.4	4.79916E-001	6.21059E-009	0.00000E+000	4.80000E-001	1.01799E-003	5	..........a	-327.66
	1072	214.6	4.70022E-001	4.50744E-009	0.00000E+000	4.70000E-001	1.01369E-003	5	..........a	-327.66
	1073	214.8	4.59993E-001	2.80801E-009	0.00000E+000	4.60000E-001	1.01809E-003	5	..........a	-327.66
	1074	215	4.49758E-001	1.06025E-009	0.00000E+000	4.50000E-001	1.00329E-003	5	..........a	-327.66
	1075	215.2	4.39955E-001	-7.29631E-010	0.00000E+000	4.40000E-001	1.00859E-003	5	..........a	-327.66
	1076	215.4	4.29990E-001	-2.45072E-009	0.00000E+000	4.30000E-001	1.02699E-003	5	..........a	-327.66
	1077	215.6	4.20033E-001	-4.16437E-009	0.00000E+000	4.20000E-001	1.01519E-003	5	..........a	-327.66
	1078	215.8	4.10008E-001	-5.98978E-009	0.00000E+000	4.10000E-001	1.00819E-003	5	..........a	-327.66
	1079	216	4.00002E-001	-7.74024E-009	0.00000E+000	4.00000E-001	1.02599E-003	5	..........a	-327.66
	1080	216.2	3.90067E-001	-9.54126E-009	0.00000E+000	3.90000E-001	1.00929E-003	5	..........a	-327.66
	1081	216.4	3.80080E-001	-1.13678E-008	0.00000E+000	3.80000E-001	1.00439E-003	5	..........a	-327.66
	1082	216.6	3.70051E-001	-1.32447E-008	0.00000E+000	3.70000E-001	1.02459E-003	5	..........a	-327.66
	1083	216.8	3.60024E-001	-1.51379E-008	0.00000E+000	3.60000E-001	1.01059E-003	5	..........a	-327.66
	1084	217	3.49991E-001	-1.70727E-008	0.00000E+000	3.50000E-001	1.03329E-003	5	..........a	-327.66
	1085	217.2	3.40092E-001	-1.90829E-008	0.00000E+000	3.40000E-001	9.98092E-004	5	..........a	-327.66
	1086	217.4	3.30006E-001	-2.12195E-008	0.00000E+000	3.30000E-001	1.00349E-003	5	..........a	-327.66
	1087	217.6	3.20049E-001	-2.33100E-008	0.00000E+000	3.20000E-001	1.01499E-003	5	..........a	-327.66
	1088	217.8	3.10058E-001	-2.55541E-008	0.00000E+000	3.10000E-001	1.01299E-003	5	..........a	-327.66
	1089	218	3.00103E-001	-2.78868E-008	0.00000E+000	3.00000E-001	1.02729E-003	5	..........a	-327.66
	1090	218.2	2.90053E-001	-3.03572E-008	0.00000E+000	2.90000E-001	1.01859E-003	5	..........a	-327.66
	1091	218.4	2.79975E-001	-3.29628E-008	0.00000E+000	2.80000E-001	1.03339E-003	5	..........a	-327.66
	1092	218.6	2.70086E-001	-3.56889E-008	0.00000E+000	2.70000E-001	1.02049E-003	5	..........a	-327.66
	1093	218.8	2.60062E-001	-3.84918E-008	0.00000E+000	2.60000E-001	1.02049E-003	5	..........a	-327.66
	1094	219	2.49993E-001	-4.14833E-008	0.00000E+000	2.50000E-001	1.00329E-003	5	..........a	-327.66
	1095	219.2	2.40086E-001	-4.44301E-008	0.00000E+000	2.40000E-001	1.00089E-003	5	..........a	-327.66
	1096	219.4	2.30024E-001	-4.72991E-008	0.00000E+000	2.30000E-001	1.02249E-003	5	..........a	-327.66
	1097	219.6	2.20013E-001	-5.00145E-008	0.00000E+000	2.20000E-001	9.99892E-004	5	..........a	-327.66
	1098	219.8	2.10030E-001	-5.24745E-008	0.00000E+000	2.10000E-001	1.02539E-003	5	..........a	-327.66
	1099	220	2.00075E-001	-5.44640E-008	0.00000E+000	2.00000E-001	1.02819E-003	5	..........a	-327.66
	1100	220.2	1.90131E-001	-5.59386E-008	0.00000E+000	1.90000E-001	1.02749E-003	5	..........a	-327.66
	1101	220.4	1.80134E-001	-5.68660E-008	0.00000E+000	1.80000E-001	9.89192E-004	5	..........a	-327.66
	1102	220.6	1.70084E-001	-5.71322E-008	0.00000E+000	1.70000E-001	1.01169E-003	5	..........a	-327.66
	1103	220.8	1.60077E-001	-5.68616E-008	0.00000E+000	1.60000E-001	1.02329E-003	5	..........a	-327.66
	1104	221	1.50086E-001	-5.60743E-008	0.00000E+000	1.50000E-001	1.01859E-003	5	..........a	-327.66
	1105	221.2	1.40147E-001	-5.49617E-008	0.00000E+000	1.40000E-001	1.00209E-003	5	..........a	-327.66
	1106	221.4	1.30060E-001	-5.36111E-008	0.00000E+000	1.30000E-001	1.02709E-003	5	..........a	-327.66
	1107	221.6	1.20062E-001	-5.21749E-008	0.00000E+000	1.20000E-001	1.02339E-003	5	..........a	-327.66
	1108	221.8	1.10129E-001	-5.07067E-008	0.00000E+000	1.10000E-001	1.02749E-003	5	..........a	-327.66
	1109	222	1.00135E-001	-4.94634E-008	0.00000E+000	1.00000E-001	1.00279E-003	5	..........a	-327.66
	1110	222.2	9.00910E-002	-4.84000E-008	0.00000E+000	9.00000E-002	1.00439E-003	5	..........a	-327.66
	1111	222.4	8.00385E-002	-4.76060E-008	0.00000E+000	8.00000E-002	1.01939E-003	5	..........a	-327.66
	1112	222.6	7.00411E-002	-4.71386E-008	0.00000E+000	7.00000E-002	1.02229E-003	5	..........a	-327.66
	1113	222.8	6.01269E-002	-4.69213E-008	0.00000E+000	6.00000E-002	1.01209E-003	5	..........a	-327.66
	1114	223	5.00612E-002	-4.69402E-008	0.00000E+000	5.00000E-002	1.02179E-003	5	..........a	-327.66
	1115	223.2	4.01323E-002	-4.71451E-008	0.00000E+000	4.00000E-002	1.00559E-003	5	..........a	-327.66
	1116	223.4	3.00659E-002	-4.75173E-008	0.00000E+000	3.00000E-002	1.03759E-003	5	..........a	-327.66
	1117	223.6	2.01597E-002	-4.81991E-008	0.00000E+000	2.00000E-002	1.00819E-003	5	..........a	-327.66
	1118	223.8	1.01148E-002	-4.87459E-008	0.00000E+000	1.00000E-002	1.01609E-003	5	..........a	-327.66
	1119	224	3.51417E-005	-4.91113E-008	0.00000E+000	7.45058E-009	1.03009E-003	5	..........a	-327.66
	1120	224.2	-9.86361E-003	-4.93214E-008	0.00000E+000	-1.00000E-002	1.00239E-003	5	..........a	-327.66