File: example_project/raw_outputs/20240424_H_GM0016_HL03_E02_CV50K.DTA
EXPLAIN
TAG	CV
TITLE	LABEL	Cyclic Voltammetry	Test &Identifier
DATE	LABEL	4/24/2024	Date
TIME	LABEL	17:07:40	Time
NOTES	NOTES	1	&Notes...

PSTAT	PSTAT	REF600P-43058	Potentiostat
VINIT	POTEN	0.00000E+000	T	Initial &E (V)
VLIMIT1	POTEN	-6.00000E-001	F	Scan Limit &1 (V)
VLIMIT2	POTEN	8.00000E-001	F	Scan Limit &2 (V)
VFINAL	POTEN	0.00000E+000	T	Final &E (V)
SCANRATE	QUANT	4.99999E+004	&Scan Rate (mV/s)
STEPSIZE	QUANT	1.00000E+001	St&ep Size (mV)
CYCLES	IQUANT	10	C&ycles (#)
IMODE	SELECTOR	0	I/E Range &Mode
IRANGE	QUANT	1.00000E-005	&Max Current (mA)
AREA	QUANT	1.00000E+000	Electrode &Area (cm^2)
ELECTRODETYPE	SELECTOR	0	Electrode Type
STRIPPING	TOGGLE	F	Used for Stripping
POLARITY	TOGGLE	F	Signal Polarity
CONDIT	TWOPARAM	F	1.50000E+001	0.00000E+000	Conditionin&g	Time(s)	E(V)
DELAY	TWOPARAM	T	1.00000E+001	0.00000E+000	Init. De&lay	Time(s)	Stab.(mV/s)
EQDELAY	QUANT	1.00000E+001	Equil. &Time (s)
IRCOMP	SELECTOR	0	IRCom&p
PFCOR	QUANT	5.00000E+001	PF Corr. (ohm)
SAMPLINGMODE	SELECTOR	1	Sampling &Mode
OCVCURVE	TABLE	39
	Pt	T	Vf	Vm	Ach	Over	Temp
	#	s	V vs. Ref.	V	V	bits	deg C
	0	0.258333	-7.35676E-002	-7.35676E-002	2.21592E-004	..........a	-327.66
	1	0.516667	-7.35755E-002	-7.39850E-002	2.21859E-004	..........a	-327.66
	2	0.775	-7.36250E-002	-7.44041E-002	2.33526E-004	..........a	-327.66
	3	1.03333	-7.37665E-002	-7.48170E-002	2.24126E-004	..........a	-327.66
	4	1.29167	-7.40236E-002	-7.52253E-002	2.35392E-004	..........a	-327.66
	5	1.55	-7.43727E-002	-7.56366E-002	2.15059E-004	..........a	-327.66
	6	1.80833	-7.47705E-002	-7.60371E-002	2.21326E-004	..........a	-327.66
	7	2.06667	-7.51837E-002	-7.64403E-002	2.27126E-004	..........a	-327.66
	8	2.325	-7.55964E-002	-7.68418E-002	2.27726E-004	..........a	-327.66
	9	2.58333	-7.60044E-002	-7.72424E-002	2.28326E-004	..........a	-327.66
	10	2.84167	-7.64084E-002	-7.76365E-002	2.31659E-004	..........a	-327.66
	11	3.1	-7.68098E-002	-7.80441E-002	2.12126E-004	..........a	-327.66
	12	3.35833	-7.72097E-002	-7.84266E-002	2.25526E-004	..........a	-327.66
	13	3.61667	-7.76081E-002	-7.88199E-002	2.34592E-004	..........a	-327.66
	14	3.875	-7.80042E-002	-7.92100E-002	2.25459E-004	..........a	-327.66
	15	4.13333	-7.83976E-002	-7.95961E-002	2.30792E-004	..........a	-327.66
	16	4.39167	-7.87886E-002	-7.99832E-002	2.30259E-004	..........a	-327.66
	17	4.65	-7.91778E-002	-8.03633E-002	2.22326E-004	..........a	-327.66
	18	4.90833	-7.95650E-002	-8.07439E-002	2.22726E-004	..........a	-327.66
	19	5.16667	-7.99499E-002	-8.11182E-002	2.18259E-004	..........a	-327.66
	20	5.425	-8.03321E-002	-8.14928E-002	2.29126E-004	..........a	-327.66
	21	5.68333	-8.07113E-002	-8.18614E-002	2.42926E-004	..........a	-327.66
	22	5.94167	-8.10876E-002	-8.22338E-002	2.30592E-004	..........a	-327.66
	23	6.2	-8.14613E-002	-8.25961E-002	2.20926E-004	..........a	-327.66
	24	6.45833	-8.18324E-002	-8.29613E-002	2.27792E-004	..........a	-327.66
	25	6.71667	-8.22011E-002	-8.33235E-002	2.31792E-004	..........a	-327.66
	26	6.975	-8.25674E-002	-8.36822E-002	2.18459E-004	..........a	-327.66
	27	7.23333	-8.29314E-002	-8.40370E-002	2.18326E-004	..........a	-327.66
	28	7.49167	-8.32930E-002	-8.43930E-002	2.26792E-004	..........a	-327.66
	29	7.75	-8.36521E-002	-8.47475E-002	2.34392E-004	..........a	-327.66
	30	8.00833	-8.40091E-002	-8.50970E-002	2.33059E-004	..........a	-327.66
	31	8.26667	-8.43641E-002	-8.54400E-002	2.31526E-004	..........a	-327.66
	32	8.525	-8.47166E-002	-8.57780E-002	2.26592E-004	..........a	-327.66
	33	8.78333	-8.50654E-002	-8.61216E-002	2.21126E-004	..........a	-327.66
	34	9.04167	-8.54106E-002	-8.64603E-002	2.22259E-004	..........a	-327.66
	35	9.3	-8.57529E-002	-8.67940E-002	2.28926E-004	..........a	-327.66
	36	9.5583	-8.60930E-002	-8.71231E-002	2.34859E-004	..........a	-327.66
	37	9.8167	-8.64304E-002	-8.74461E-002	2.29726E-004	..........a	-327.66
	38	10.075	-8.67642E-002	-8.77705E-002	2.25059E-004	..........a	-327.66
EOC	QUANT	-0.0867642	Open Circuit (V)
PSTATMODEL	IQUANT	7	Pstat Model
PSTATSECTION	LABEL	REF600P-43058	Pstat Section
PSTATSERIALNO	LABEL	43058	Pstat Serial Number
CTRLMODE	IQUANT	1	Control Mode
ELECTROMETER	IQUANT	0	RE=0 or CS=1
IESTAB	IQUANT	2	I/E Stability
CASPEED	IQUANT	4	Control Amp Speed
CONVENTION	IQUANT	1	Current Convention
ICHRANGE	IQUANT	2	Ich Range
ICHRANGEMODE	TOGGLE	F	Ich Auto Range
ICHOFFSETENABLE	TOGGLE	F	Ich Offset Enable
ICHOFFSET	QUANT	0	Ich Offset (V)
ICHFILTER	IQUANT	1	Ich Filter
VCHRANGE	IQUANT	2	Vch Range
VCHRANGEMODE	TOGGLE	F	Vch Auto Range
VCHOFFSETENABLE	TOGGLE	F	Vch Offset Enable
VCHOFFSET	QUANT	0	Vch Offset (V)
VCHFILTER	IQUANT	1	Vch Filter
ACHRANGE	IQUANT	2	Ach Range
ACHOFFSETENABLE	TOGGLE	F	Ach Offset Enable
ACHOFFSET	QUANT	0	Ach Offset (V)
ACHFILTER	IQUANT	1	Ach Filter
IERANGELOWERLIMIT	IQUANT	1	I/E Range Lower Limit
IERANGEMODE	TOGGLE	T	I/E AutoRange
IERANGE	IQUANT	4	I/E Range
POSFEEDENABLE	TOGGLE	F	Positive Feedback IR Comp
POSFEEDRESISTANCE	QUANT	0	Positive Feedback Resistance (ohm)
ACHSELECT	IQUANT	4	Ach Select
SENSECABLEID	IQUANT	7	Sense Cable ID
PWRCABLEID	IQUANT	7	Power Cable ID
DCCALDATE	LABEL	3/22/2024	DC Calibration Date
ACCALDATE	LABEL	3/22/2024	AC Calibration Date
THERMOSELECT	IQUANT	1	Thermo Select
FRAMEWORKVERSION	LABEL	7.8.4	Framework Version
INSTRUMENTVERSION	LABEL	4.42	Instrument Version
CURVE1	TABLE
	Pt	T	Vf	Im	Vu	Sig	Ach	IERange	Over	Temp
	#	s	V vs. Ref.	A	V	V	V	#	bits	deg C
	0	0.0002	-8.67529E-002	2.05000E-007	0.00000E+000	-8.67500E-002	-4.18408E-004	8	..........a	-327.66
	1	0.0004	-9.67529E-002	-6.45033E-007	0.00000E+000	-9.67500E-002	8.15923E-005	8	..........a	-327.66
	2	0.0006	-1.06753E-001	-1.32506E-006	0.00000E+000	-1.06750E-001	-3.18408E-004	8	..........a	-327.66
	3	0.0008	-1.16753E-001	-1.88508E-006	0.00000E+000	-1.16750E-001	8.15923E-005	8	..........a	-327.66
	4	0.001	-1.26753E-001	-2.30510E-006	0.00000E+000	-1.26750E-001	8.15923E-005	8	..........a	-327.66
	5	0.0012	-1.36653E-001	-2.71511E-006	0.00000E+000	-1.36750E-001	8.15923E-005	8	..........a	-327.66
	6	0.0014	-1.46553E-001	-3.11513E-006	0.00000E+000	-1.46750E-001	8.15923E-005	8	..........a	-327.66
	7	0.0016	-1.56653E-001	-3.35514E-006	0.00000E+000	-1.56750E-001	8.15923E-005	8	..........a	-327.66
	8	0.0018	-1.66753E-001	-3.53514E-006	0.00000E+000	-1.66750E-001	-3.18408E-004	8	..........a	-327.66
	9	0.002	-1.76653E-001	-3.85516E-006	0.00000E+000	-1.76750E-001	8.15923E-005	8	..........a	-327.66
	10	0.0022	-1.86753E-001	-4.00516E-006	0.00000E+000	-1.86750E-001	8.15923E-005	8	..........a	-327.66
	11	0.0024	-1.96753E-001	-4.27517E-006	0.00000E+000	-1.96750E-001	8.15923E-005	8	..........a	-327.66
	12	0.0026	-2.06653E-001	-4.38518E-006	0.00000E+000	-2.06750E-001	8.15923E-005	8	..........a	-327.66
	13	0.0028	-2.16653E-001	-4.59518E-006	0.00000E+000	-2.16750E-001	8.15923E-005	8	..........a	-327.66
	14	0.003	-2.26653E-001	-4.73519E-006	0.00000E+000	-2.26750E-001	8.15923E-005	8	..........a	-327.66
	15	0.0032	-2.36653E-001	-4.91520E-006	0.00000E+000	-2.36750E-001	8.15923E-005	8	..........a	-327.66
	16	0.0034	-2.46753E-001	-4.96520E-006	0.00000E+000	-2.46750E-001	8.15923E-005	8	..........a	-327.66
	17	0.0036	-2.56653E-001	-5.17521E-006	0.00000E+000	-2.56750E-001	8.15923E-005	8	..........a	-327.66
	18	0.0038	-2.66753E-001	-5.22521E-006	0.00000E+000	-2.66750E-001	8.15923E-005	8	..........a	-327.66
	19	0.004	-2.76553E-001	-5.41522E-006	0.00000E+000	-2.76750E-001	8.15923E-005	8	..........a	-327.66
	20	0.0042	-2.86753E-001	-5.49522E-006	0.00000E+000	-2.86750E-001	8.15923E-005	8	..........a	-327.66
	21	0.0044	-2.96553E-001	-5.57522E-006	0.00000E+000	-2.96750E-001	8.15923E-005	8	..........a	-327.66
	22	0.0046	-3.06853E-001	-5.71523E-006	0.00000E+000	-3.06750E-001	8.15923E-005	8	..........a	-327.66
	23	0.0048	-3.16653E-001	-5.89523E-006	0.00000E+000	-3.16750E-001	8.15923E-005	8	..........a	-327.66
	24	0.005	-3.26753E-001	-5.92523E-006	0.00000E+000	-3.26750E-001	8.15923E-005	8	..........a	-327.66
	25	0.0052	-3.36553E-001	-6.04524E-006	0.00000E+000	-3.36750E-001	8.15923E-005	8	..........a	-327.66
	26	0.0054	-3.46753E-001	-6.18524E-006	0.00000E+000	-3.46750E-001	8.15923E-005	8	..........a	-327.66
	27	0.0056	-3.56753E-001	-6.34525E-006	0.00000E+000	-3.56750E-001	8.15923E-005	8	..........a	-327.66
	28	0.0058	-3.66753E-001	-6.41525E-006	0.00000E+000	-3.66750E-001	8.15923E-005	8	..........a	-327.66
	29	0.006	-3.76753E-001	-6.50526E-006	0.00000E+000	-3.76750E-001	8.15923E-005	8	..........a	-327.66
	30	0.0062	-3.86753E-001	-6.66526E-006	0.00000E+000	-3.86750E-001	8.15923E-005	8	..........a	-327.66
	31	0.0064	-3.96653E-001	-6.73527E-006	0.00000E+000	-3.96750E-001	8.15923E-005	8	..........a	-327.66
	32	0.0066	-4.06753E-001	-6.84527E-006	0.00000E+000	-4.06750E-001	8.15923E-005	8	..........a	-327.66
	33	0.0068	-4.16553E-001	-6.96527E-006	0.00000E+000	-4.16750E-001	8.15923E-005	8	..........a	-327.66
	34	0.007	-4.26653E-001	-7.10528E-006	0.00000E+000	-4.26750E-001	8.15923E-005	8	..........a	-327.66
	35	0.0072	-4.36653E-001	-7.17528E-006	0.00000E+000	-4.36750E-001	8.15923E-005	8	..........a	-327.66
	36	0.0074	-4.46253E-001	-7.31529E-006	0.00000E+000	-4.46750E-001	8.15923E-005	8	..........a	-327.66
	37	0.0076	-4.56653E-001	-7.47529E-006	0.00000E+000	-4.56750E-001	8.15923E-005	8	..........a	-327.66
	38	0.0078	-4.66653E-001	-7.57530E-006	0.00000E+000	-4.66750E-001	-4.18408E-004	8	..........a	-327.66
	39	0.008	-4.76753E-001	-7.70530E-006	0.00000E+000	-4.76750E-001	8.15923E-005	8	..........a	-327.66
	40	0.0082	-4.86653E-001	-7.78531E-006	0.00000E+000	-4.86750E-001	8.15923E-005	8	..........a	-327.66
	41	0.0084	-4.96453E-001	-7.93531E-006	0.00000E+000	-4.96750E-001	-4.18408E-004	8	..........a	-327.66
	42	0.0086	-5.06553E-001	-8.06532E-006	0.00000E+000	-5.06750E-001	8.15923E-005	8	..........a	-327.66
	43	0.0088	-5.16553E-001	-8.21532E-006	0.00000E+000	-5.16750E-001	8.15923E-005	8	..........a	-327.66
	44	0.009	-5.26653E-001	-8.35533E-006	0.00000E+000	-5.26750E-001	8.15923E-005	8	..........a	-327.66
	45	0.0092	-5.36553E-001	-8.43533E-006	0.00000E+000	-5.36750E-001	8.15923E-005	8	..........a	-327.66
	46	0.0094	-5.46653E-001	-8.57534E-006	0.00000E+000	-5.46750E-001	8.15923E-005	8	..........a	-327.66
	47	0.0096	-5.56653E-001	-8.67534E-006	0.00000E+000	-5.56750E-001	8.15923E-005	8	..........a	-327.66
	48	0.0098	-5.66753E-001	-8.76534E-006	0.00000E+000	-5.66750E-001	-3.18408E-004	8	..........a	-327.66
	49	0.01	-5.76553E-001	-8.91535E-006	0.00000E+000	-5.76750E-001	8.15923E-005	8	..........a	-327.66
	50	0.0102	-5.86553E-001	-9.03535E-006	0.00000E+000	-5.86750E-001	8.15923E-005	8	..........a	-327.66
	51	0.0104	-5.96853E-001	-9.17536E-006	0.00000E+000	-5.96750E-001	8.15923E-005	8	..........a	-327.66
	52	0.0106	-5.86703E-001	-7.47529E-006	0.00000E+000	-5.86750E-001	8.15923E-005	8	..........a	-327.66
	53	0.0108	-5.76653E-001	-6.16524E-006	0.00000E+000	-5.76750E-001	8.15923E-005	8	..........a	-327.66
	54	0.011	-5.66553E-001	-5.01520E-006	0.00000E+000	-5.66750E-001	8.15923E-005	8	..........a	-327.66
	55	0.0112	-5.56553E-001	-4.03516E-006	0.00000E+000	-5.56750E-001	8.15923E-005	8	..........a	-327.66
	56	0.0114	-5.46753E-001	-3.20513E-006	0.00000E+000	-5.46750E-001	8.15923E-005	8	..........a	-327.66
	57	0.0116	-5.36753E-001	-2.37510E-006	0.00000E+000	-5.36750E-001	-3.18408E-004	8	..........a	-327.66
	58	0.0118	-5.26653E-001	-1.68507E-006	0.00000E+000	-5.26750E-001	8.15923E-005	8	..........a	-327.66
	59	0.012	-5.16753E-001	-1.02505E-006	0.00000E+000	-5.16750E-001	8.15923E-005	8	..........a	-327.66
	60	0.0122	-5.06753E-001	-4.85027E-007	0.00000E+000	-5.06750E-001	8.15923E-005	8	..........a	-327.66
	61	0.0124	-4.96453E-001	1.04996E-007	0.00000E+000	-4.96750E-001	8.15923E-005	8	..........a	-327.66
	62	0.0126	-4.86703E-001	5.95015E-007	0.00000E+000	-4.86750E-001	-2.18408E-004	8	..........a	-327.66
	63	0.0128	-4.76553E-001	1.04503E-006	0.00000E+000	-4.76750E-001	8.15923E-005	8	..........a	-327.66
	64	0.013	-4.66653E-001	1.48505E-006	0.00000E+000	-4.66750E-001	8.15923E-005	8	..........a	-327.66
	65	0.0132	-4.56653E-001	1.84506E-006	0.00000E+000	-4.56750E-001	8.15923E-005	8	..........a	-327.66
	66	0.0134	-4.46753E-001	2.18508E-006	0.00000E+000	-4.46750E-001	8.15923E-005	8	..........a	-327.66
	67	0.0136	-4.36753E-001	2.50509E-006	0.00000E+000	-4.36750E-001	-3.18408E-004	8	..........a	-327.66
	68	0.0138	-4.26753E-001	2.84510E-006	0.00000E+000	-4.26750E-001	-3.18408E-004	8	..........a	-327.66
	69	0.014	-4.16553E-001	3.16511E-006	0.00000E+000	-4.16750E-001	8.15923E-005	8	..........a	-327.66
	70	0.0142	-4.06603E-001	3.38512E-006	0.00000E+000	-4.06750E-001	8.15923E-005	8	..........a	-327.66
	71	0.0144	-3.96753E-001	3.67513E-006	0.00000E+000	-3.96750E-001	8.15923E-005	8	..........a	-327.66
	72	0.0146	-3.86653E-001	3.91514E-006	0.00000E+000	-3.86750E-001	8.15923E-005	8	..........a	-327.66
	73	0.0148	-3.76653E-001	4.06515E-006	0.00000E+000	-3.76750E-001	8.15923E-005	8	..........a	-327.66
	74	0.015	-3.66653E-001	4.27516E-006	0.00000E+000	-3.66750E-001	-2.18408E-004	8	..........a	-327.66
	75	0.0152	-3.56753E-001	4.48516E-006	0.00000E+000	-3.56750E-001	8.15923E-005	8	..........a	-327.66
	76	0.0154	-3.46753E-001	4.63517E-006	0.00000E+000	-3.46750E-001	8.15923E-005	8	..........a	-327.66
	77	0.0156	-3.36553E-001	4.79518E-006	0.00000E+000	-3.36750E-001	8.15923E-005	8	..........a	-327.66
	78	0.0158	-3.26753E-001	4.98518E-006	0.00000E+000	-3.26750E-001	8.15923E-005	8	..........a	-327.66
	79	0.016	-3.16653E-001	5.09519E-006	0.00000E+000	-3.16750E-001	8.15923E-005	8	..........a	-327.66
	80	0.0162	-3.06753E-001	5.22519E-006	0.00000E+000	-3.06750E-001	8.15923E-005	8	..........a	-327.66
	81	0.0164	-2.96453E-001	5.39520E-006	0.00000E+000	-2.96750E-001	8.15923E-005	8	..........a	-327.66
	82	0.0166	-2.86653E-001	5.49520E-006	0.00000E+000	-2.86750E-001	8.15923E-005	8	..........a	-327.66
	83	0.0168	-2.76753E-001	5.61521E-006	0.00000E+000	-2.76750E-001	-4.18408E-004	8	..........a	-327.66
	84	0.017	-2.66953E-001	5.71521E-006	0.00000E+000	-2.66750E-001	8.15923E-005	8	..........a	-327.66
	85	0.0172	-2.56603E-001	5.82522E-006	0.00000E+000	-2.56750E-001	8.15923E-005	8	..........a	-327.66
	86	0.0174	-2.46853E-001	5.92522E-006	0.00000E+000	-2.46750E-001	8.15923E-005	8	..........a	-327.66
	87	0.0176	-2.36753E-001	5.99522E-006	0.00000E+000	-2.36750E-001	8.15923E-005	8	..........a	-327.66
	88	0.0178	-2.26753E-001	6.09523E-006	0.00000E+000	-2.26750E-001	-3.18408E-004	8	..........a	-327.66
	89	0.018	-2.16603E-001	6.12523E-006	0.00000E+000	-2.16750E-001	8.15923E-005	8	..........a	-327.66
	90	0.0182	-2.06803E-001	6.29523E-006	0.00000E+000	-2.06750E-001	8.15923E-005	8	..........a	-327.66
	91	0.0184	-1.96653E-001	6.35524E-006	0.00000E+000	-1.96750E-001	8.15923E-005	8	..........a	-327.66
	92	0.0186	-1.86653E-001	6.46524E-006	0.00000E+000	-1.86750E-001	8.15923E-005	8	..........a	-327.66
	93	0.0188	-1.76653E-001	6.53524E-006	0.00000E+000	-1.76750E-001	8.15923E-005	8	..........a	-327.66
	94	0.019	-1.66653E-001	6.61525E-006	0.00000E+000	-1.66750E-001	8.15923E-005	8	..........a	-327.66
	95	0.0192	-1.56753E-001	6.70525E-006	0.00000E+000	-1.56750E-001	8.15923E-005	8	..........a	-327.66
	96	0.0194	-1.46753E-001	6.73525E-006	0.00000E+000	-1.46750E-001	8.15923E-005	8	..........a	-327.66
	97	0.0196	-1.36553E-001	6.80525E-006	0.00000E+000	-1.36750E-001	8.15923E-005	8	..........a	-327.66
	98	0.0198	-1.26753E-001	6.83525E-006	0.00000E+000	-1.26750E-001	8.15923E-005	8	..........a	-327.66
	99	0.02	-1.16853E-001	6.89526E-006	0.00000E+000	-1.16750E-001	8.15923E-005	8	..........a	-327.66
	100	0.0202	-1.06753E-001	6.95526E-006	0.00000E+000	-1.06750E-001	-1.18408E-004	8	..........a	-327.66
	101	0.0204	-9.65529E-002	7.03526E-006	0.00000E+000	-9.67500E-002	8.15923E-005	8	..........a	-327.66
	102	0.0206	-8.67529E-002	7.07526E-006	0.00000E+000	-8.67500E-002	8.15923E-005	8	..........a	-327.66
	103	0.0208	-7.66529E-002	7.14527E-006	0.00000E+000	-7.67500E-002	8.15923E-005	8	..........a	-327.66
	104	0.021	-6.67529E-002	7.19527E-006	0.00000E+000	-6.67500E-002	8.15923E-005	8	..........a	-327.66
	105	0.0212	-5.65529E-002	7.24527E-006	0.00000E+000	-5.67500E-002	8.15923E-005	8	..........a	-327.66
	106	0.0214	-4.66529E-002	7.30527E-006	0.00000E+000	-4.67500E-002	8.15923E-005	8	..........a	-327.66
	107	0.0216	-3.67529E-002	7.30527E-006	0.00000E+000	-3.67500E-002	8.15923E-005	8	..........a	-327.66
	108	0.0218	-2.68529E-002	7.38527E-006	0.00000E+000	-2.67500E-002	-2.18408E-004	8	..........a	-327.66
	109	0.022	-1.66529E-002	7.43528E-006	0.00000E+000	-1.67500E-002	8.15923E-005	8	..........a	-327.66
	110	0.0222	-6.65289E-003	7.54528E-006	0.00000E+000	-6.75000E-003	-2.18408E-004	8	..........a	-327.66
	111	0.0224	3.24711E-003	7.58528E-006	0.00000E+000	3.25000E-003	8.15923E-005	8	..........a	-327.66
	112	0.0226	1.31471E-002	7.60528E-006	0.00000E+000	1.32500E-002	8.15923E-005	8	..........a	-327.66
	113	0.0228	2.32471E-002	7.65529E-006	0.00000E+000	2.32500E-002	8.15923E-005	8	..........a	-327.66
	114	0.023	3.33471E-002	7.77529E-006	0.00000E+000	3.32500E-002	8.15923E-005	8	..........a	-327.66
	115	0.0232	4.31471E-002	7.82529E-006	0.00000E+000	4.32500E-002	8.15923E-005	8	..........a	-327.66
	116	0.0234	5.32471E-002	7.89529E-006	0.00000E+000	5.32500E-002	8.15923E-005	8	..........a	-327.66
	117	0.0236	6.32471E-002	7.97530E-006	0.00000E+000	6.32500E-002	8.15923E-005	8	..........a	-327.66
	118	0.0238	7.33971E-002	8.06530E-006	0.00000E+000	7.32500E-002	8.15923E-005	8	..........a	-327.66
	119	0.024	8.33471E-002	8.16530E-006	0.00000E+000	8.32500E-002	8.15923E-005	8	..........a	-327.66
	120	0.0242	9.32471E-002	8.22531E-006	0.00000E+000	9.32500E-002	8.15923E-005	8	..........a	-327.66
	121	0.0244	1.03297E-001	8.31531E-006	0.00000E+000	1.03250E-001	8.15923E-005	8	..........a	-327.66
	122	0.0246	1.13247E-001	8.43532E-006	0.00000E+000	1.13250E-001	8.15923E-005	8	..........a	-327.66
	123	0.0248	1.23347E-001	8.57532E-006	0.00000E+000	1.23250E-001	8.15923E-005	8	..........a	-327.66
	124	0.025	1.33247E-001	8.67532E-006	0.00000E+000	1.33250E-001	8.15923E-005	8	..........a	-327.66
	125	0.0252	1.43447E-001	8.81533E-006	0.00000E+000	1.43250E-001	8.15923E-005	8	..........a	-327.66
	126	0.0254	1.53197E-001	8.96533E-006	0.00000E+000	1.53250E-001	8.15923E-005	8	..........a	-327.66
	127	0.0256	1.63247E-001	9.12534E-006	0.00000E+000	1.63250E-001	8.15923E-005	8	..........a	-327.66
	128	0.0258	1.73347E-001	9.27535E-006	0.00000E+000	1.73250E-001	-3.18408E-004	8	..........a	-327.66
	129	0.026	1.83447E-001	9.40535E-006	0.00000E+000	1.83250E-001	8.15923E-005	8	..........a	-327.66
	130	0.0262	1.93447E-001	9.57536E-006	0.00000E+000	1.93250E-001	8.15923E-005	8	..........a	-327.66
	131	0.0264	2.03347E-001	9.77537E-006	0.00000E+000	2.03250E-001	8.15923E-005	8	..........a	-327.66
	132	0.0266	2.13347E-001	9.91537E-006	0.00000E+000	2.13250E-001	-2.18408E-004	8	..........a	-327.66
	133	0.0268	2.23397E-001	1.00954E-005	0.00000E+000	2.23250E-001	8.15923E-005	8	..........a	-327.66
	134	0.027	2.33247E-001	1.02654E-005	0.00000E+000	2.33250E-001	8.15923E-005	8	..........a	-327.66
	135	0.0272	2.43447E-001	1.04654E-005	0.00000E+000	2.43250E-001	8.15923E-005	8	..........a	-327.66
	136	0.0274	2.53247E-001	1.06354E-005	0.00000E+000	2.53250E-001	8.15923E-005	8	..........a	-327.66
	137	0.0276	2.63347E-001	1.08754E-005	0.00000E+000	2.63250E-001	8.15923E-005	8	..........a	-327.66
	138	0.0278	2.73297E-001	1.10554E-005	0.00000E+000	2.73250E-001	8.15923E-005	8	..........a	-327.66
	139	0.028	2.83147E-001	1.12454E-005	0.00000E+000	2.83250E-001	8.15923E-005	8	..........a	-327.66
	140	0.0282	2.93247E-001	1.14654E-005	0.00000E+000	2.93250E-001	8.15923E-005	8	..........a	-327.66
	141	0.0284	3.03347E-001	1.17354E-005	0.00000E+000	3.03250E-001	8.15923E-005	8	..........a	-327.66
	142	0.0286	3.13147E-001	1.19154E-005	0.00000E+000	3.13250E-001	8.15923E-005	8	..........a	-327.66
	143	0.0288	3.23347E-001	1.21355E-005	0.00000E+000	3.23250E-001	-3.18408E-004	8	..........a	-327.66
	144	0.029	3.33347E-001	1.23255E-005	0.00000E+000	3.33250E-001	8.15923E-005	8	..........a	-327.66
	145	0.0292	3.43447E-001	1.26055E-005	0.00000E+000	3.43250E-001	8.15923E-005	8	..........a	-327.66
	146	0.0294	3.53347E-001	1.27955E-005	0.00000E+000	3.53250E-001	8.15923E-005	8	..........a	-327.66
	147	0.0296	3.63297E-001	1.29955E-005	0.00000E+000	3.63250E-001	8.15923E-005	8	..........a	-327.66
	148	0.0298	3.72947E-001	1.32155E-005	0.00000E+000	3.73250E-001	8.15923E-005	8	..........a	-327.66
	149	0.03	3.83347E-001	1.34755E-005	0.00000E+000	3.83250E-001	8.15923E-005	8	..........a	-327.66
	150	0.0302	3.93247E-001	1.36955E-005	0.00000E+000	3.93250E-001	8.15923E-005	8	..........a	-327.66
	151	0.0304	4.03247E-001	1.39055E-005	0.00000E+000	4.03250E-001	8.15923E-005	8	..........a	-327.66
	152	0.0306	4.13347E-001	1.41255E-005	0.00000E+000	4.13250E-001	8.15923E-005	8	..........a	-327.66
	153	0.0308	4.23447E-001	1.43555E-005	0.00000E+000	4.23250E-001	8.15923E-005	8	..........a	-327.66
	154	0.031	4.33047E-001	1.46056E-005	0.00000E+000	4.33250E-001	-3.18408E-004	8	..........a	-327.66
	155	0.0312	4.43197E-001	1.48056E-005	0.00000E+000	4.43250E-001	8.15923E-005	8	..........a	-327.66
	156	0.0314	4.53347E-001	1.50356E-005	0.00000E+000	4.53250E-001	8.15923E-005	8	..........a	-327.66
	157	0.0316	4.63347E-001	1.52256E-005	0.00000E+000	4.63250E-001	8.15923E-005	8	..........a	-327.66
	158	0.0318	4.73247E-001	1.54456E-005	0.00000E+000	4.73250E-001	-3.18408E-004	8	..........a	-327.66
	159	0.032	4.82997E-001	1.56756E-005	0.00000E+000	4.83250E-001	8.15923E-005	8	..........a	-327.66
	160	0.0322	4.93447E-001	1.58556E-005	0.00000E+000	4.93250E-001	8.15923E-005	8	..........a	-327.66
	161	0.0324	5.03447E-001	1.60256E-005	0.00000E+000	5.03250E-001	8.15923E-005	8	..........a	-327.66
	162	0.0326	5.13247E-001	1.62656E-005	0.00000E+000	5.13250E-001	8.15923E-005	8	..........a	-327.66
	163	0.0328	5.23247E-001	1.64656E-005	0.00000E+000	5.23250E-001	8.15923E-005	8	..........a	-327.66
	164	0.033	5.33197E-001	1.66156E-005	0.00000E+000	5.33250E-001	8.15923E-005	8	..........a	-327.66
	165	0.0332	5.43247E-001	1.68456E-005	0.00000E+000	5.43250E-001	8.15923E-005	8	..........a	-327.66
	166	0.0334	5.53247E-001	1.70856E-005	0.00000E+000	5.53250E-001	8.15923E-005	8	..........a	-327.66
	167	0.0336	5.63347E-001	1.72357E-005	0.00000E+000	5.63250E-001	8.15923E-005	8	..........a	-327.66
	168	0.0338	5.73247E-001	1.74657E-005	0.00000E+000	5.73250E-001	8.15923E-005	8	..........a	-327.66
	169	0.034	5.83397E-001	1.75757E-005	0.00000E+000	5.83250E-001	8.15923E-005	8	..........a	-327.66
	170	0.0342	5.93197E-001	1.77657E-005	0.00000E+000	5.93250E-001	8.15923E-005	8	..........a	-327.66
	171	0.0344	6.03147E-001	1.79657E-005	0.00000E+000	6.03250E-001	8.15923E-005	8	..........a	-327.66
	172	0.0346	6.13147E-001	1.80957E-005	0.00000E+000	6.13250E-001	8.15923E-005	8	..........a	-327.66
	173	0.0348	6.23247E-001	1.81857E-005	0.00000E+000	6.23250E-001	8.15923E-005	8	..........a	-327.66
	174	0.035	6.33347E-001	1.83957E-005	0.00000E+000	6.33250E-001	8.15923E-005	8	..........a	-327.66
	175	0.0352	6.43047E-001	1.84457E-005	0.00000E+000	6.43250E-001	8.15923E-005	8	..........a	-327.66
	176	0.0354	6.53247E-001	1.85557E-005	0.00000E+000	6.53250E-001	8.15923E-005	8	..........a	-327.66
	177	0.0356	6.63147E-001	1.87057E-005	0.00000E+000	6.63250E-001	8.15923E-005	8	..........a	-327.66
	178	0.0358	6.73247E-001	1.87657E-005	0.00000E+000	6.73250E-001	8.15923E-005	8	..........a	-327.66
	179	0.036	6.83247E-001	1.88857E-005	0.00000E+000	6.83250E-001	8.15923E-005	8	..........a	-327.66
	180	0.0362	6.93147E-001	1.89557E-005	0.00000E+000	6.93250E-001	8.15923E-005	8	..........a	-327.66
	181	0.0364	7.03247E-001	1.90157E-005	0.00000E+000	7.03250E-001	8.15923E-005	8	..........a	-327.66
	182	0.0366	7.13347E-001	1.90557E-005	0.00000E+000	7.13250E-001	8.15923E-005	8	..........a	-327.66
	183	0.0368	7.23147E-001	1.90957E-005	0.00000E+000	7.23250E-001	8.15923E-005	8	..........a	-327.66
	184	0.037	7.33047E-001	1.91157E-005	0.00000E+000	7.33250E-001	8.15923E-005	8	..........a	-327.66
	185	0.0372	7.43047E-001	1.92057E-005	0.00000E+000	7.43250E-001	8.15923E-005	8	..........a	-327.66
	186	0.0374	7.53147E-001	1.92057E-005	0.00000E+000	7.53250E-001	8.15923E-005	8	..........a	-327.66
	187	0.0376	7.63047E-001	1.91857E-005	0.00000E+000	7.63250E-001	8.15923E-005	8	..........a	-327.66
	188	0.0378	7.73147E-001	1.91957E-005	0.00000E+000	7.73250E-001	8.15923E-005	8	..........a	-327.66
	189	0.038	7.83447E-001	1.91757E-005	0.00000E+000	7.83250E-001	8.15923E-005	8	..........a	-327.66
	190	0.0382	7.93247E-001	1.91957E-005	0.00000E+000	7.93250E-001	8.15923E-005	8	..........a	-327.66
	191	0.0384	8.03247E-001	1.91857E-005	0.00000E+000	8.03250E-001	8.15923E-005	8	..........a	-327.66
CURVE2	TABLE
	Pt	T	Vf	Im	Vu	Sig	Ach	IERange	Over	Temp
	#	s	V vs. Ref.	A	V	V	V	#	bits	deg C
	192	0.0386	7.89947E-001	1.66056E-005	0.00000E+000	7.90000E-001	8.15923E-005	8	..........a	-327.66
	193	0.0388	7.80047E-001	1.49556E-005	0.00000E+000	7.80000E-001	8.15923E-005	8	..........a	-327.66
	194	0.039	7.69947E-001	1.34155E-005	0.00000E+000	7.70000E-001	8.15923E-005	8	..........a	-327.66
	195	0.0392	7.60047E-001	1.20355E-005	0.00000E+000	7.60000E-001	8.15923E-005	8	..........a	-327.66
	196	0.0394	7.49947E-001	1.07654E-005	0.00000E+000	7.50000E-001	8.15923E-005	8	..........a	-327.66
	197	0.0396	7.40247E-001	9.62536E-006	0.00000E+000	7.40000E-001	8.15923E-005	8	..........a	-327.66
	198	0.0398	7.29847E-001	8.54532E-006	0.00000E+000	7.30000E-001	8.15923E-005	8	..........a	-327.66
	199	0.04	7.19797E-001	7.53528E-006	0.00000E+000	7.20000E-001	-2.18408E-004	8	..........a	-327.66
	200	0.0402	7.10047E-001	6.62525E-006	0.00000E+000	7.10000E-001	8.15923E-005	8	..........a	-327.66
	201	0.0404	7.00047E-001	5.77521E-006	0.00000E+000	7.00000E-001	8.15923E-005	8	..........a	-327.66
	202	0.0406	6.89947E-001	4.96518E-006	0.00000E+000	6.90000E-001	8.15923E-005	8	..........a	-327.66
	203	0.0408	6.80147E-001	4.19515E-006	0.00000E+000	6.80000E-001	8.15923E-005	8	..........a	-327.66
	204	0.041	6.69947E-001	3.47512E-006	0.00000E+000	6.70000E-001	8.15923E-005	8	..........a	-327.66
	205	0.0412	6.59847E-001	2.84510E-006	0.00000E+000	6.60000E-001	8.15923E-005	8	..........a	-327.66
	206	0.0414	6.49947E-001	2.18508E-006	0.00000E+000	6.50000E-001	8.15923E-005	8	..........a	-327.66
	207	0.0416	6.40047E-001	1.60505E-006	0.00000E+000	6.40000E-001	-3.18408E-004	8	..........a	-327.66
	208	0.0418	6.29947E-001	1.07503E-006	0.00000E+000	6.30000E-001	8.15923E-005	8	..........a	-327.66
	209	0.042	6.20047E-001	5.45013E-007	0.00000E+000	6.20000E-001	-2.18408E-004	8	..........a	-327.66
	210	0.0422	6.10047E-001	-5.50101E-008	0.00000E+000	6.10000E-001	8.15923E-005	8	..........a	-327.66
	211	0.0424	6.00047E-001	-4.55025E-007	0.00000E+000	6.00000E-001	8.15923E-005	8	..........a	-327.66
	212	0.0426	5.89947E-001	-9.25043E-007	0.00000E+000	5.90000E-001	8.15923E-005	8	..........a	-327.66
	213	0.0428	5.80147E-001	-1.35506E-006	0.00000E+000	5.80000E-001	8.15923E-005	8	..........a	-327.66
	214	0.043	5.69947E-001	-1.74507E-006	0.00000E+000	5.70000E-001	8.15923E-005	8	..........a	-327.66
	215	0.0432	5.59897E-001	-2.16509E-006	0.00000E+000	5.60000E-001	8.15923E-005	8	..........a	-327.66
	216	0.0434	5.50047E-001	-2.51510E-006	0.00000E+000	5.50000E-001	8.15923E-005	8	..........a	-327.66
	217	0.0436	5.40047E-001	-2.93512E-006	0.00000E+000	5.40000E-001	8.15923E-005	8	..........a	-327.66
	218	0.0438	5.30047E-001	-3.27513E-006	0.00000E+000	5.30000E-001	8.15923E-005	8	..........a	-327.66
	219	0.044	5.19947E-001	-3.53514E-006	0.00000E+000	5.20000E-001	-3.18408E-004	8	..........a	-327.66
	220	0.0442	5.10047E-001	-3.95516E-006	0.00000E+000	5.10000E-001	8.15923E-005	8	..........a	-327.66
	221	0.0444	5.00147E-001	-4.22517E-006	0.00000E+000	5.00000E-001	8.15923E-005	8	..........a	-327.66
	222	0.0446	4.90047E-001	-4.53518E-006	0.00000E+000	4.90000E-001	-1.18408E-004	8	..........a	-327.66
	223	0.0448	4.80047E-001	-4.86519E-006	0.00000E+000	4.80000E-001	8.15923E-005	8	..........a	-327.66
	224	0.045	4.70047E-001	-5.11520E-006	0.00000E+000	4.70000E-001	8.15923E-005	8	..........a	-327.66
	225	0.0452	4.60247E-001	-5.41522E-006	0.00000E+000	4.60000E-001	8.15923E-005	8	..........a	-327.66
	226	0.0454	4.50047E-001	-5.73523E-006	0.00000E+000	4.50000E-001	8.15923E-005	8	..........a	-327.66
	227	0.0456	4.39847E-001	-5.99524E-006	0.00000E+000	4.40000E-001	8.15923E-005	8	..........a	-327.66
	228	0.0458	4.30047E-001	-6.28525E-006	0.00000E+000	4.30000E-001	8.15923E-005	8	..........a	-327.66
	229	0.046	4.20047E-001	-6.57526E-006	0.00000E+000	4.20000E-001	8.15923E-005	8	..........a	-327.66
	230	0.0462	4.10047E-001	-6.80527E-006	0.00000E+000	4.10000E-001	8.15923E-005	8	..........a	-327.66
	231	0.0464	4.00047E-001	-7.12528E-006	0.00000E+000	4.00000E-001	8.15923E-005	8	..........a	-327.66
	232	0.0466	3.89947E-001	-7.38529E-006	0.00000E+000	3.90000E-001	8.15923E-005	8	..........a	-327.66
	233	0.0468	3.80247E-001	-7.65530E-006	0.00000E+000	3.80000E-001	-4.18408E-004	8	..........a	-327.66
	234	0.047	3.69947E-001	-7.92531E-006	0.00000E+000	3.70000E-001	-2.18408E-004	8	..........a	-327.66
	235	0.0472	3.60047E-001	-8.19532E-006	0.00000E+000	3.60000E-001	-2.18408E-004	8	..........a	-327.66
	236	0.0474	3.50147E-001	-8.44533E-006	0.00000E+000	3.50000E-001	8.15923E-005	8	..........a	-327.66
	237	0.0476	3.39947E-001	-8.68534E-006	0.00000E+000	3.40000E-001	8.15923E-005	8	..........a	-327.66
	238	0.0478	3.30047E-001	-8.98535E-006	0.00000E+000	3.30000E-001	8.15923E-005	8	..........a	-327.66
	239	0.048	3.19997E-001	-9.20536E-006	0.00000E+000	3.20000E-001	8.15923E-005	8	..........a	-327.66
	240	0.0482	3.09947E-001	-9.51537E-006	0.00000E+000	3.10000E-001	8.15923E-005	8	..........a	-327.66
	241	0.0484	2.99947E-001	-9.75538E-006	0.00000E+000	3.00000E-001	8.15923E-005	8	..........a	-327.66
	242	0.0486	2.90047E-001	-1.00054E-005	0.00000E+000	2.90000E-001	8.15923E-005	8	..........a	-327.66
	243	0.0488	2.80047E-001	-1.02954E-005	0.00000E+000	2.80000E-001	8.15923E-005	8	..........a	-327.66
	244	0.049	2.69947E-001	-1.05754E-005	0.00000E+000	2.70000E-001	-1.18408E-004	8	..........a	-327.66
	245	0.0492	2.60147E-001	-1.07954E-005	0.00000E+000	2.60000E-001	8.15923E-005	8	..........a	-327.66
	246	0.0494	2.49947E-001	-1.10654E-005	0.00000E+000	2.50000E-001	8.15923E-005	8	..........a	-327.66
	247	0.0496	2.40047E-001	-1.12554E-005	0.00000E+000	2.40000E-001	8.15923E-005	8	..........a	-327.66
	248	0.0498	2.30047E-001	-1.15054E-005	0.00000E+000	2.30000E-001	8.15923E-005	8	..........a	-327.66
	249	0.05	2.19847E-001	-1.16855E-005	0.00000E+000	2.20000E-001	-3.18408E-004	8	..........a	-327.66
	250	0.0502	2.09847E-001	-1.19155E-005	0.00000E+000	2.10000E-001	8.15923E-005	8	..........a	-327.66
	251	0.0504	1.99847E-001	-1.21355E-005	0.00000E+000	2.00000E-001	8.15923E-005	8	..........a	-327.66
	252	0.0506	1.90147E-001	-1.23155E-005	0.00000E+000	1.90000E-001	8.15923E-005	8	..........a	-327.66
	253	0.0508	1.80097E-001	-1.25555E-005	0.00000E+000	1.80000E-001	8.15923E-005	8	..........a	-327.66
	254	0.051	1.70047E-001	-1.27455E-005	0.00000E+000	1.70000E-001	-4.18408E-004	8	..........a	-327.66
	255	0.0512	1.59947E-001	-1.29055E-005	0.00000E+000	1.60000E-001	8.15923E-005	8	..........a	-327.66
	256	0.0514	1.50047E-001	-1.31055E-005	0.00000E+000	1.50000E-001	8.15923E-005	8	..........a	-327.66
	257	0.0516	1.40147E-001	-1.32955E-005	0.00000E+000	1.40000E-001	8.15923E-005	8	..........a	-327.66
	258	0.0518	1.30047E-001	-1.34355E-005	0.00000E+000	1.30000E-001	8.15923E-005	8	..........a	-327.66
	259	0.052	1.20047E-001	-1.35555E-005	0.00000E+000	1.20000E-001	8.15923E-005	8	..........a	-327.66
	260	0.0522	1.10047E-001	-1.37155E-005	0.00000E+000	1.10000E-001	8.15923E-005	8	..........a	-327.66
	261	0.0524	1.00247E-001	-1.37455E-005	0.00000E+000	1.00000E-001	8.15923E-005	8	..........a	-327.66
	262	0.0526	9.00471E-002	-1.38855E-005	0.00000E+000	9.00000E-002	8.15923E-005	8	..........a	-327.66
	263	0.0528	8.00471E-002	-1.40455E-005	0.00000E+000	8.00000E-002	8.15923E-005	8	..........a	-327.66
	264	0.053	7.00471E-002	-1.41755E-005	0.00000E+000	7.00000E-002	-2.18408E-004	8	..........a	-327.66
	265	0.0532	6.02471E-002	-1.42756E-005	0.00000E+000	6.00000E-002	8.15923E-005	8	..........a	-327.66
	266	0.0534	5.01471E-002	-1.43756E-005	0.00000E+000	5.00000E-002	8.15923E-005	8	..........a	-327.66
	267	0.0536	4.01471E-002	-1.44256E-005	0.00000E+000	4.00000E-002	8.15923E-005	8	..........a	-327.66
	268	0.0538	3.01471E-002	-1.44856E-005	0.00000E+000	3.00000E-002	1.81592E-004	8	..........a	-327.66
	269	0.054	2.01471E-002	-1.45556E-005	0.00000E+000	2.00000E-002	8.15923E-005	8	..........a	-327.66
	270	0.0542	1.00471E-002	-1.46256E-005	0.00000E+000	1.00000E-002	8.15923E-005	8	..........a	-327.66
	271	0.0544	-5.28858E-005	-1.46756E-005	0.00000E+000	7.45058E-009	8.15923E-005	8	..........a	-327.66
	272	0.0546	-9.95289E-003	-1.46856E-005	0.00000E+000	-1.00000E-002	8.15923E-005	8	..........a	-327.66
	273	0.0548	-1.99529E-002	-1.47256E-005	0.00000E+000	-2.00000E-002	8.15923E-005	8	..........a	-327.66
	274	0.055	-2.99529E-002	-1.46956E-005	0.00000E+000	-3.00000E-002	8.15923E-005	8	..........a	-327.66
	275	0.0552	-3.99529E-002	-1.47156E-005	0.00000E+000	-4.00000E-002	8.15923E-005	8	..........a	-327.66
	276	0.0554	-4.98529E-002	-1.46956E-005	0.00000E+000	-5.00000E-002	8.15923E-005	8	..........a	-327.66
	277	0.0556	-6.00529E-002	-1.47556E-005	0.00000E+000	-6.00000E-002	8.15923E-005	8	..........a	-327.66
	278	0.0558	-6.99529E-002	-1.46756E-005	0.00000E+000	-7.00000E-002	8.15923E-005	8	..........a	-327.66
	279	0.056	-8.00529E-002	-1.46756E-005	0.00000E+000	-8.00000E-002	8.15923E-005	8	..........a	-327.66
	280	0.0562	-8.99529E-002	-1.45856E-005	0.00000E+000	-9.00000E-002	8.15923E-005	8	..........a	-327.66
	281	0.0564	-9.99529E-002	-1.45956E-005	0.00000E+000	-1.00000E-001	8.15923E-005	8	..........a	-327.66
	282	0.0566	-1.09953E-001	-1.44656E-005	0.00000E+000	-1.10000E-001	8.15923E-005	8	..........a	-327.66
	283	0.0568	-1.19953E-001	-1.44056E-005	0.00000E+000	-1.20000E-001	8.15923E-005	8	..........a	-327.66
	284	0.057	-1.29953E-001	-1.43656E-005	0.00000E+000	-1.30000E-001	8.15923E-005	8	..........a	-327.66
	285	0.0572	-1.39953E-001	-1.42156E-005	0.00000E+000	-1.40000E-001	8.15923E-005	8	..........a	-327.66
	286	0.0574	-1.49953E-001	-1.41555E-005	0.00000E+000	-1.50000E-001	8.15923E-005	8	..........a	-327.66
	287	0.0576	-1.59953E-001	-1.40455E-005	0.00000E+000	-1.60000E-001	8.15923E-005	8	..........a	-327.66
	288	0.0578	-1.69953E-001	-1.38755E-005	0.00000E+000	-1.70000E-001	8.15923E-005	8	..........a	-327.66
	289	0.058	-1.79853E-001	-1.37655E-005	0.00000E+000	-1.80000E-001	8.15923E-005	8	..........a	-327.66
	290	0.0582	-1.89953E-001	-1.37155E-005	0.00000E+000	-1.90000E-001	8.15923E-005	8	..........a	-327.66
	291	0.0584	-1.99953E-001	-1.35655E-005	0.00000E+000	-2.00000E-001	8.15923E-005	8	..........a	-327.66
	292	0.0586	-2.09853E-001	-1.34455E-005	0.00000E+000	-2.10000E-001	8.15923E-005	8	..........a	-327.66
	293	0.0588	-2.19853E-001	-1.33255E-005	0.00000E+000	-2.20000E-001	8.15923E-005	8	..........a	-327.66
	294	0.059	-2.29953E-001	-1.32055E-005	0.00000E+000	-2.30000E-001	8.15923E-005	8	..........a	-327.66
	295	0.0592	-2.39853E-001	-1.30955E-005	0.00000E+000	-2.40000E-001	8.15923E-005	8	..........a	-327.66
	296	0.0594	-2.49953E-001	-1.29455E-005	0.00000E+000	-2.50000E-001	8.15923E-005	8	..........a	-327.66
	297	0.0596	-2.59853E-001	-1.28355E-005	0.00000E+000	-2.60000E-001	8.15923E-005	8	..........a	-327.66
	298	0.0598	-2.69953E-001	-1.27255E-005	0.00000E+000	-2.70000E-001	8.15923E-005	8	..........a	-327.66
	299	0.06	-2.80053E-001	-1.25955E-005	0.00000E+000	-2.80000E-001	8.15923E-005	8	..........a	-327.66
	300	0.0602	-2.90153E-001	-1.24855E-005	0.00000E+000	-2.90000E-001	8.15923E-005	8	..........a	-327.66
	301	0.0604	-2.99853E-001	-1.23755E-005	0.00000E+000	-3.00000E-001	8.15923E-005	8	..........a	-327.66
	302	0.0606	-3.09853E-001	-1.22955E-005	0.00000E+000	-3.10000E-001	-3.18408E-004	8	..........a	-327.66
	303	0.0608	-3.19853E-001	-1.21755E-005	0.00000E+000	-3.20000E-001	8.15923E-005	8	..........a	-327.66
	304	0.061	-3.30003E-001	-1.20955E-005	0.00000E+000	-3.30000E-001	8.15923E-005	8	..........a	-327.66
	305	0.0612	-3.39753E-001	-1.19855E-005	0.00000E+000	-3.40000E-001	8.15923E-005	8	..........a	-327.66
	306	0.0614	-3.49853E-001	-1.19255E-005	0.00000E+000	-3.50000E-001	8.15923E-005	8	..........a	-327.66
	307	0.0616	-3.59753E-001	-1.18455E-005	0.00000E+000	-3.60000E-001	8.15923E-005	8	..........a	-327.66
	308	0.0618	-3.69953E-001	-1.17755E-005	0.00000E+000	-3.70000E-001	8.15923E-005	8	..........a	-327.66
	309	0.062	-3.79953E-001	-1.16855E-005	0.00000E+000	-3.80000E-001	8.15923E-005	8	..........a	-327.66
	310	0.0622	-3.90053E-001	-1.16355E-005	0.00000E+000	-3.90000E-001	8.15923E-005	8	..........a	-327.66
	311	0.0624	-3.99953E-001	-1.15855E-005	0.00000E+000	-4.00000E-001	-2.18408E-004	8	..........a	-327.66
	312	0.0626	-4.09953E-001	-1.15254E-005	0.00000E+000	-4.10000E-001	8.15923E-005	8	..........a	-327.66
	313	0.0628	-4.19953E-001	-1.14954E-005	0.00000E+000	-4.20000E-001	8.15923E-005	8	..........a	-327.66
	314	0.063	-4.29953E-001	-1.14454E-005	0.00000E+000	-4.30000E-001	8.15923E-005	8	..........a	-327.66
	315	0.0632	-4.39753E-001	-1.14454E-005	0.00000E+000	-4.40000E-001	8.15923E-005	8	..........a	-327.66
	316	0.0634	-4.49953E-001	-1.13954E-005	0.00000E+000	-4.50000E-001	8.15923E-005	8	..........a	-327.66
	317	0.0636	-4.59853E-001	-1.13754E-005	0.00000E+000	-4.60000E-001	-3.18408E-004	8	..........a	-327.66
	318	0.0638	-4.69753E-001	-1.13154E-005	0.00000E+000	-4.70000E-001	-1.18408E-004	8	..........a	-327.66
	319	0.064	-4.79753E-001	-1.12954E-005	0.00000E+000	-4.80000E-001	8.15923E-005	8	..........a	-327.66
	320	0.0642	-4.89953E-001	-1.12854E-005	0.00000E+000	-4.90000E-001	8.15923E-005	8	..........a	-327.66
	321	0.0644	-4.99953E-001	-1.12854E-005	0.00000E+000	-5.00000E-001	8.15923E-005	8	..........a	-327.66
	322	0.0646	-5.09953E-001	-1.12454E-005	0.00000E+000	-5.10000E-001	8.15923E-005	8	..........a	-327.66
	323	0.0648	-5.19753E-001	-1.12354E-005	0.00000E+000	-5.20000E-001	8.15923E-005	8	..........a	-327.66
	324	0.065	-5.29853E-001	-1.12454E-005	0.00000E+000	-5.30000E-001	8.15923E-005	8	..........a	-327.66
	325	0.0652	-5.39853E-001	-1.12454E-005	0.00000E+000	-5.40000E-001	8.15923E-005	8	..........a	-327.66
	326	0.0654	-5.50003E-001	-1.12854E-005	0.00000E+000	-5.50000E-001	8.15923E-005	8	..........a	-327.66
	327	0.0656	-5.59853E-001	-1.12854E-005	0.00000E+000	-5.60000E-001	8.15923E-005	8	..........a	-327.66
	328	0.0658	-5.69753E-001	-1.12654E-005	0.00000E+000	-5.70000E-001	-3.18408E-004	8	..........a	-327.66
	329	0.066	-5.79753E-001	-1.13154E-005	0.00000E+000	-5.80000E-001	8.15923E-005	8	..........a	-327.66
	330	0.0662	-5.89953E-001	-1.13254E-005	0.00000E+000	-5.90000E-001	8.15923E-005	8	..........a	-327.66
	331	0.0664	-5.99853E-001	-1.13654E-005	0.00000E+000	-6.00000E-001	8.15923E-005	8	..........a	-327.66
	332	0.0666	-5.89853E-001	-9.52537E-006	0.00000E+000	-5.90000E-001	-3.18408E-004	8	..........a	-327.66
	333	0.0668	-5.79853E-001	-8.13532E-006	0.00000E+000	-5.80000E-001	8.15923E-005	8	..........a	-327.66
	334	0.067	-5.69953E-001	-6.89527E-006	0.00000E+000	-5.70000E-001	8.15923E-005	8	..........a	-327.66
	335	0.0672	-5.59953E-001	-5.83523E-006	0.00000E+000	-5.60000E-001	-3.18408E-004	8	..........a	-327.66
	336	0.0674	-5.49953E-001	-4.81519E-006	0.00000E+000	-5.50000E-001	8.15923E-005	8	..........a	-327.66
	337	0.0676	-5.39953E-001	-4.01516E-006	0.00000E+000	-5.40000E-001	8.15923E-005	8	..........a	-327.66
	338	0.0678	-5.29953E-001	-3.18513E-006	0.00000E+000	-5.30000E-001	8.15923E-005	8	..........a	-327.66
	339	0.068	-5.19853E-001	-2.45510E-006	0.00000E+000	-5.20000E-001	8.15923E-005	8	..........a	-327.66
	340	0.0682	-5.09953E-001	-1.81508E-006	0.00000E+000	-5.10000E-001	8.15923E-005	8	..........a	-327.66
	341	0.0684	-4.99853E-001	-1.19505E-006	0.00000E+000	-5.00000E-001	8.15923E-005	8	..........a	-327.66
	342	0.0686	-4.90053E-001	-6.25032E-007	0.00000E+000	-4.90000E-001	-2.18408E-004	8	..........a	-327.66
	343	0.0688	-4.79953E-001	-1.35013E-007	0.00000E+000	-4.80000E-001	8.15923E-005	8	..........a	-327.66
	344	0.069	-4.69953E-001	3.25004E-007	0.00000E+000	-4.70000E-001	8.15923E-005	8	..........a	-327.66
[...]
	2604	0.521	-2.69953E-001	5.42520E-006	0.00000E+000	-2.70000E-001	8.15923E-005	8	..........a	-327.66
	2605	0.5212	-2.59853E-001	5.51520E-006	0.00000E+000	-2.60000E-001	8.15923E-005	8	..........a	-327.66
	2606	0.5214	-2.49953E-001	5.64521E-006	0.00000E+000	-2.50000E-001	8.15923E-005	8	..........a	-327.66
	2607	0.5216	-2.39953E-001	5.78521E-006	0.00000E+000	-2.40000E-001	8.15923E-005	8	..........a	-327.66
	2608	0.5218	-2.29853E-001	5.86522E-006	0.00000E+000	-2.30000E-001	8.15923E-005	8	..........a	-327.66
	2609	0.522	-2.19853E-001	5.96522E-006	0.00000E+000	-2.20000E-001	8.15923E-005	8	..........a	-327.66
	2610	0.5222	-2.09953E-001	6.12523E-006	0.00000E+000	-2.10000E-001	8.15923E-005	8	..........a	-327.66
	2611	0.5224	-2.00053E-001	6.21523E-006	0.00000E+000	-2.00000E-001	8.15923E-005	8	..........a	-327.66
	2612	0.5226	-1.90353E-001	6.34523E-006	0.00000E+000	-1.90000E-001	8.15923E-005	8	..........a	-327.66
	2613	0.5228	-1.79853E-001	6.44524E-006	0.00000E+000	-1.80000E-001	8.15923E-005	8	..........a	-327.66
	2614	0.523	-1.70003E-001	6.53524E-006	0.00000E+000	-1.70000E-001	8.15923E-005	8	..........a	-327.66
	2615	0.5232	-1.59853E-001	6.66525E-006	0.00000E+000	-1.60000E-001	8.15923E-005	8	..........a	-327.66
	2616	0.5234	-1.49853E-001	6.73525E-006	0.00000E+000	-1.50000E-001	8.15923E-005	8	..........a	-327.66
	2617	0.5236	-1.39653E-001	6.89526E-006	0.00000E+000	-1.40000E-001	8.15923E-005	8	..........a	-327.66
	2618	0.5238	-1.29953E-001	6.92526E-006	0.00000E+000	-1.30000E-001	8.15923E-005	8	..........a	-327.66
	2619	0.524	-1.19953E-001	7.08526E-006	0.00000E+000	-1.20000E-001	8.15923E-005	8	..........a	-327.66
	2620	0.5242	-1.09953E-001	7.14527E-006	0.00000E+000	-1.10000E-001	8.15923E-005	8	..........a	-327.66
	2621	0.5244	-9.98529E-002	7.25527E-006	0.00000E+000	-1.00000E-001	8.15923E-005	8	..........a	-327.66
	2622	0.5246	-8.98529E-002	7.34527E-006	0.00000E+000	-9.00000E-002	8.15923E-005	8	..........a	-327.66
	2623	0.5248	-8.00029E-002	7.41528E-006	0.00000E+000	-8.00000E-002	8.15923E-005	8	..........a	-327.66
	2624	0.525	-7.00529E-002	7.54528E-006	0.00000E+000	-7.00000E-002	8.15923E-005	8	..........a	-327.66
	2625	0.5252	-5.98029E-002	7.58528E-006	0.00000E+000	-6.00000E-002	8.15923E-005	8	..........a	-327.66
	2626	0.5254	-5.00529E-002	7.68529E-006	0.00000E+000	-5.00000E-002	8.15923E-005	8	..........a	-327.66
	2627	0.5256	-3.99529E-002	7.78529E-006	0.00000E+000	-4.00000E-002	8.15923E-005	8	..........a	-327.66
	2628	0.5258	-2.99529E-002	7.87529E-006	0.00000E+000	-3.00000E-002	8.15923E-005	8	..........a	-327.66
	2629	0.526	-1.97529E-002	8.00530E-006	0.00000E+000	-2.00000E-002	8.15923E-005	8	..........a	-327.66
	2630	0.5262	-9.95289E-003	8.05530E-006	0.00000E+000	-1.00000E-002	8.15923E-005	8	..........a	-327.66
	2631	0.5264	-5.28858E-005	8.16530E-006	0.00000E+000	7.45058E-009	8.15923E-005	8	..........a	-327.66
	2632	0.5266	1.00471E-002	8.27531E-006	0.00000E+000	1.00000E-002	8.15923E-005	8	..........a	-327.66
	2633	0.5268	2.01971E-002	8.36531E-006	0.00000E+000	2.00000E-002	8.15923E-005	8	..........a	-327.66
	2634	0.527	3.00471E-002	8.44531E-006	0.00000E+000	3.00000E-002	8.15923E-005	8	..........a	-327.66
	2635	0.5272	4.02471E-002	8.54532E-006	0.00000E+000	4.00000E-002	8.15923E-005	8	..........a	-327.66
	2636	0.5274	4.99471E-002	8.68532E-006	0.00000E+000	5.00000E-002	8.15923E-005	8	..........a	-327.66
	2637	0.5276	5.99471E-002	8.76533E-006	0.00000E+000	6.00000E-002	8.15923E-005	8	..........a	-327.66
	2638	0.5278	6.99971E-002	8.91533E-006	0.00000E+000	7.00000E-002	8.15923E-005	8	..........a	-327.66
	2639	0.528	7.99471E-002	9.03534E-006	0.00000E+000	8.00000E-002	8.15923E-005	8	..........a	-327.66
	2640	0.5282	9.00471E-002	9.15534E-006	0.00000E+000	9.00000E-002	8.15923E-005	8	..........a	-327.66
	2641	0.5284	1.00247E-001	9.24535E-006	0.00000E+000	1.00000E-001	8.15923E-005	8	..........a	-327.66
	2642	0.5286	1.10047E-001	9.40535E-006	0.00000E+000	1.10000E-001	8.15923E-005	8	..........a	-327.66
	2643	0.5288	1.20097E-001	9.59536E-006	0.00000E+000	1.20000E-001	8.15923E-005	8	..........a	-327.66
	2644	0.529	1.29947E-001	9.79537E-006	0.00000E+000	1.30000E-001	8.15923E-005	8	..........a	-327.66
	2645	0.5292	1.40047E-001	9.94537E-006	0.00000E+000	1.40000E-001	8.15923E-005	8	..........a	-327.66
	2646	0.5294	1.50047E-001	9.99537E-006	0.00000E+000	1.50000E-001	8.15923E-005	8	..........a	-327.66
	2647	0.5296	1.60047E-001	1.01254E-005	0.00000E+000	1.60000E-001	8.15923E-005	8	..........a	-327.66
	2648	0.5298	1.70047E-001	1.02854E-005	0.00000E+000	1.70000E-001	8.15923E-005	8	..........a	-327.66
	2649	0.53	1.80197E-001	1.04554E-005	0.00000E+000	1.80000E-001	8.15923E-005	8	..........a	-327.66
	2650	0.5302	1.90047E-001	1.05954E-005	0.00000E+000	1.90000E-001	8.15923E-005	8	..........a	-327.66
	2651	0.5304	2.00247E-001	1.07654E-005	0.00000E+000	2.00000E-001	8.15923E-005	8	..........a	-327.66
	2652	0.5306	2.10047E-001	1.08754E-005	0.00000E+000	2.10000E-001	8.15923E-005	8	..........a	-327.66
	2653	0.5308	2.19847E-001	1.10854E-005	0.00000E+000	2.20000E-001	8.15923E-005	8	..........a	-327.66
	2654	0.531	2.29847E-001	1.12654E-005	0.00000E+000	2.30000E-001	8.15923E-005	8	..........a	-327.66
	2655	0.5312	2.40047E-001	1.14254E-005	0.00000E+000	2.40000E-001	8.15923E-005	8	..........a	-327.66
	2656	0.5314	2.49947E-001	1.16154E-005	0.00000E+000	2.50000E-001	8.15923E-005	8	..........a	-327.66
	2657	0.5316	2.59947E-001	1.17854E-005	0.00000E+000	2.60000E-001	8.15923E-005	8	..........a	-327.66
	2658	0.5318	2.70247E-001	1.19955E-005	0.00000E+000	2.70000E-001	8.15923E-005	8	..........a	-327.66
	2659	0.532	2.79947E-001	1.22055E-005	0.00000E+000	2.80000E-001	8.15923E-005	8	..........a	-327.66
	2660	0.5322	2.90147E-001	1.24055E-005	0.00000E+000	2.90000E-001	8.15923E-005	8	..........a	-327.66
	2661	0.5324	3.00197E-001	1.25455E-005	0.00000E+000	3.00000E-001	8.15923E-005	8	..........a	-327.66
	2662	0.5326	3.10047E-001	1.27555E-005	0.00000E+000	3.10000E-001	8.15923E-005	8	..........a	-327.66
	2663	0.5328	3.19947E-001	1.29155E-005	0.00000E+000	3.20000E-001	8.15923E-005	8	..........a	-327.66
	2664	0.533	3.30047E-001	1.31555E-005	0.00000E+000	3.30000E-001	8.15923E-005	8	..........a	-327.66
	2665	0.5332	3.40047E-001	1.33155E-005	0.00000E+000	3.40000E-001	8.15923E-005	8	..........a	-327.66
	2666	0.5334	3.50047E-001	1.34955E-005	0.00000E+000	3.50000E-001	8.15923E-005	8	..........a	-327.66
	2667	0.5336	3.60147E-001	1.36955E-005	0.00000E+000	3.60000E-001	8.15923E-005	8	..........a	-327.66
	2668	0.5338	3.70047E-001	1.38555E-005	0.00000E+000	3.70000E-001	8.15923E-005	8	..........a	-327.66
	2669	0.534	3.80247E-001	1.40955E-005	0.00000E+000	3.80000E-001	8.15923E-005	8	..........a	-327.66
	2670	0.5342	3.90047E-001	1.42655E-005	0.00000E+000	3.90000E-001	8.15923E-005	8	..........a	-327.66
	2671	0.5344	4.00247E-001	1.44355E-005	0.00000E+000	4.00000E-001	8.15923E-005	8	..........a	-327.66
	2672	0.5346	4.10047E-001	1.46356E-005	0.00000E+000	4.10000E-001	8.15923E-005	8	..........a	-327.66
	2673	0.5348	4.19947E-001	1.47856E-005	0.00000E+000	4.20000E-001	8.15923E-005	8	..........a	-327.66
	2674	0.535	4.29947E-001	1.49656E-005	0.00000E+000	4.30000E-001	8.15923E-005	8	..........a	-327.66
	2675	0.5352	4.40047E-001	1.51056E-005	0.00000E+000	4.40000E-001	8.15923E-005	8	..........a	-327.66
	2676	0.5354	4.49647E-001	1.53156E-005	0.00000E+000	4.50000E-001	8.15923E-005	8	..........a	-327.66
	2677	0.5356	4.60147E-001	1.54856E-005	0.00000E+000	4.60000E-001	8.15923E-005	8	..........a	-327.66
	2678	0.5358	4.69947E-001	1.56756E-005	0.00000E+000	4.70000E-001	8.15923E-005	8	..........a	-327.66
	2679	0.536	4.79947E-001	1.58056E-005	0.00000E+000	4.80000E-001	8.15923E-005	8	..........a	-327.66
	2680	0.5362	4.90047E-001	1.60156E-005	0.00000E+000	4.90000E-001	8.15923E-005	8	..........a	-327.66
	2681	0.5364	5.00247E-001	1.61556E-005	0.00000E+000	5.00000E-001	8.15923E-005	8	..........a	-327.66
	2682	0.5366	5.09947E-001	1.63056E-005	0.00000E+000	5.10000E-001	8.15923E-005	8	..........a	-327.66
	2683	0.5368	5.19947E-001	1.64656E-005	0.00000E+000	5.20000E-001	8.15923E-005	8	..........a	-327.66
	2684	0.537	5.29847E-001	1.65856E-005	0.00000E+000	5.30000E-001	8.15923E-005	8	..........a	-327.66
	2685	0.5372	5.40047E-001	1.67456E-005	0.00000E+000	5.40000E-001	8.15923E-005	8	..........a	-327.66
	2686	0.5374	5.49897E-001	1.69556E-005	0.00000E+000	5.50000E-001	8.15923E-005	8	..........a	-327.66
	2687	0.5376	5.60047E-001	1.69956E-005	0.00000E+000	5.60000E-001	8.15923E-005	8	..........a	-327.66
	2688	0.5378	5.70047E-001	1.71156E-005	0.00000E+000	5.70000E-001	8.15923E-005	8	..........a	-327.66
	2689	0.538	5.80097E-001	1.72757E-005	0.00000E+000	5.80000E-001	8.15923E-005	8	..........a	-327.66
	2690	0.5382	5.89947E-001	1.73857E-005	0.00000E+000	5.90000E-001	8.15923E-005	8	..........a	-327.66
	2691	0.5384	6.00047E-001	1.74657E-005	0.00000E+000	6.00000E-001	8.15923E-005	8	..........a	-327.66
	2692	0.5386	6.10047E-001	1.75457E-005	0.00000E+000	6.10000E-001	8.15923E-005	8	..........a	-327.66
	2693	0.5388	6.19947E-001	1.77057E-005	0.00000E+000	6.20000E-001	8.15923E-005	8	..........a	-327.66
	2694	0.539	6.29947E-001	1.77657E-005	0.00000E+000	6.30000E-001	8.15923E-005	8	..........a	-327.66
	2695	0.5392	6.39797E-001	1.78057E-005	0.00000E+000	6.40000E-001	8.15923E-005	8	..........a	-327.66
	2696	0.5394	6.49947E-001	1.79057E-005	0.00000E+000	6.50000E-001	8.15923E-005	8	..........a	-327.66
	2697	0.5396	6.60047E-001	1.79657E-005	0.00000E+000	6.60000E-001	-2.18408E-004	8	..........a	-327.66
	2698	0.5398	6.69947E-001	1.80157E-005	0.00000E+000	6.70000E-001	8.15923E-005	8	..........a	-327.66
	2699	0.54	6.80047E-001	1.80557E-005	0.00000E+000	6.80000E-001	8.15923E-005	8	..........a	-327.66
	2700	0.5402	6.89797E-001	1.81257E-005	0.00000E+000	6.90000E-001	8.15923E-005	8	..........a	-327.66
	2701	0.5404	6.99947E-001	1.81157E-005	0.00000E+000	7.00000E-001	8.15923E-005	8	..........a	-327.66
	2702	0.5406	7.09947E-001	1.81157E-005	0.00000E+000	7.10000E-001	8.15923E-005	8	..........a	-327.66
	2703	0.5408	7.19747E-001	1.81357E-005	0.00000E+000	7.20000E-001	8.15923E-005	8	..........a	-327.66
	2704	0.541	7.29847E-001	1.81157E-005	0.00000E+000	7.30000E-001	8.15923E-005	8	..........a	-327.66
	2705	0.5412	7.40047E-001	1.81057E-005	0.00000E+000	7.40000E-001	8.15923E-005	8	..........a	-327.66
	2706	0.5414	7.49947E-001	1.81057E-005	0.00000E+000	7.50000E-001	8.15923E-005	8	..........a	-327.66
	2707	0.5416	7.59947E-001	1.80957E-005	0.00000E+000	7.60000E-001	8.15923E-005	8	..........a	-327.66
	2708	0.5418	7.70047E-001	1.80357E-005	0.00000E+000	7.70000E-001	8.15923E-005	8	..........a	-327.66
	2709	0.542	7.79947E-001	1.80257E-005	0.00000E+000	7.80000E-001	8.15923E-005	8	..........a	-327.66
	2710	0.5422	7.89797E-001	1.79757E-005	0.00000E+000	7.90000E-001	8.15923E-005	8	..........a	-327.66
	2711	0.5424	7.99947E-001	1.79357E-005	0.00000E+000	8.00000E-001	8.15923E-005	8	..........a	-327.66
CURVE11	TABLE
	Pt	T	Vf	Im	Vu	Sig	Ach	IERange	Over	Temp
	#	s	V vs. Ref.	A	V	V	V	#	bits	deg C
	2712	0.5426	7.90047E-001	1.57556E-005	0.00000E+000	7.90000E-001	-2.18408E-004	8	..........a	-327.66
	2713	0.5428	7.80047E-001	1.40055E-005	0.00000E+000	7.80000E-001	8.15923E-005	8	..........a	-327.66
	2714	0.543	7.70047E-001	1.24055E-005	0.00000E+000	7.70000E-001	8.15923E-005	8	..........a	-327.66
	2715	0.5432	7.60047E-001	1.10054E-005	0.00000E+000	7.60000E-001	8.15923E-005	8	..........a	-327.66
	2716	0.5434	7.50047E-001	9.75537E-006	0.00000E+000	7.50000E-001	8.15923E-005	8	..........a	-327.66
	2717	0.5436	7.39947E-001	8.58532E-006	0.00000E+000	7.40000E-001	8.15923E-005	8	..........a	-327.66
	2718	0.5438	7.29697E-001	7.49528E-006	0.00000E+000	7.30000E-001	8.15923E-005	8	..........a	-327.66
	2719	0.544	7.19947E-001	6.56524E-006	0.00000E+000	7.20000E-001	8.15923E-005	8	..........a	-327.66
	2720	0.5442	7.09847E-001	5.64521E-006	0.00000E+000	7.10000E-001	8.15923E-005	8	..........a	-327.66
	2721	0.5444	6.99947E-001	4.76517E-006	0.00000E+000	7.00000E-001	8.15923E-005	8	..........a	-327.66
	2722	0.5446	6.89847E-001	4.04515E-006	0.00000E+000	6.90000E-001	8.15923E-005	8	..........a	-327.66
	2723	0.5448	6.80047E-001	3.28512E-006	0.00000E+000	6.80000E-001	8.15923E-005	8	..........a	-327.66
	2724	0.545	6.69747E-001	2.56509E-006	0.00000E+000	6.70000E-001	8.15923E-005	8	..........a	-327.66
	2725	0.5452	6.60247E-001	1.95507E-006	0.00000E+000	6.60000E-001	8.15923E-005	8	..........a	-327.66
	2726	0.5454	6.49947E-001	1.33504E-006	0.00000E+000	6.50000E-001	8.15923E-005	8	..........a	-327.66
	2727	0.5456	6.40047E-001	7.45021E-007	0.00000E+000	6.40000E-001	8.15923E-005	8	..........a	-327.66
	2728	0.5458	6.29947E-001	2.65002E-007	0.00000E+000	6.30000E-001	8.15923E-005	8	..........a	-327.66
	2729	0.546	6.19947E-001	-3.35021E-007	0.00000E+000	6.20000E-001	8.15923E-005	8	..........a	-327.66
	2730	0.5462	6.10047E-001	-7.25036E-007	0.00000E+000	6.10000E-001	8.15923E-005	8	..........a	-327.66
	2731	0.5464	5.99947E-001	-1.20505E-006	0.00000E+000	6.00000E-001	8.15923E-005	8	..........a	-327.66
	2732	0.5466	5.89947E-001	-1.59507E-006	0.00000E+000	5.90000E-001	8.15923E-005	8	..........a	-327.66
	2733	0.5468	5.79847E-001	-2.03509E-006	0.00000E+000	5.80000E-001	8.15923E-005	8	..........a	-327.66
	2734	0.547	5.69947E-001	-2.45510E-006	0.00000E+000	5.70000E-001	8.15923E-005	8	..........a	-327.66
	2735	0.5472	5.60047E-001	-2.85512E-006	0.00000E+000	5.60000E-001	8.15923E-005	8	..........a	-327.66
	2736	0.5474	5.49947E-001	-3.17513E-006	0.00000E+000	5.50000E-001	8.15923E-005	8	..........a	-327.66
	2737	0.5476	5.39947E-001	-3.47514E-006	0.00000E+000	5.40000E-001	8.15923E-005	8	..........a	-327.66
	2738	0.5478	5.29997E-001	-3.79515E-006	0.00000E+000	5.30000E-001	8.15923E-005	8	..........a	-327.66
	2739	0.548	5.20047E-001	-4.14517E-006	0.00000E+000	5.20000E-001	8.15923E-005	8	..........a	-327.66
	2740	0.5482	5.10047E-001	-4.46518E-006	0.00000E+000	5.10000E-001	8.15923E-005	8	..........a	-327.66
	2741	0.5484	4.99847E-001	-4.74519E-006	0.00000E+000	5.00000E-001	-4.18408E-004	8	..........a	-327.66
	2742	0.5486	4.89947E-001	-5.01520E-006	0.00000E+000	4.90000E-001	8.15923E-005	8	..........a	-327.66
	2743	0.5488	4.80047E-001	-5.27521E-006	0.00000E+000	4.80000E-001	8.15923E-005	8	..........a	-327.66
	2744	0.549	4.70047E-001	-5.55522E-006	0.00000E+000	4.70000E-001	8.15923E-005	8	..........a	-327.66
	2745	0.5492	4.60047E-001	-5.87523E-006	0.00000E+000	4.60000E-001	8.15923E-005	8	..........a	-327.66
	2746	0.5494	4.49947E-001	-6.15524E-006	0.00000E+000	4.50000E-001	8.15923E-005	8	..........a	-327.66
	2747	0.5496	4.40047E-001	-6.41525E-006	0.00000E+000	4.40000E-001	8.15923E-005	8	..........a	-327.66
	2748	0.5498	4.30147E-001	-6.68526E-006	0.00000E+000	4.30000E-001	8.15923E-005	8	..........a	-327.66
	2749	0.55	4.19847E-001	-6.92527E-006	0.00000E+000	4.20000E-001	-3.18408E-004	8	..........a	-327.66
	2750	0.5502	4.10047E-001	-7.14528E-006	0.00000E+000	4.10000E-001	8.15923E-005	8	..........a	-327.66
	2751	0.5504	4.00047E-001	-7.40529E-006	0.00000E+000	4.00000E-001	8.15923E-005	8	..........a	-327.66
	2752	0.5506	3.90047E-001	-7.71530E-006	0.00000E+000	3.90000E-001	8.15923E-005	8	..........a	-327.66
	2753	0.5508	3.80147E-001	-7.97531E-006	0.00000E+000	3.80000E-001	8.15923E-005	8	..........a	-327.66
	2754	0.551	3.70047E-001	-8.19532E-006	0.00000E+000	3.70000E-001	8.15923E-005	8	..........a	-327.66
	2755	0.5512	3.59847E-001	-8.44533E-006	0.00000E+000	3.60000E-001	8.15923E-005	8	..........a	-327.66
	2756	0.5514	3.50047E-001	-8.64534E-006	0.00000E+000	3.50000E-001	8.15923E-005	8	..........a	-327.66
	2757	0.5516	3.39947E-001	-8.97535E-006	0.00000E+000	3.40000E-001	8.15923E-005	8	..........a	-327.66
	2758	0.5518	3.30147E-001	-9.19536E-006	0.00000E+000	3.30000E-001	8.15923E-005	8	..........a	-327.66
	2759	0.552	3.20047E-001	-9.47537E-006	0.00000E+000	3.20000E-001	8.15923E-005	8	..........a	-327.66
	2760	0.5522	3.10147E-001	-9.73538E-006	0.00000E+000	3.10000E-001	8.15923E-005	8	..........a	-327.66
	2761	0.5524	3.00047E-001	-9.98539E-006	0.00000E+000	3.00000E-001	8.15923E-005	8	..........a	-327.66
	2762	0.5526	2.90047E-001	-1.02454E-005	0.00000E+000	2.90000E-001	8.15923E-005	8	..........a	-327.66
	2763	0.5528	2.79897E-001	-1.04854E-005	0.00000E+000	2.80000E-001	8.15923E-005	8	..........a	-327.66
	2764	0.553	2.70047E-001	-1.06954E-005	0.00000E+000	2.70000E-001	8.15923E-005	8	..........a	-327.66
	2765	0.5532	2.60147E-001	-1.09954E-005	0.00000E+000	2.60000E-001	8.15923E-005	8	..........a	-327.66
	2766	0.5534	2.49947E-001	-1.12354E-005	0.00000E+000	2.50000E-001	-2.18408E-004	8	..........a	-327.66
	2767	0.5536	2.40047E-001	-1.14654E-005	0.00000E+000	2.40000E-001	8.15923E-005	8	..........a	-327.66
	2768	0.5538	2.30047E-001	-1.17355E-005	0.00000E+000	2.30000E-001	8.15923E-005	8	..........a	-327.66
	2769	0.554	2.20047E-001	-1.19355E-005	0.00000E+000	2.20000E-001	8.15923E-005	8	..........a	-327.66
	2770	0.5542	2.09947E-001	-1.22055E-005	0.00000E+000	2.10000E-001	8.15923E-005	8	..........a	-327.66
	2771	0.5544	2.00047E-001	-1.24055E-005	0.00000E+000	2.00000E-001	8.15923E-005	8	..........a	-327.66
	2772	0.5546	1.89947E-001	-1.26355E-005	0.00000E+000	1.90000E-001	8.15923E-005	8	..........a	-327.66
	2773	0.5548	1.80047E-001	-1.28355E-005	0.00000E+000	1.80000E-001	8.15923E-005	8	..........a	-327.66
	2774	0.555	1.70047E-001	-1.30455E-005	0.00000E+000	1.70000E-001	8.15923E-005	8	..........a	-327.66
	2775	0.5552	1.59947E-001	-1.32055E-005	0.00000E+000	1.60000E-001	8.15923E-005	8	..........a	-327.66
	2776	0.5554	1.50047E-001	-1.33555E-005	0.00000E+000	1.50000E-001	8.15923E-005	8	..........a	-327.66
	2777	0.5556	1.40147E-001	-1.35155E-005	0.00000E+000	1.40000E-001	8.15923E-005	8	..........a	-327.66
	2778	0.5558	1.30047E-001	-1.36755E-005	0.00000E+000	1.30000E-001	8.15923E-005	8	..........a	-327.66
	2779	0.556	1.20197E-001	-1.38355E-005	0.00000E+000	1.20000E-001	8.15923E-005	8	..........a	-327.66
	2780	0.5562	1.10047E-001	-1.38855E-005	0.00000E+000	1.10000E-001	8.15923E-005	8	..........a	-327.66
	2781	0.5564	1.00147E-001	-1.40855E-005	0.00000E+000	1.00000E-001	8.15923E-005	8	..........a	-327.66
	2782	0.5566	9.00471E-002	-1.42356E-005	0.00000E+000	9.00000E-002	8.15923E-005	8	..........a	-327.66
	2783	0.5568	7.99471E-002	-1.43356E-005	0.00000E+000	8.00000E-002	8.15923E-005	8	..........a	-327.66
	2784	0.557	7.00471E-002	-1.44556E-005	0.00000E+000	7.00000E-002	8.15923E-005	8	..........a	-327.66
	2785	0.5572	6.01471E-002	-1.45156E-005	0.00000E+000	6.00000E-002	8.15923E-005	8	..........a	-327.66
	2786	0.5574	4.99471E-002	-1.45956E-005	0.00000E+000	5.00000E-002	-2.18408E-004	8	..........a	-327.66
	2787	0.5576	3.99471E-002	-1.47756E-005	0.00000E+000	4.00000E-002	-3.18408E-004	8	..........a	-327.66
	2788	0.5578	3.00471E-002	-1.47756E-005	0.00000E+000	3.00000E-002	8.15923E-005	8	..........a	-327.66
	2789	0.558	2.01471E-002	-1.48356E-005	0.00000E+000	2.00000E-002	8.15923E-005	8	..........a	-327.66
	2790	0.5582	1.00471E-002	-1.48856E-005	0.00000E+000	1.00000E-002	-2.18408E-004	8	..........a	-327.66
	2791	0.5584	2.47114E-004	-1.49456E-005	0.00000E+000	7.45058E-009	8.15923E-005	8	..........a	-327.66
	2792	0.5586	-9.95289E-003	-1.49956E-005	0.00000E+000	-1.00000E-002	8.15923E-005	8	..........a	-327.66
	2793	0.5588	-1.99529E-002	-1.49956E-005	0.00000E+000	-2.00000E-002	-3.18408E-004	8	..........a	-327.66
	2794	0.559	-2.99529E-002	-1.50456E-005	0.00000E+000	-3.00000E-002	-3.18408E-004	8	..........a	-327.66
	2795	0.5592	-4.00529E-002	-1.50056E-005	0.00000E+000	-4.00000E-002	8.15923E-005	8	..........a	-327.66
	2796	0.5594	-4.97529E-002	-1.50756E-005	0.00000E+000	-5.00000E-002	8.15923E-005	8	..........a	-327.66
	2797	0.5596	-5.97529E-002	-1.50756E-005	0.00000E+000	-6.00000E-002	8.15923E-005	8	..........a	-327.66
	2798	0.5598	-7.00529E-002	-1.50756E-005	0.00000E+000	-7.00000E-002	8.15923E-005	8	..........a	-327.66
	2799	0.56	-7.99529E-002	-1.50056E-005	0.00000E+000	-8.00000E-002	8.15923E-005	8	..........a	-327.66
	2800	0.5602	-8.99529E-002	-1.49956E-005	0.00000E+000	-9.00000E-002	8.15923E-005	8	..........a	-327.66