File: example_project/raw_outputs/20240424_W_GM0016_HL03_E06_CV50.DTA
EXPLAIN
TAG	CV
TITLE	LABEL	Cyclic Voltammetry	Test &Identifier
DATE	LABEL	4/24/2024	Date
TIME	LABEL	18:02:25	Time
NOTES	NOTES	1	&Notes...

PSTAT	PSTAT	REF600P-43058	Potentiostat
VINIT	POTEN	0.00000E+000	T	Initial &E (V)
VLIMIT1	POTEN	-6.00000E-001	F	Scan Limit &1 (V)
VLIMIT2	POTEN	8.00000E-001	F	Scan Limit &2 (V)
VFINAL	POTEN	0.00000E+000	T	Final &E (V)
SCANRATE	QUANT	4.99999E+001	&Scan Rate (mV/s)
STEPSIZE	QUANT	1.00000E+001	St&ep Size (mV)
CYCLES	IQUANT	4	C&ycles (#)
IMODE	SELECTOR	0	I/E Range &Mode
IRANGE	QUANT	1.00000E-005	&Max Current (mA)
AREA	QUANT	1.00000E+000	Electrode &Area (cm^2)
ELECTRODETYPE	SELECTOR	0	Electrode Type
STRIPPING	TOGGLE	F	Used for Stripping
POLARITY	TOGGLE	F	Signal Polarity
CONDIT	TWOPARAM	F	1.50000E+001	0.00000E+000	Conditionin&g	Time(s)	E(V)
DELAY	TWOPARAM	T	1.00000E+001	0.00000E+000	Init. De&lay	Time(s)	Stab.(mV/s)
EQDELAY	QUANT	1.00000E+001	Equil. &Time (s)
IRCOMP	SELECTOR	0	IRCom&p
PFCOR	QUANT	5.00000E+001	PF Corr. (ohm)
SAMPLINGMODE	SELECTOR	1	Sampling &Mode
OCVCURVE	TABLE	39
	Pt	T	Vf	Vm	Ach	Over	Temp
	#	s	V vs. Ref.	V	V	bits	deg C
	0	0.258333	-1.17313E-001	-1.17313E-001	2.49192E-004	..........a	-327.66
	1	0.516667	-1.17317E-001	-1.17539E-001	2.44859E-004	..........a	-327.66
	2	0.775	-1.17344E-001	-1.17763E-001	2.52059E-004	..........a	-327.66
	3	1.03333	-1.17420E-001	-1.17976E-001	2.49259E-004	..........a	-327.66
	4	1.29167	-1.17557E-001	-1.18193E-001	2.57926E-004	..........a	-327.66
	5	1.55	-1.17743E-001	-1.18411E-001	2.54726E-004	..........a	-327.66
	6	1.80833	-1.17953E-001	-1.18612E-001	2.42459E-004	..........a	-327.66
	7	2.06667	-1.18170E-001	-1.18819E-001	2.44326E-004	..........a	-327.66
	8	2.325	-1.18385E-001	-1.19039E-001	2.55059E-004	..........a	-327.66
	9	2.58333	-1.18597E-001	-1.19230E-001	2.40526E-004	..........a	-327.66
	10	2.84167	-1.18806E-001	-1.19427E-001	2.36459E-004	..........a	-327.66
	11	3.1	-1.19012E-001	-1.19612E-001	2.38592E-004	..........a	-327.66
	12	3.35833	-1.19212E-001	-1.19787E-001	2.65326E-004	..........a	-327.66
	13	3.61667	-1.19405E-001	-1.19964E-001	2.54059E-004	..........a	-327.66
	14	3.875	-1.19592E-001	-1.20144E-001	2.46459E-004	..........a	-327.66
	15	4.13333	-1.19773E-001	-1.20320E-001	2.51726E-004	..........a	-327.66
	16	4.39167	-1.19952E-001	-1.20491E-001	2.53726E-004	..........a	-327.66
	17	4.65	-1.20129E-001	-1.20661E-001	2.64126E-004	..........a	-327.66
	18	4.90833	-1.20304E-001	-1.20832E-001	2.32859E-004	..........a	-327.66
	19	5.16667	-1.20477E-001	-1.21006E-001	2.42992E-004	..........a	-327.66
	20	5.425	-1.20649E-001	-1.21181E-001	2.48859E-004	..........a	-327.66
	21	5.68333	-1.20821E-001	-1.21354E-001	2.45926E-004	..........a	-327.66
	22	5.94167	-1.20994E-001	-1.21563E-001	2.39459E-004	..........a	-327.66
	23	6.2	-1.21170E-001	-1.21684E-001	2.46859E-004	..........a	-327.66
	24	6.45833	-1.21346E-001	-1.21839E-001	2.50059E-004	..........a	-327.66
	25	6.71667	-1.21515E-001	-1.21985E-001	2.37326E-004	..........a	-327.66
	26	6.975	-1.21675E-001	-1.22139E-001	2.40392E-004	..........a	-327.66
	27	7.23333	-1.21828E-001	-1.22291E-001	2.41659E-004	..........a	-327.66
	28	7.49167	-1.21978E-001	-1.22444E-001	2.35459E-004	..........a	-327.66
	29	7.75	-1.22128E-001	-1.22597E-001	2.43592E-004	..........a	-327.66
	30	8.00833	-1.22280E-001	-1.22753E-001	2.51592E-004	..........a	-327.66
	31	8.26667	-1.22433E-001	-1.22909E-001	2.45792E-004	..........a	-327.66
	32	8.525	-1.22586E-001	-1.23064E-001	2.57392E-004	..........a	-327.66
	33	8.78333	-1.22741E-001	-1.23222E-001	2.54259E-004	..........a	-327.66
	34	9.04167	-1.22897E-001	-1.23378E-001	2.46926E-004	..........a	-327.66
	35	9.3	-1.23053E-001	-1.23534E-001	2.54526E-004	..........a	-327.66
	36	9.5583	-1.23209E-001	-1.23686E-001	2.40259E-004	..........a	-327.66
	37	9.8167	-1.23365E-001	-1.23835E-001	2.47259E-004	..........a	-327.66
	38	10.075	-1.23519E-001	-1.23974E-001	2.44459E-004	..........a	-327.66
EOC	QUANT	-0.1235192	Open Circuit (V)
PSTATMODEL	IQUANT	7	Pstat Model
PSTATSECTION	LABEL	REF600P-43058	Pstat Section
PSTATSERIALNO	LABEL	43058	Pstat Serial Number
CTRLMODE	IQUANT	1	Control Mode
ELECTROMETER	IQUANT	0	RE=0 or CS=1
IESTAB	IQUANT	2	I/E Stability
CASPEED	IQUANT	4	Control Amp Speed
CONVENTION	IQUANT	1	Current Convention
ICHRANGE	IQUANT	2	Ich Range
ICHRANGEMODE	TOGGLE	F	Ich Auto Range
ICHOFFSETENABLE	TOGGLE	F	Ich Offset Enable
ICHOFFSET	QUANT	0	Ich Offset (V)
ICHFILTER	IQUANT	2	Ich Filter
VCHRANGE	IQUANT	2	Vch Range
VCHRANGEMODE	TOGGLE	F	Vch Auto Range
VCHOFFSETENABLE	TOGGLE	F	Vch Offset Enable
VCHOFFSET	QUANT	0	Vch Offset (V)
VCHFILTER	IQUANT	2	Vch Filter
ACHRANGE	IQUANT	2	Ach Range
ACHOFFSETENABLE	TOGGLE	F	Ach Offset Enable
ACHOFFSET	QUANT	0	Ach Offset (V)
ACHFILTER	IQUANT	1	Ach Filter
IERANGELOWERLIMIT	IQUANT	1	I/E Range Lower Limit
IERANGEMODE	TOGGLE	T	I/E AutoRange
IERANGE	IQUANT	4	I/E Range
POSFEEDENABLE	TOGGLE	F	Positive Feedback IR Comp
POSFEEDRESISTANCE	QUANT	0	Positive Feedback Resistance (ohm)
ACHSELECT	IQUANT	4	Ach Select
SENSECABLEID	IQUANT	7	Sense Cable ID
PWRCABLEID	IQUANT	7	Power Cable ID
DCCALDATE	LABEL	3/22/2024	DC Calibration Date
ACCALDATE	LABEL	3/22/2024	AC Calibration Date
THERMOSELECT	IQUANT	1	Thermo Select
FRAMEWORKVERSION	LABEL	7.8.4	Framework Version
INSTRUMENTVERSION	LABEL	4.42	Instrument Version
CURVE1	TABLE
	Pt	T	Vf	Im	Vu	Sig	Ach	IERange	Over	Temp
	#	s	V vs. Ref.	A	V	V	V	#	bits	deg C
	0	0.2	-1.23480E-001	9.10110E-010	0.00000E+000	-1.23500E-001	1.01809E-003	5	..........a	-327.66
	1	0.4	-1.33338E-001	-9.67140E-010	0.00000E+000	-1.33500E-001	1.00219E-003	5	..........a	-327.66
	2	0.6	-1.43451E-001	-2.27873E-009	0.00000E+000	-1.43500E-001	1.00279E-003	5	..........a	-327.66
	3	0.8	-1.53397E-001	-3.41148E-009	0.00000E+000	-1.53500E-001	1.00489E-003	5	..........a	-327.66
	4	1	-1.63436E-001	-4.49195E-009	0.00000E+000	-1.63500E-001	1.02449E-003	5	..........a	-327.66
	5	1.2	-1.73399E-001	-5.54266E-009	0.00000E+000	-1.73500E-001	9.97292E-004	5	..........a	-327.66
	6	1.4	-1.83464E-001	-6.52160E-009	0.00000E+000	-1.83500E-001	9.97992E-004	5	..........a	-327.66
	7	1.6	-1.93460E-001	-7.52276E-009	0.00000E+000	-1.93500E-001	9.97992E-004	5	..........a	-327.66
	8	1.8	-2.03428E-001	-8.48980E-009	0.00000E+000	-2.03500E-001	9.99892E-004	5	..........a	-327.66
	9	2	-2.13317E-001	-9.48261E-009	0.00000E+000	-2.13500E-001	1.00739E-003	5	..........a	-327.66
	10	2.2	-2.23418E-001	-1.04866E-008	0.00000E+000	-2.23500E-001	1.01639E-003	5	..........a	-327.66
	11	2.4	-2.33415E-001	-1.14241E-008	0.00000E+000	-2.33500E-001	1.02639E-003	5	..........a	-327.66
	12	2.6	-2.43421E-001	-1.24004E-008	0.00000E+000	-2.43500E-001	1.01619E-003	5	..........a	-327.66
	13	2.8	-2.53352E-001	-1.33675E-008	0.00000E+000	-2.53500E-001	9.98392E-004	5	..........a	-327.66
	14	3	-2.63419E-001	-1.43343E-008	0.00000E+000	-2.63500E-001	1.00059E-003	5	..........a	-327.66
	15	3.2	-2.73391E-001	-1.52808E-008	0.00000E+000	-2.73500E-001	1.02639E-003	5	..........a	-327.66
	16	3.4	-2.83413E-001	-1.62791E-008	0.00000E+000	-2.83500E-001	1.00249E-003	5	..........a	-327.66
	17	3.6	-2.93316E-001	-1.72425E-008	0.00000E+000	-2.93500E-001	9.89492E-004	5	..........a	-327.66
	18	3.8	-3.03408E-001	-1.82288E-008	0.00000E+000	-3.03500E-001	1.02349E-003	5	..........a	-327.66
	19	4	-3.13413E-001	-1.92089E-008	0.00000E+000	-3.13500E-001	1.00679E-003	5	..........a	-327.66
	20	4.2	-3.23410E-001	-2.01893E-008	0.00000E+000	-3.23500E-001	1.00279E-003	5	..........a	-327.66
	21	4.4	-3.33334E-001	-2.11792E-008	0.00000E+000	-3.33500E-001	1.01789E-003	5	..........a	-327.66
	22	4.6	-3.43432E-001	-2.21563E-008	0.00000E+000	-3.43500E-001	1.00799E-003	5	..........a	-327.66
	23	4.8	-3.53439E-001	-2.31544E-008	0.00000E+000	-3.53500E-001	9.96892E-004	5	..........a	-327.66
	24	5	-3.63411E-001	-2.41086E-008	0.00000E+000	-3.63500E-001	1.00089E-003	5	..........a	-327.66
	25	5.2	-3.73376E-001	-2.51023E-008	0.00000E+000	-3.73500E-001	1.00449E-003	5	..........a	-327.66
	26	5.4	-3.83431E-001	-2.61179E-008	0.00000E+000	-3.83500E-001	9.94592E-004	5	..........a	-327.66
	27	5.6	-3.93395E-001	-2.70635E-008	0.00000E+000	-3.93500E-001	1.01719E-003	5	..........a	-327.66
	28	5.8	-4.03416E-001	-2.80538E-008	0.00000E+000	-4.03500E-001	9.88792E-004	5	..........a	-327.66
	29	6	-4.13270E-001	-2.90030E-008	0.00000E+000	-4.13500E-001	1.02069E-003	5	..........a	-327.66
	30	6.2	-4.23390E-001	-2.99903E-008	0.00000E+000	-4.23500E-001	9.90292E-004	5	..........a	-327.66
	31	6.4	-4.33387E-001	-3.09633E-008	0.00000E+000	-4.33500E-001	1.00489E-003	5	..........a	-327.66
	32	6.6	-4.43396E-001	-3.19125E-008	0.00000E+000	-4.43500E-001	9.92692E-004	5	..........a	-327.66
	33	6.8	-4.53312E-001	-3.28787E-008	0.00000E+000	-4.53500E-001	1.01559E-003	5	..........a	-327.66
	34	7	-4.63368E-001	-3.38303E-008	0.00000E+000	-4.63500E-001	9.94592E-004	5	..........a	-327.66
	35	7.2	-4.73338E-001	-3.48096E-008	0.00000E+000	-4.73500E-001	1.02069E-003	5	..........a	-327.66
	36	7.4	-4.83379E-001	-3.57226E-008	0.00000E+000	-4.83500E-001	1.01319E-003	5	..........a	-327.66
	37	7.6	-4.93255E-001	-3.66518E-008	0.00000E+000	-4.93500E-001	1.01729E-003	5	..........a	-327.66
	38	7.8	-5.03385E-001	-3.76140E-008	0.00000E+000	-5.03500E-001	1.00609E-003	5	..........a	-327.66
	39	8	-5.13427E-001	-3.86023E-008	0.00000E+000	-5.13500E-001	1.01119E-003	5	..........a	-327.66
	40	8.2	-5.23384E-001	-3.95450E-008	0.00000E+000	-5.23500E-001	9.82092E-004	5	..........a	-327.66
	41	8.4	-5.33310E-001	-4.05490E-008	0.00000E+000	-5.33500E-001	1.02119E-003	5	..........a	-327.66
	42	8.6	-5.43408E-001	-4.15905E-008	0.00000E+000	-5.43500E-001	1.01749E-003	5	..........a	-327.66
	43	8.8	-5.53389E-001	-4.25947E-008	0.00000E+000	-5.53500E-001	1.02709E-003	5	..........a	-327.66
	44	9	-5.63394E-001	-4.36625E-008	0.00000E+000	-5.63500E-001	1.01329E-003	5	..........a	-327.66
	45	9.2	-5.73287E-001	-4.47286E-008	0.00000E+000	-5.73500E-001	9.96692E-004	5	..........a	-327.66
	46	9.4	-5.83389E-001	-4.59005E-008	0.00000E+000	-5.83500E-001	9.98792E-004	5	..........a	-327.66
	47	9.6	-5.93364E-001	-4.71326E-008	0.00000E+000	-5.93500E-001	1.01619E-003	5	..........a	-327.66
	48	9.8	-6.03389E-001	-4.84440E-008	0.00000E+000	-6.03500E-001	1.01459E-003	5	..........a	-327.66
	49	10	-5.93379E-001	-4.18101E-008	0.00000E+000	-5.93500E-001	1.01809E-003	5	..........a	-327.66
	50	10.2	-5.83395E-001	-3.76241E-008	0.00000E+000	-5.83500E-001	1.00949E-003	5	..........a	-327.66
	51	10.4	-5.73267E-001	-3.45051E-008	0.00000E+000	-5.73500E-001	9.93192E-004	5	..........a	-327.66
	52	10.6	-5.63396E-001	-3.19979E-008	0.00000E+000	-5.63500E-001	1.01569E-003	5	..........a	-327.66
	53	10.8	-5.53362E-001	-2.98263E-008	0.00000E+000	-5.53500E-001	1.01099E-003	5	..........a	-327.66
	54	11	-5.43432E-001	-2.79363E-008	0.00000E+000	-5.43500E-001	1.01389E-003	5	..........a	-327.66
	55	11.2	-5.33338E-001	-2.62577E-008	0.00000E+000	-5.33500E-001	1.00319E-003	5	..........a	-327.66
	56	11.4	-5.23392E-001	-2.47002E-008	0.00000E+000	-5.23500E-001	1.00539E-003	5	..........a	-327.66
	57	11.6	-5.13401E-001	-2.33459E-008	0.00000E+000	-5.13500E-001	9.97192E-004	5	..........a	-327.66
	58	11.8	-5.03397E-001	-2.19912E-008	0.00000E+000	-5.03500E-001	1.00519E-003	5	..........a	-327.66
	59	12	-4.93260E-001	-2.07600E-008	0.00000E+000	-4.93500E-001	1.01129E-003	5	..........a	-327.66
	60	12.2	-4.83394E-001	-1.95740E-008	0.00000E+000	-4.83500E-001	1.00859E-003	5	..........a	-327.66
	61	12.4	-4.73355E-001	-1.84566E-008	0.00000E+000	-4.73500E-001	1.00429E-003	5	..........a	-327.66
	62	12.6	-4.63389E-001	-1.73672E-008	0.00000E+000	-4.63500E-001	1.00329E-003	5	..........a	-327.66
	63	12.8	-4.53353E-001	-1.63360E-008	0.00000E+000	-4.53500E-001	1.01559E-003	5	..........a	-327.66
	64	13	-4.43411E-001	-1.53503E-008	0.00000E+000	-4.43500E-001	1.01169E-003	5	..........a	-327.66
	65	13.2	-4.33386E-001	-1.43727E-008	0.00000E+000	-4.33500E-001	1.00829E-003	5	..........a	-327.66
	66	13.4	-4.23396E-001	-1.34294E-008	0.00000E+000	-4.23500E-001	1.00499E-003	5	..........a	-327.66
	67	13.6	-4.13278E-001	-1.24656E-008	0.00000E+000	-4.13500E-001	1.01379E-003	5	..........a	-327.66
	68	13.8	-4.03418E-001	-1.15855E-008	0.00000E+000	-4.03500E-001	9.91492E-004	5	..........a	-327.66
	69	14	-3.93356E-001	-1.06797E-008	0.00000E+000	-3.93500E-001	1.02159E-003	5	..........a	-327.66
	70	14.2	-3.83430E-001	-9.78072E-009	0.00000E+000	-3.83500E-001	1.01329E-003	5	..........a	-327.66
	71	14.4	-3.73372E-001	-8.88407E-009	0.00000E+000	-3.73500E-001	1.00299E-003	5	..........a	-327.66
	72	14.6	-3.63417E-001	-8.04888E-009	0.00000E+000	-3.63500E-001	9.84892E-004	5	..........a	-327.66
	73	14.8	-3.53442E-001	-7.14602E-009	0.00000E+000	-3.53500E-001	1.00929E-003	5	..........a	-327.66
	74	15	-3.43431E-001	-6.31752E-009	0.00000E+000	-3.43500E-001	1.01239E-003	5	..........a	-327.66
	75	15.2	-3.33370E-001	-5.50212E-009	0.00000E+000	-3.33500E-001	9.89892E-004	5	..........a	-327.66
	76	15.4	-3.23419E-001	-4.65222E-009	0.00000E+000	-3.23500E-001	9.94392E-004	5	..........a	-327.66
	77	15.6	-3.13426E-001	-3.87394E-009	0.00000E+000	-3.13500E-001	1.00739E-003	5	..........a	-327.66
	78	15.8	-3.03422E-001	-3.06095E-009	0.00000E+000	-3.03500E-001	9.85292E-004	5	..........a	-327.66
	79	16	-2.93321E-001	-2.25841E-009	0.00000E+000	-2.93500E-001	1.00489E-003	5	..........a	-327.66
	80	16.2	-2.83458E-001	-1.47902E-009	0.00000E+000	-2.83500E-001	1.00849E-003	5	..........a	-327.66
	81	16.4	-2.73421E-001	-7.05310E-010	0.00000E+000	-2.73500E-001	1.01239E-003	5	..........a	-327.66
	82	16.6	-2.63465E-001	4.74283E-011	0.00000E+000	-2.63500E-001	9.99092E-004	5	..........a	-327.66
	83	16.8	-2.53355E-001	8.37058E-010	0.00000E+000	-2.53500E-001	9.96192E-004	5	..........a	-327.66
	84	17	-2.43425E-001	1.61362E-009	0.00000E+000	-2.43500E-001	9.95292E-004	5	..........a	-327.66
	85	17.2	-2.33505E-001	2.33670E-009	0.00000E+000	-2.33500E-001	1.00419E-003	5	..........a	-327.66
	86	17.4	-2.23434E-001	3.07399E-009	0.00000E+000	-2.23500E-001	1.01419E-003	5	..........a	-327.66
	87	17.6	-2.13332E-001	3.79369E-009	0.00000E+000	-2.13500E-001	1.01239E-003	5	..........a	-327.66
	88	17.8	-2.03491E-001	4.50790E-009	0.00000E+000	-2.03500E-001	1.01579E-003	5	..........a	-327.66
	89	18	-1.93460E-001	5.19007E-009	0.00000E+000	-1.93500E-001	1.02109E-003	5	..........a	-327.66
	90	18.2	-1.83464E-001	5.92327E-009	0.00000E+000	-1.83500E-001	1.00759E-003	5	..........a	-327.66
	91	18.4	-1.73415E-001	6.64070E-009	0.00000E+000	-1.73500E-001	1.00799E-003	5	..........a	-327.66
	92	18.6	-1.63458E-001	7.33830E-009	0.00000E+000	-1.63500E-001	1.01089E-003	5	..........a	-327.66
	93	18.8	-1.53547E-001	8.04872E-009	0.00000E+000	-1.53500E-001	1.01709E-003	5	..........a	-327.66
	94	19	-1.43463E-001	8.75470E-009	0.00000E+000	-1.43500E-001	1.02049E-003	5	..........a	-327.66
	95	19.2	-1.33391E-001	9.47032E-009	0.00000E+000	-1.33500E-001	1.01999E-003	5	..........a	-327.66
	96	19.4	-1.23466E-001	1.01752E-008	0.00000E+000	-1.23500E-001	1.01759E-003	5	..........a	-327.66
	97	19.6	-1.13482E-001	1.08842E-008	0.00000E+000	-1.13500E-001	1.00789E-003	5	..........a	-327.66
	98	19.8	-1.03482E-001	1.16260E-008	0.00000E+000	-1.03500E-001	1.01509E-003	5	..........a	-327.66
	99	20	-9.34108E-002	1.23734E-008	0.00000E+000	-9.35000E-002	1.00299E-003	5	..........a	-327.66
	100	20.2	-8.35403E-002	1.31218E-008	0.00000E+000	-8.35000E-002	1.01399E-003	5	..........a	-327.66
	101	20.4	-7.34972E-002	1.39075E-008	0.00000E+000	-7.35000E-002	1.00689E-003	5	..........a	-327.66
	102	20.6	-6.34698E-002	1.46651E-008	0.00000E+000	-6.35000E-002	1.01039E-003	5	..........a	-327.66
	103	20.8	-5.33484E-002	1.54530E-008	0.00000E+000	-5.35000E-002	9.93592E-004	5	..........a	-327.66
	104	21	-4.34532E-002	1.62913E-008	0.00000E+000	-4.35000E-002	9.90292E-004	5	..........a	-327.66
	105	21.2	-3.35037E-002	1.71413E-008	0.00000E+000	-3.35000E-002	9.97992E-004	5	..........a	-327.66
	106	21.4	-2.35161E-002	1.79897E-008	0.00000E+000	-2.35000E-002	1.00699E-003	5	..........a	-327.66
	107	21.6	-1.34359E-002	1.88634E-008	0.00000E+000	-1.35000E-002	9.79892E-004	5	..........a	-327.66
	108	21.8	-3.46971E-003	1.97229E-008	0.00000E+000	-3.49999E-003	9.99992E-004	5	..........a	-327.66
	109	22	6.53719E-003	2.05617E-008	0.00000E+000	6.50001E-003	1.00409E-003	5	..........a	-327.66
	110	22.2	1.65449E-002	2.14636E-008	0.00000E+000	1.65000E-002	9.88392E-004	5	..........a	-327.66
	111	22.4	2.66350E-002	2.23577E-008	0.00000E+000	2.65000E-002	1.00139E-003	5	..........a	-327.66
	112	22.6	3.65385E-002	2.32164E-008	0.00000E+000	3.65000E-002	9.94492E-004	5	..........a	-327.66
	113	22.8	4.65148E-002	2.41918E-008	0.00000E+000	4.65000E-002	1.02429E-003	5	..........a	-327.66
	114	23	5.65417E-002	2.51607E-008	0.00000E+000	5.65000E-002	1.00849E-003	5	..........a	-327.66
	115	23.2	6.62647E-002	2.62000E-008	0.00000E+000	6.65000E-002	9.81792E-004	5	..........a	-327.66
	116	23.4	7.65069E-002	2.73049E-008	0.00000E+000	7.65000E-002	1.01899E-003	5	..........a	-327.66
	117	23.6	8.65046E-002	2.84600E-008	0.00000E+000	8.65000E-002	1.02939E-003	5	..........a	-327.66
	118	23.8	9.65034E-002	2.97092E-008	0.00000E+000	9.65000E-002	1.00619E-003	5	..........a	-327.66
	119	24	1.06619E-001	3.10735E-008	0.00000E+000	1.06500E-001	1.01119E-003	5	..........a	-327.66
	120	24.2	1.16506E-001	3.25432E-008	0.00000E+000	1.16500E-001	1.02059E-003	5	..........a	-327.66
	121	24.4	1.26507E-001	3.41457E-008	0.00000E+000	1.26500E-001	9.97592E-004	5	..........a	-327.66
	122	24.6	1.36557E-001	3.69566E-008	0.00000E+000	1.36500E-001	1.00009E-003	5	..........a	-327.66
	123	24.8	1.46643E-001	4.75441E-008	0.00000E+000	1.46500E-001	9.97792E-004	5	..........a	-327.66
	124	25	1.56487E-001	5.45933E-008	0.00000E+000	1.56500E-001	1.01629E-003	5	..........a	-327.66
	125	25.2	1.66542E-001	4.63941E-008	0.00000E+000	1.66500E-001	1.01149E-003	5	..........a	-327.66
	126	25.4	1.76486E-001	4.40414E-008	0.00000E+000	1.76500E-001	1.00989E-003	5	..........a	-327.66
	127	25.6	1.86584E-001	4.42069E-008	0.00000E+000	1.86500E-001	9.92392E-004	5	..........a	-327.66
	128	25.8	1.96492E-001	4.53076E-008	0.00000E+000	1.96500E-001	1.00549E-003	5	..........a	-327.66
	129	26	2.06472E-001	4.66874E-008	0.00000E+000	2.06500E-001	1.02329E-003	5	..........a	-327.66
	130	26.2	2.16512E-001	4.82817E-008	0.00000E+000	2.16500E-001	1.00989E-003	5	..........a	-327.66
	131	26.4	2.26604E-001	4.99529E-008	0.00000E+000	2.26500E-001	1.00569E-003	5	..........a	-327.66
	132	26.6	2.36497E-001	5.16277E-008	0.00000E+000	2.36500E-001	1.01799E-003	5	..........a	-327.66
	133	26.8	2.46470E-001	5.33816E-008	0.00000E+000	2.46500E-001	1.01729E-003	5	..........a	-327.66
	134	27	2.56435E-001	5.51564E-008	0.00000E+000	2.56500E-001	1.02699E-003	5	..........a	-327.66
	135	27.2	2.66532E-001	5.69091E-008	0.00000E+000	2.66500E-001	1.01709E-003	5	..........a	-327.66
	136	27.4	2.76453E-001	5.86440E-008	0.00000E+000	2.76500E-001	1.02139E-003	5	..........a	-327.66
	137	27.6	2.86451E-001	6.04233E-008	0.00000E+000	2.86500E-001	1.02299E-003	5	..........a	-327.66
	138	27.8	2.96357E-001	6.22107E-008	0.00000E+000	2.96500E-001	1.00159E-003	5	..........a	-327.66
	139	28	3.06539E-001	6.40209E-008	0.00000E+000	3.06500E-001	1.02119E-003	5	..........a	-327.66
	140	28.2	3.16510E-001	6.59176E-008	0.00000E+000	3.16500E-001	1.00759E-003	5	..........a	-327.66
	141	28.4	3.26448E-001	6.79216E-008	0.00000E+000	3.26500E-001	1.00809E-003	5	..........a	-327.66
	142	28.6	3.36475E-001	7.00384E-008	0.00000E+000	3.36500E-001	1.02669E-003	5	..........a	-327.66
	143	28.8	3.46584E-001	7.22691E-008	0.00000E+000	3.46500E-001	1.00199E-003	5	..........a	-327.66
	144	29	3.56423E-001	7.46094E-008	0.00000E+000	3.56500E-001	1.01809E-003	5	..........a	-327.66
	145	29.2	3.66513E-001	7.70724E-008	0.00000E+000	3.66500E-001	1.00109E-003	5	..........a	-327.66
	146	29.4	3.76423E-001	7.96146E-008	0.00000E+000	3.76500E-001	1.00219E-003	5	..........a	-327.66
	147	29.6	3.86545E-001	8.22881E-008	0.00000E+000	3.86500E-001	1.00499E-003	5	..........a	-327.66
	148	29.8	3.96508E-001	8.51041E-008	0.00000E+000	3.96500E-001	9.99792E-004	5	..........a	-327.66
	149	30	4.06420E-001	8.79375E-008	0.00000E+000	4.06500E-001	1.01899E-003	5	..........a	-327.66
	150	30.2	4.16438E-001	9.08186E-008	0.00000E+000	4.16500E-001	1.01289E-003	5	..........a	-327.66
	151	30.4	4.26540E-001	9.36928E-008	0.00000E+000	4.26500E-001	1.00429E-003	5	..........a	-327.66
	152	30.6	4.36431E-001	9.64962E-008	0.00000E+000	4.36500E-001	1.02519E-003	5	..........a	-327.66
	153	30.8	4.46450E-001	9.92980E-008	0.00000E+000	4.46500E-001	1.01059E-003	5	..........a	-327.66
	154	31	4.56419E-001	1.02047E-007	0.00000E+000	4.56500E-001	9.99192E-004	5	..........a	-327.66
	155	31.2	4.66450E-001	1.04799E-007	0.00000E+000	4.66500E-001	1.03029E-003	5	..........a	-327.66
	156	31.4	4.76438E-001	1.07533E-007	0.00000E+000	4.76500E-001	1.02899E-003	5	..........a	-327.66
	157	31.6	4.86356E-001	1.10232E-007	0.00000E+000	4.86500E-001	1.00229E-003	5	..........a	-327.66
	158	31.8	4.96452E-001	1.12904E-007	0.00000E+000	4.96500E-001	1.02049E-003	5	..........a	-327.66
	159	32	5.06482E-001	1.15597E-007	0.00000E+000	5.06500E-001	1.00739E-003	5	..........a	-327.66
	160	32.2	5.16445E-001	1.18173E-007	0.00000E+000	5.16500E-001	9.87192E-004	5	..........a	-327.66
	161	32.4	5.26381E-001	1.20744E-007	0.00000E+000	5.26500E-001	1.01769E-003	5	..........a	-327.66
	162	32.6	5.36394E-001	1.23254E-007	0.00000E+000	5.36500E-001	1.01129E-003	5	..........a	-327.66
	163	32.8	5.46454E-001	1.25766E-007	0.00000E+000	5.46500E-001	9.96592E-004	5	..........a	-327.66
	164	33	5.56403E-001	1.28162E-007	0.00000E+000	5.56500E-001	1.01719E-003	5	..........a	-327.66
	165	33.2	5.66370E-001	1.30551E-007	0.00000E+000	5.66500E-001	1.01549E-003	5	..........a	-327.66
	166	33.4	5.76425E-001	1.32894E-007	0.00000E+000	5.76500E-001	9.90592E-004	5	..........a	-327.66
	167	33.6	5.86440E-001	1.35260E-007	0.00000E+000	5.86500E-001	9.96792E-004	5	..........a	-327.66
	168	33.8	5.96436E-001	1.37580E-007	0.00000E+000	5.96500E-001	1.01969E-003	5	..........a	-327.66
	169	34	6.06373E-001	1.39960E-007	0.00000E+000	6.06500E-001	1.02069E-003	5	..........a	-327.66
	170	34.2	6.16359E-001	1.42340E-007	0.00000E+000	6.16500E-001	1.01479E-003	5	..........a	-327.66
	171	34.4	6.26387E-001	1.44722E-007	0.00000E+000	6.26500E-001	9.99992E-004	5	..........a	-327.66
	172	34.6	6.36362E-001	1.47169E-007	0.00000E+000	6.36500E-001	1.02939E-003	5	..........a	-327.66
	173	34.8	6.46361E-001	1.49621E-007	0.00000E+000	6.46500E-001	1.02669E-003	5	..........a	-327.66
	174	35	6.56386E-001	1.52095E-007	0.00000E+000	6.56500E-001	1.00479E-003	5	..........a	-327.66
	175	35.2	6.66349E-001	1.54582E-007	0.00000E+000	6.66500E-001	1.00109E-003	5	..........a	-327.66
	176	35.4	6.76407E-001	1.57177E-007	0.00000E+000	6.76500E-001	1.00969E-003	5	..........a	-327.66
	177	35.6	6.86331E-001	1.59855E-007	0.00000E+000	6.86500E-001	1.00969E-003	5	..........a	-327.66
	178	35.8	6.96329E-001	1.62630E-007	0.00000E+000	6.96500E-001	1.00319E-003	5	..........a	-327.66
	179	36	7.06256E-001	1.65597E-007	0.00000E+000	7.06500E-001	1.00479E-003	5	..........a	-327.66
	180	36.2	7.16377E-001	1.68607E-007	0.00000E+000	7.16500E-001	1.00629E-003	5	..........a	-327.66
	181	36.4	7.26360E-001	1.71867E-007	0.00000E+000	7.26500E-001	1.01889E-003	5	..........a	-327.66
	182	36.6	7.36318E-001	1.75301E-007	0.00000E+000	7.36500E-001	1.00129E-003	5	..........a	-327.66
	183	36.8	7.46372E-001	1.79039E-007	0.00000E+000	7.46500E-001	1.00979E-003	5	..........a	-327.66
	184	37	7.56421E-001	1.82981E-007	0.00000E+000	7.56500E-001	9.98992E-004	5	..........a	-327.66
	185	37.2	7.66332E-001	1.87250E-007	0.00000E+000	7.66500E-001	1.02119E-003	5	..........a	-327.66
	186	37.4	7.76353E-001	1.91791E-007	0.00000E+000	7.76500E-001	9.99092E-004	5	..........a	-327.66
	187	37.6	7.86362E-001	1.96696E-007	0.00000E+000	7.86500E-001	1.00159E-003	5	..........a	-327.66
	188	37.8	7.96383E-001	2.01878E-007	0.00000E+000	7.96500E-001	1.02439E-003	5	..........a	-327.66
CURVE2	TABLE
	Pt	T	Vf	Im	Vu	Sig	Ach	IERange	Over	Temp
	#	s	V vs. Ref.	A	V	V	V	#	bits	deg C
	189	38	7.89957E-001	1.68927E-007	0.00000E+000	7.90000E-001	9.94692E-004	5	..........a	-327.66
	190	38.2	7.79855E-001	1.41291E-007	0.00000E+000	7.80000E-001	1.01659E-003	5	..........a	-327.66
	191	38.4	7.69883E-001	1.22115E-007	0.00000E+000	7.70000E-001	1.00099E-003	5	..........a	-327.66
	192	38.6	7.59887E-001	1.07875E-007	0.00000E+000	7.60000E-001	1.00779E-003	5	..........a	-327.66
	193	38.8	7.49971E-001	9.67585E-008	0.00000E+000	7.50000E-001	1.00189E-003	5	..........a	-327.66
	194	39	7.39928E-001	8.78176E-008	0.00000E+000	7.40000E-001	1.00549E-003	5	..........a	-327.66
	195	39.2	7.29889E-001	8.04164E-008	0.00000E+000	7.30000E-001	1.01249E-003	5	..........a	-327.66
	196	39.4	7.19896E-001	7.41797E-008	0.00000E+000	7.20000E-001	1.02429E-003	5	..........a	-327.66
	197	39.6	7.09947E-001	6.88172E-008	0.00000E+000	7.10000E-001	1.00249E-003	5	..........a	-327.66
	198	39.8	6.99916E-001	6.41274E-008	0.00000E+000	7.00000E-001	1.00539E-003	5	..........a	-327.66
	199	40	6.89894E-001	5.99378E-008	0.00000E+000	6.90000E-001	1.00569E-003	5	..........a	-327.66
	200	40.2	6.79940E-001	5.61554E-008	0.00000E+000	6.80000E-001	9.95792E-004	5	..........a	-327.66
	201	40.4	6.69970E-001	5.27252E-008	0.00000E+000	6.70000E-001	9.97592E-004	5	..........a	-327.66
	202	40.6	6.59931E-001	4.95527E-008	0.00000E+000	6.60000E-001	9.87892E-004	5	..........a	-327.66
	203	40.8	6.49929E-001	4.66431E-008	0.00000E+000	6.50000E-001	9.93392E-004	5	..........a	-327.66
	204	41	6.39872E-001	4.39020E-008	0.00000E+000	6.40000E-001	1.00559E-003	5	..........a	-327.66
	205	41.2	6.30017E-001	4.13214E-008	0.00000E+000	6.30000E-001	1.02499E-003	5	..........a	-327.66
	206	41.4	6.19908E-001	3.89084E-008	0.00000E+000	6.20000E-001	1.00749E-003	5	..........a	-327.66
	207	41.6	6.09963E-001	3.66220E-008	0.00000E+000	6.10000E-001	1.01409E-003	5	..........a	-327.66
	208	41.8	5.99963E-001	3.44835E-008	0.00000E+000	6.00000E-001	1.00689E-003	5	..........a	-327.66
	209	42	5.90012E-001	3.25035E-008	0.00000E+000	5.90000E-001	1.01179E-003	5	..........a	-327.66
	210	42.2	5.79978E-001	3.06443E-008	0.00000E+000	5.80000E-001	9.83292E-004	5	..........a	-327.66
	211	42.4	5.69923E-001	2.89419E-008	0.00000E+000	5.70000E-001	1.01139E-003	5	..........a	-327.66
	212	42.6	5.59936E-001	2.72952E-008	0.00000E+000	5.60000E-001	1.00899E-003	5	..........a	-327.66
	213	42.8	5.50027E-001	2.56688E-008	0.00000E+000	5.50000E-001	1.02399E-003	5	..........a	-327.66
	214	43	5.39986E-001	2.40723E-008	0.00000E+000	5.40000E-001	1.01439E-003	5	..........a	-327.66
	215	43.2	5.29935E-001	2.25205E-008	0.00000E+000	5.30000E-001	1.02129E-003	5	..........a	-327.66
	216	43.4	5.19961E-001	2.10238E-008	0.00000E+000	5.20000E-001	1.01769E-003	5	..........a	-327.66
	217	43.6	5.09965E-001	1.96690E-008	0.00000E+000	5.10000E-001	1.03219E-003	5	..........a	-327.66
	218	43.8	5.00045E-001	1.84053E-008	0.00000E+000	5.00000E-001	9.97292E-004	5	..........a	-327.66
	219	44	4.89929E-001	1.72724E-008	0.00000E+000	4.90000E-001	1.02489E-003	5	..........a	-327.66
	220	44.2	4.79927E-001	1.61327E-008	0.00000E+000	4.80000E-001	1.01879E-003	5	..........a	-327.66
	221	44.4	4.70021E-001	1.50238E-008	0.00000E+000	4.70000E-001	1.00739E-003	5	..........a	-327.66
	222	44.6	4.59995E-001	1.38299E-008	0.00000E+000	4.60000E-001	1.00569E-003	5	..........a	-327.66
	223	44.8	4.49847E-001	1.25866E-008	0.00000E+000	4.50000E-001	9.88692E-004	5	..........a	-327.66
	224	45	4.39948E-001	1.13891E-008	0.00000E+000	4.40000E-001	1.02459E-003	5	..........a	-327.66
	225	45.2	4.29989E-001	1.01269E-008	0.00000E+000	4.30000E-001	1.00899E-003	5	..........a	-327.66
	226	45.4	4.20000E-001	8.88908E-009	0.00000E+000	4.20000E-001	1.02769E-003	5	..........a	-327.66
	227	45.6	4.09928E-001	7.59243E-009	0.00000E+000	4.10000E-001	1.02299E-003	5	..........a	-327.66
	228	45.8	3.99972E-001	6.34070E-009	0.00000E+000	4.00000E-001	9.90192E-004	5	..........a	-327.66
	229	46	3.90024E-001	5.01875E-009	0.00000E+000	3.90000E-001	1.02719E-003	5	..........a	-327.66
	230	46.2	3.80065E-001	3.72234E-009	0.00000E+000	3.80000E-001	9.88292E-004	5	..........a	-327.66
	231	46.4	3.70006E-001	2.37206E-009	0.00000E+000	3.70000E-001	1.01989E-003	5	..........a	-327.66
	232	46.6	3.59974E-001	9.74783E-010	0.00000E+000	3.60000E-001	9.96192E-004	5	..........a	-327.66
	233	46.8	3.49984E-001	-5.04502E-010	0.00000E+000	3.50000E-001	1.01049E-003	5	..........a	-327.66
	234	47	3.40044E-001	-1.94487E-009	0.00000E+000	3.40000E-001	1.00579E-003	5	..........a	-327.66
	235	47.2	3.30039E-001	-3.43647E-009	0.00000E+000	3.30000E-001	1.03019E-003	5	..........a	-327.66
	236	47.4	3.20045E-001	-4.95720E-009	0.00000E+000	3.20000E-001	1.00999E-003	5	..........a	-327.66
	237	47.6	3.10033E-001	-6.56845E-009	0.00000E+000	3.10000E-001	1.01579E-003	5	..........a	-327.66
	238	47.8	3.00068E-001	-8.27481E-009	0.00000E+000	3.00000E-001	1.00499E-003	5	..........a	-327.66
	239	48	2.90051E-001	-9.99964E-009	0.00000E+000	2.90000E-001	1.00599E-003	5	..........a	-327.66
	240	48.2	2.79969E-001	-1.19421E-008	0.00000E+000	2.80000E-001	1.02219E-003	5	..........a	-327.66
	241	48.4	2.70066E-001	-1.40000E-008	0.00000E+000	2.70000E-001	1.00659E-003	5	..........a	-327.66
	242	48.6	2.60061E-001	-1.61262E-008	0.00000E+000	2.60000E-001	1.01879E-003	5	..........a	-327.66
	243	48.8	2.49995E-001	-1.84124E-008	0.00000E+000	2.50000E-001	1.01439E-003	5	..........a	-327.66
	244	49	2.40057E-001	-2.07541E-008	0.00000E+000	2.40000E-001	1.00489E-003	5	..........a	-327.66
	245	49.2	2.30013E-001	-2.31380E-008	0.00000E+000	2.30000E-001	1.01459E-003	5	..........a	-327.66
	246	49.4	2.20079E-001	-2.55504E-008	0.00000E+000	2.20000E-001	1.00349E-003	5	..........a	-327.66
	247	49.6	2.10003E-001	-2.77932E-008	0.00000E+000	2.10000E-001	1.00749E-003	5	..........a	-327.66
	248	49.8	2.00052E-001	-2.98057E-008	0.00000E+000	2.00000E-001	1.01029E-003	5	..........a	-327.66
	249	50	1.90117E-001	-3.15341E-008	0.00000E+000	1.90000E-001	1.01179E-003	5	..........a	-327.66
	250	50.2	1.80115E-001	-3.27029E-008	0.00000E+000	1.80000E-001	1.00889E-003	5	..........a	-327.66
	251	50.4	1.70078E-001	-3.33098E-008	0.00000E+000	1.70000E-001	1.02079E-003	5	..........a	-327.66
	252	50.6	1.60053E-001	-3.33758E-008	0.00000E+000	1.60000E-001	1.01759E-003	5	..........a	-327.66
	253	50.8	1.50047E-001	-3.28466E-008	0.00000E+000	1.50000E-001	1.02569E-003	5	..........a	-327.66
	254	51	1.40135E-001	-3.18884E-008	0.00000E+000	1.40000E-001	1.00279E-003	5	..........a	-327.66
	255	51.2	1.30065E-001	-3.05229E-008	0.00000E+000	1.30000E-001	1.01299E-003	5	..........a	-327.66
	256	51.4	1.20051E-001	-2.89732E-008	0.00000E+000	1.20000E-001	1.01519E-003	5	..........a	-327.66
	257	51.6	1.10105E-001	-2.72617E-008	0.00000E+000	1.10000E-001	1.00329E-003	5	..........a	-327.66
	258	51.8	1.00143E-001	-2.55148E-008	0.00000E+000	1.00000E-001	1.02049E-003	5	..........a	-327.66
	259	52	9.00856E-002	-2.37026E-008	0.00000E+000	9.00000E-002	1.00939E-003	5	..........a	-327.66
	260	52.2	8.00486E-002	-2.18063E-008	0.00000E+000	8.00000E-002	1.01569E-003	5	..........a	-327.66
	261	52.4	7.00362E-002	-2.02388E-008	0.00000E+000	7.00000E-002	1.01869E-003	5	..........a	-327.66
	262	52.6	6.01293E-002	-1.92283E-008	0.00000E+000	6.00000E-002	9.92692E-004	5	..........a	-327.66
	263	52.8	5.00424E-002	-1.86840E-008	0.00000E+000	5.00000E-002	1.03119E-003	5	..........a	-327.66
	264	53	3.99983E-002	-1.83433E-008	0.00000E+000	4.00000E-002	1.03099E-003	5	..........a	-327.66
	265	53.2	3.00483E-002	-1.81679E-008	0.00000E+000	3.00000E-002	1.00369E-003	5	..........a	-327.66
	266	53.4	2.01212E-002	-1.81597E-008	0.00000E+000	2.00000E-002	1.02609E-003	5	..........a	-327.66
	267	53.6	1.01010E-002	-1.82205E-008	0.00000E+000	1.00000E-002	1.00039E-003	5	..........a	-327.66
	268	53.8	1.60917E-005	-1.83681E-008	0.00000E+000	7.45058E-009	1.02169E-003	5	..........a	-327.66
	269	54	-9.86631E-003	-1.88580E-008	0.00000E+000	-1.00000E-002	1.00409E-003	5	..........a	-327.66
	270	54.2	-1.98815E-002	-1.90097E-008	0.00000E+000	-2.00000E-002	1.01009E-003	5	..........a	-327.66
	271	54.4	-2.99154E-002	-1.91645E-008	0.00000E+000	-3.00000E-002	1.00639E-003	5	..........a	-327.66
	272	54.6	-3.98939E-002	-1.94143E-008	0.00000E+000	-4.00000E-002	1.01539E-003	5	..........a	-327.66
	273	54.8	-4.98895E-002	-1.98207E-008	0.00000E+000	-5.00000E-002	1.01439E-003	5	..........a	-327.66
	274	55	-5.98663E-002	-2.00718E-008	0.00000E+000	-6.00000E-002	9.98592E-004	5	..........a	-327.66
	275	55.2	-6.99095E-002	-2.05928E-008	0.00000E+000	-7.00000E-002	1.01059E-003	5	..........a	-327.66
	276	55.4	-7.99391E-002	-2.09573E-008	0.00000E+000	-8.00000E-002	1.01369E-003	5	..........a	-327.66
	277	55.6	-8.99069E-002	-2.14945E-008	0.00000E+000	-9.00000E-002	9.97792E-004	5	..........a	-327.66
	278	55.8	-9.99008E-002	-2.20218E-008	0.00000E+000	-1.00000E-001	9.84992E-004	5	..........a	-327.66
	279	56	-1.09975E-001	-2.25387E-008	0.00000E+000	-1.10000E-001	1.01029E-003	5	..........a	-327.66
	280	56.2	-1.19941E-001	-2.31830E-008	0.00000E+000	-1.20000E-001	1.00359E-003	5	..........a	-327.66
	281	56.4	-1.29925E-001	-2.37895E-008	0.00000E+000	-1.30000E-001	1.01379E-003	5	..........a	-327.66
	282	56.6	-1.39907E-001	-2.44231E-008	0.00000E+000	-1.40000E-001	1.00789E-003	5	..........a	-327.66
	283	56.8	-1.49932E-001	-2.51424E-008	0.00000E+000	-1.50000E-001	1.01119E-003	5	..........a	-327.66
	284	57	-1.59951E-001	-2.59695E-008	0.00000E+000	-1.60000E-001	1.01209E-003	5	..........a	-327.66
	285	57.2	-1.69897E-001	-2.70634E-008	0.00000E+000	-1.70000E-001	1.01589E-003	5	..........a	-327.66
	286	57.4	-1.79919E-001	-2.74620E-008	0.00000E+000	-1.80000E-001	9.95392E-004	5	..........a	-327.66
	287	57.6	-1.90080E-001	-2.83065E-008	0.00000E+000	-1.90000E-001	1.02269E-003	5	..........a	-327.66
	288	57.8	-1.99938E-001	-2.94593E-008	0.00000E+000	-2.00000E-001	1.01739E-003	5	..........a	-327.66
	289	58	-2.09895E-001	-3.01762E-008	0.00000E+000	-2.10000E-001	1.00619E-003	5	..........a	-327.66
	290	58.2	-2.19859E-001	-3.10403E-008	0.00000E+000	-2.20000E-001	9.87892E-004	5	..........a	-327.66
	291	58.4	-2.29920E-001	-3.19668E-008	0.00000E+000	-2.30000E-001	1.01989E-003	5	..........a	-327.66
	292	58.6	-2.39945E-001	-3.28260E-008	0.00000E+000	-2.40000E-001	1.01579E-003	5	..........a	-327.66
	293	58.8	-2.49876E-001	-3.38023E-008	0.00000E+000	-2.50000E-001	1.00519E-003	5	..........a	-327.66
	294	59	-2.59806E-001	-3.49737E-008	0.00000E+000	-2.60000E-001	9.94792E-004	5	..........a	-327.66
	295	59.2	-2.69857E-001	-3.57346E-008	0.00000E+000	-2.70000E-001	9.78092E-004	5	..........a	-327.66
	296	59.4	-2.79898E-001	-3.66540E-008	0.00000E+000	-2.80000E-001	1.00969E-003	5	..........a	-327.66
	297	59.6	-2.89942E-001	-3.77874E-008	0.00000E+000	-2.90000E-001	1.01849E-003	5	..........a	-327.66
	298	59.8	-2.99850E-001	-3.86532E-008	0.00000E+000	-3.00000E-001	1.00119E-003	5	..........a	-327.66
	299	60	-3.09875E-001	-3.96417E-008	0.00000E+000	-3.10000E-001	1.01089E-003	5	..........a	-327.66
	300	60.2	-3.19854E-001	-4.06446E-008	0.00000E+000	-3.20000E-001	9.97392E-004	5	..........a	-327.66
	301	60.4	-3.29890E-001	-4.15910E-008	0.00000E+000	-3.30000E-001	9.98192E-004	5	..........a	-327.66
	302	60.6	-3.39823E-001	-4.24731E-008	0.00000E+000	-3.40000E-001	9.93992E-004	5	..........a	-327.66
	303	60.8	-3.49880E-001	-4.34643E-008	0.00000E+000	-3.50000E-001	1.00949E-003	5	..........a	-327.66
	304	61	-3.59856E-001	-4.44064E-008	0.00000E+000	-3.60000E-001	1.01019E-003	5	..........a	-327.66
	305	61.2	-3.69865E-001	-4.52980E-008	0.00000E+000	-3.70000E-001	1.00989E-003	5	..........a	-327.66
	306	61.4	-3.79833E-001	-4.61397E-008	0.00000E+000	-3.80000E-001	1.00999E-003	5	..........a	-327.66
	307	61.6	-3.89916E-001	-4.69572E-008	0.00000E+000	-3.90000E-001	1.01879E-003	5	..........a	-327.66
	308	61.8	-3.99888E-001	-4.78323E-008	0.00000E+000	-4.00000E-001	1.00779E-003	5	..........a	-327.66
	309	62	-4.09894E-001	-4.86467E-008	0.00000E+000	-4.10000E-001	1.00569E-003	5	..........a	-327.66
	310	62.2	-4.19785E-001	-4.94636E-008	0.00000E+000	-4.20000E-001	1.01829E-003	5	..........a	-327.66
	311	62.4	-4.29853E-001	-5.04316E-008	0.00000E+000	-4.30000E-001	9.98992E-004	5	..........a	-327.66
	312	62.6	-4.39858E-001	-5.14219E-008	0.00000E+000	-4.40000E-001	1.02589E-003	5	..........a	-327.66
	313	62.8	-4.49842E-001	-5.20927E-008	0.00000E+000	-4.50000E-001	1.00339E-003	5	..........a	-327.66
	314	63	-4.59820E-001	-5.29421E-008	0.00000E+000	-4.60000E-001	1.00359E-003	5	..........a	-327.66
	315	63.2	-4.69855E-001	-5.38711E-008	0.00000E+000	-4.70000E-001	1.00699E-003	5	..........a	-327.66
	316	63.4	-4.79840E-001	-5.47555E-008	0.00000E+000	-4.80000E-001	9.98292E-004	5	..........a	-327.66
	317	63.6	-4.89862E-001	-5.56978E-008	0.00000E+000	-4.90000E-001	1.00459E-003	5	..........a	-327.66
	318	63.8	-4.99825E-001	-5.65648E-008	0.00000E+000	-5.00000E-001	1.00029E-003	5	..........a	-327.66
	319	64	-5.09872E-001	-5.74780E-008	0.00000E+000	-5.10000E-001	1.01869E-003	5	..........a	-327.66
	320	64.2	-5.19935E-001	-5.83937E-008	0.00000E+000	-5.20000E-001	1.01949E-003	5	..........a	-327.66
	321	64.4	-5.29854E-001	-5.94049E-008	0.00000E+000	-5.30000E-001	1.00259E-003	5	..........a	-327.66
	322	64.6	-5.39793E-001	-6.02764E-008	0.00000E+000	-5.40000E-001	1.00419E-003	5	..........a	-327.66
	323	64.8	-5.49879E-001	-6.12952E-008	0.00000E+000	-5.50000E-001	1.01719E-003	5	..........a	-327.66
	324	65	-5.59892E-001	-6.31838E-008	0.00000E+000	-5.60000E-001	1.00599E-003	5	..........a	-327.66
	325	65.2	-5.69884E-001	-6.44423E-008	0.00000E+000	-5.70000E-001	1.00269E-003	5	..........a	-327.66
	326	65.4	-5.79816E-001	-6.57993E-008	0.00000E+000	-5.80000E-001	1.01539E-003	5	..........a	-327.66
	327	65.6	-5.89892E-001	-6.77656E-008	0.00000E+000	-5.90000E-001	1.00729E-003	5	..........a	-327.66
	328	65.8	-5.99944E-001	-6.98577E-008	0.00000E+000	-6.00000E-001	1.01399E-003	5	..........a	-327.66
	329	66	-5.89912E-001	-5.90587E-008	0.00000E+000	-5.90000E-001	1.01959E-003	5	..........a	-327.66
	330	66.2	-5.79825E-001	-5.18684E-008	0.00000E+000	-5.80000E-001	1.01639E-003	5	..........a	-327.66
	331	66.4	-5.69877E-001	-4.63601E-008	0.00000E+000	-5.70000E-001	1.01269E-003	5	..........a	-327.66
	332	66.6	-5.59900E-001	-4.23459E-008	0.00000E+000	-5.60000E-001	1.03119E-003	5	..........a	-327.66
	333	66.8	-5.49865E-001	-3.90015E-008	0.00000E+000	-5.50000E-001	1.00599E-003	5	..........a	-327.66
	334	67	-5.39805E-001	-3.56087E-008	0.00000E+000	-5.40000E-001	1.00849E-003	5	..........a	-327.66
	335	67.2	-5.29881E-001	-3.32592E-008	0.00000E+000	-5.30000E-001	1.00879E-003	5	..........a	-327.66
	336	67.4	-5.19882E-001	-3.10337E-008	0.00000E+000	-5.20000E-001	1.01139E-003	5	..........a	-327.66
	337	67.6	-5.09863E-001	-2.91309E-008	0.00000E+000	-5.10000E-001	1.00759E-003	5	..........a	-327.66
	338	67.8	-4.99840E-001	-2.73930E-008	0.00000E+000	-5.00000E-001	1.00799E-003	5	..........a	-327.66
	339	68	-4.89875E-001	-2.56990E-008	0.00000E+000	-4.90000E-001	1.00029E-003	5	..........a	-327.66
	340	68.2	-4.79856E-001	-2.40208E-008	0.00000E+000	-4.80000E-001	1.00679E-003	5	..........a	-327.66
	341	68.4	-4.69873E-001	-2.26391E-008	0.00000E+000	-4.70000E-001	1.00969E-003	5	..........a	-327.66
	342	68.6	-4.59835E-001	-2.12871E-008	0.00000E+000	-4.60000E-001	1.00119E-003	5	..........a	-327.66
	343	68.8	-4.49844E-001	-1.99103E-008	0.00000E+000	-4.50000E-001	9.89292E-004	5	..........a	-327.66
	344	69	-4.39879E-001	-1.86706E-008	0.00000E+000	-4.40000E-001	1.02179E-003	5	..........a	-327.66
	345	69.2	-4.29894E-001	-1.74642E-008	0.00000E+000	-4.30000E-001	1.01739E-003	5	..........a	-327.66
	346	69.4	-4.19778E-001	-1.62949E-008	0.00000E+000	-4.20000E-001	9.82992E-004	5	..........a	-327.66
	347	69.6	-4.09901E-001	-1.52310E-008	0.00000E+000	-4.10000E-001	1.02039E-003	5	..........a	-327.66
	348	69.8	-3.99873E-001	-1.40554E-008	0.00000E+000	-4.00000E-001	1.01469E-003	5	..........a	-327.66
	349	70	-3.90006E-001	-1.30098E-008	0.00000E+000	-3.90000E-001	1.00919E-003	5	..........a	-327.66
	350	70.2	-3.79886E-001	-1.18826E-008	0.00000E+000	-3.80000E-001	9.96192E-004	5	..........a	-327.66
	351	70.4	-3.69854E-001	-1.08599E-008	0.00000E+000	-3.70000E-001	1.00519E-003	5	..........a	-327.66
	352	70.6	-3.59892E-001	-9.83677E-009	0.00000E+000	-3.60000E-001	9.90392E-004	5	..........a	-327.66
[...]
	920	184.2	-2.79923E-001	-2.50239E-009	0.00000E+000	-2.80000E-001	1.01589E-003	5	..........a	-327.66
	921	184.4	-2.69893E-001	-1.55176E-009	0.00000E+000	-2.70000E-001	9.95392E-004	5	..........a	-327.66
	922	184.6	-2.59820E-001	-6.25657E-010	0.00000E+000	-2.60000E-001	1.01319E-003	5	..........a	-327.66
	923	184.8	-2.49921E-001	3.25019E-010	0.00000E+000	-2.50000E-001	1.01889E-003	5	..........a	-327.66
	924	185	-2.39971E-001	1.27201E-009	0.00000E+000	-2.40000E-001	1.02899E-003	5	..........a	-327.66
	925	185.2	-2.29952E-001	2.18656E-009	0.00000E+000	-2.30000E-001	1.01639E-003	5	..........a	-327.66
	926	185.4	-2.19891E-001	3.08936E-009	0.00000E+000	-2.20000E-001	1.00739E-003	5	..........a	-327.66
	927	185.6	-2.09961E-001	3.99016E-009	0.00000E+000	-2.10000E-001	1.02549E-003	5	..........a	-327.66
	928	185.8	-1.99997E-001	4.92304E-009	0.00000E+000	-2.00000E-001	1.02029E-003	5	..........a	-327.66
	929	186	-1.90196E-001	5.77446E-009	0.00000E+000	-1.90000E-001	1.00979E-003	5	..........a	-327.66
	930	186.2	-1.79947E-001	6.69051E-009	0.00000E+000	-1.80000E-001	1.01479E-003	5	..........a	-327.66
	931	186.4	-1.69942E-001	7.55862E-009	0.00000E+000	-1.70000E-001	1.01559E-003	5	..........a	-327.66
	932	186.6	-1.60032E-001	8.40687E-009	0.00000E+000	-1.60000E-001	1.01329E-003	5	..........a	-327.66
	933	186.8	-1.49968E-001	9.28708E-009	0.00000E+000	-1.50000E-001	1.01929E-003	5	..........a	-327.66
	934	187	-1.39967E-001	1.01153E-008	0.00000E+000	-1.40000E-001	9.88092E-004	5	..........a	-327.66
	935	187.2	-1.29993E-001	1.09532E-008	0.00000E+000	-1.30000E-001	1.02709E-003	5	..........a	-327.66
	936	187.4	-1.19936E-001	1.18436E-008	0.00000E+000	-1.20000E-001	9.91592E-004	5	..........a	-327.66
	937	187.6	-1.10122E-001	1.26496E-008	0.00000E+000	-1.10000E-001	1.03259E-003	5	..........a	-327.66
	938	187.8	-9.99206E-002	1.35182E-008	0.00000E+000	-1.00000E-001	9.91392E-004	5	..........a	-327.66
	939	188	-8.99128E-002	1.43653E-008	0.00000E+000	-9.00000E-002	1.01869E-003	5	..........a	-327.66
	940	188.2	-7.99971E-002	1.52359E-008	0.00000E+000	-8.00000E-002	1.00639E-003	5	..........a	-327.66
	941	188.4	-6.99309E-002	1.60887E-008	0.00000E+000	-7.00000E-002	1.01989E-003	5	..........a	-327.66
	942	188.6	-5.99069E-002	1.69521E-008	0.00000E+000	-6.00000E-002	1.00359E-003	5	..........a	-327.66
	943	188.8	-4.99155E-002	1.78261E-008	0.00000E+000	-5.00000E-002	9.88192E-004	5	..........a	-327.66
	944	189	-3.99517E-002	1.86890E-008	0.00000E+000	-4.00000E-002	9.94692E-004	5	..........a	-327.66
	945	189.2	-2.99505E-002	1.95705E-008	0.00000E+000	-3.00000E-002	1.01799E-003	5	..........a	-327.66
	946	189.4	-1.99391E-002	2.04043E-008	0.00000E+000	-2.00000E-002	9.99292E-004	5	..........a	-327.66
	947	189.6	-9.91131E-003	2.12772E-008	0.00000E+000	-1.00000E-002	1.00079E-003	5	..........a	-327.66
	948	189.8	8.29165E-006	2.21479E-008	0.00000E+000	7.45058E-009	1.02799E-003	5	..........a	-327.66
	949	190	1.00088E-002	2.29917E-008	0.00000E+000	1.00000E-002	1.00439E-003	5	..........a	-327.66
	950	190.2	2.00828E-002	2.39266E-008	0.00000E+000	2.00000E-002	1.02559E-003	5	..........a	-327.66
	951	190.4	3.00167E-002	2.47746E-008	0.00000E+000	3.00000E-002	1.01599E-003	5	..........a	-327.66
	952	190.6	3.99742E-002	2.56494E-008	0.00000E+000	4.00000E-002	1.01819E-003	5	..........a	-327.66
	953	190.8	5.00199E-002	2.65550E-008	0.00000E+000	5.00000E-002	1.01189E-003	5	..........a	-327.66
	954	191	6.00937E-002	2.74761E-008	0.00000E+000	6.00000E-002	1.02049E-003	5	..........a	-327.66
	955	191.2	6.99607E-002	2.83867E-008	0.00000E+000	7.00000E-002	1.02639E-003	5	..........a	-327.66
	956	191.4	7.99900E-002	2.93153E-008	0.00000E+000	8.00000E-002	1.04289E-003	5	..........a	-327.66
	957	191.6	9.00600E-002	3.02231E-008	0.00000E+000	9.00000E-002	1.00319E-003	5	..........a	-327.66
	958	191.8	1.00085E-001	3.17485E-008	0.00000E+000	1.00000E-001	1.00359E-003	5	..........a	-327.66
	959	192	1.10079E-001	3.28800E-008	0.00000E+000	1.10000E-001	1.00299E-003	5	..........a	-327.66
	960	192.2	1.19945E-001	3.33821E-008	0.00000E+000	1.20000E-001	1.00209E-003	5	..........a	-327.66
	961	192.4	1.30020E-001	3.42651E-008	0.00000E+000	1.30000E-001	1.02319E-003	5	..........a	-327.66
	962	192.6	1.40096E-001	3.52058E-008	0.00000E+000	1.40000E-001	1.00299E-003	5	..........a	-327.66
	963	192.8	1.50052E-001	3.61565E-008	0.00000E+000	1.50000E-001	1.00829E-003	5	..........a	-327.66
	964	193	1.60049E-001	3.72642E-008	0.00000E+000	1.60000E-001	1.03229E-003	5	..........a	-327.66
	965	193.2	1.69999E-001	3.83144E-008	0.00000E+000	1.70000E-001	1.02359E-003	5	..........a	-327.66
	966	193.4	1.80042E-001	3.94176E-008	0.00000E+000	1.80000E-001	1.00259E-003	5	..........a	-327.66
	967	193.6	1.90089E-001	4.05032E-008	0.00000E+000	1.90000E-001	1.00919E-003	5	..........a	-327.66
	968	193.8	2.00001E-001	4.17309E-008	0.00000E+000	2.00000E-001	1.00679E-003	5	..........a	-327.66
	969	194	2.09981E-001	4.27007E-008	0.00000E+000	2.10000E-001	1.02849E-003	5	..........a	-327.66
	970	194.2	2.20085E-001	4.36613E-008	0.00000E+000	2.20000E-001	1.01369E-003	5	..........a	-327.66
	971	194.4	2.29964E-001	4.46164E-008	0.00000E+000	2.30000E-001	1.02229E-003	5	..........a	-327.66
	972	194.6	2.40013E-001	4.54278E-008	0.00000E+000	2.40000E-001	1.02109E-003	5	..........a	-327.66
	973	194.8	2.49946E-001	4.61542E-008	0.00000E+000	2.50000E-001	1.01849E-003	5	..........a	-327.66
	974	195	2.60020E-001	4.70322E-008	0.00000E+000	2.60000E-001	9.98292E-004	5	..........a	-327.66
	975	195.2	2.70051E-001	4.78815E-008	0.00000E+000	2.70000E-001	1.00839E-003	5	..........a	-327.66
	976	195.4	2.79915E-001	4.87445E-008	0.00000E+000	2.80000E-001	1.01349E-003	5	..........a	-327.66
	977	195.6	2.89989E-001	4.96957E-008	0.00000E+000	2.90000E-001	1.00919E-003	5	..........a	-327.66
	978	195.8	3.00048E-001	5.06441E-008	0.00000E+000	3.00000E-001	1.00659E-003	5	..........a	-327.66
	979	196	3.10023E-001	5.16208E-008	0.00000E+000	3.10000E-001	1.03359E-003	5	..........a	-327.66
	980	196.2	3.20021E-001	5.27321E-008	0.00000E+000	3.20000E-001	9.87992E-004	5	..........a	-327.66
	981	196.4	3.29922E-001	5.38231E-008	0.00000E+000	3.30000E-001	1.03499E-003	5	..........a	-327.66
	982	196.6	3.40027E-001	5.50379E-008	0.00000E+000	3.40000E-001	9.95892E-004	5	..........a	-327.66
	983	196.8	3.50015E-001	5.62353E-008	0.00000E+000	3.50000E-001	1.01389E-003	5	..........a	-327.66
	984	197	3.59991E-001	5.75840E-008	0.00000E+000	3.60000E-001	1.02859E-003	5	..........a	-327.66
	985	197.2	3.69978E-001	5.90216E-008	0.00000E+000	3.70000E-001	1.02299E-003	5	..........a	-327.66
	986	197.4	3.80032E-001	6.05751E-008	0.00000E+000	3.80000E-001	1.00269E-003	5	..........a	-327.66
	987	197.6	3.90026E-001	6.22391E-008	0.00000E+000	3.90000E-001	1.02869E-003	5	..........a	-327.66
	988	197.8	3.99952E-001	6.39396E-008	0.00000E+000	4.00000E-001	1.01919E-003	5	..........a	-327.66
	989	198	4.09977E-001	6.57652E-008	0.00000E+000	4.10000E-001	9.96292E-004	5	..........a	-327.66
	990	198.2	4.19991E-001	6.76475E-008	0.00000E+000	4.20000E-001	1.01859E-003	5	..........a	-327.66
	991	198.4	4.29963E-001	6.95649E-008	0.00000E+000	4.30000E-001	1.01929E-003	5	..........a	-327.66
	992	198.6	4.39948E-001	7.14830E-008	0.00000E+000	4.40000E-001	1.03879E-003	5	..........a	-327.66
	993	198.8	4.49820E-001	7.34549E-008	0.00000E+000	4.50000E-001	1.00519E-003	5	..........a	-327.66
	994	199	4.59965E-001	7.54739E-008	0.00000E+000	4.60000E-001	1.02549E-003	5	..........a	-327.66
	995	199.2	4.70017E-001	7.75309E-008	0.00000E+000	4.70000E-001	1.03909E-003	5	..........a	-327.66
	996	199.4	4.79902E-001	7.96063E-008	0.00000E+000	4.80000E-001	1.01459E-003	5	..........a	-327.66
	997	199.6	4.89927E-001	8.17520E-008	0.00000E+000	4.90000E-001	1.01209E-003	5	..........a	-327.66
	998	199.8	5.00008E-001	8.39630E-008	0.00000E+000	5.00000E-001	1.01029E-003	5	..........a	-327.66
	999	200	5.09970E-001	8.61433E-008	0.00000E+000	5.10000E-001	1.01669E-003	5	..........a	-327.66
	1000	200.2	5.19946E-001	8.82956E-008	0.00000E+000	5.20000E-001	9.95592E-004	5	..........a	-327.66
	1001	200.4	5.29911E-001	9.03749E-008	0.00000E+000	5.30000E-001	1.01039E-003	5	..........a	-327.66
	1002	200.6	5.39945E-001	9.23967E-008	0.00000E+000	5.40000E-001	9.96892E-004	5	..........a	-327.66
	1003	200.8	5.49999E-001	9.43612E-008	0.00000E+000	5.50000E-001	1.01849E-003	5	..........a	-327.66
	1004	201	5.59927E-001	9.62537E-008	0.00000E+000	5.60000E-001	9.98692E-004	5	..........a	-327.66
	1005	201.2	5.69939E-001	9.80784E-008	0.00000E+000	5.70000E-001	1.01119E-003	5	..........a	-327.66
	1006	201.4	5.79976E-001	9.98778E-008	0.00000E+000	5.80000E-001	9.97992E-004	5	..........a	-327.66
	1007	201.6	5.89994E-001	1.01638E-007	0.00000E+000	5.90000E-001	1.00559E-003	5	..........a	-327.66
	1008	201.8	5.99939E-001	1.03461E-007	0.00000E+000	6.00000E-001	9.94092E-004	5	..........a	-327.66
	1009	202	6.09915E-001	1.05358E-007	0.00000E+000	6.10000E-001	1.01739E-003	5	..........a	-327.66
	1010	202.2	6.19899E-001	1.07233E-007	0.00000E+000	6.20000E-001	1.02219E-003	5	..........a	-327.66
	1011	202.4	6.30011E-001	1.09266E-007	0.00000E+000	6.30000E-001	1.02489E-003	5	..........a	-327.66
	1012	202.6	6.39873E-001	1.11413E-007	0.00000E+000	6.40000E-001	1.02209E-003	5	..........a	-327.66
	1013	202.8	6.49927E-001	1.13701E-007	0.00000E+000	6.50000E-001	1.02489E-003	5	..........a	-327.66
	1014	203	6.59899E-001	1.16073E-007	0.00000E+000	6.60000E-001	1.00349E-003	5	..........a	-327.66
	1015	203.2	6.69963E-001	1.18591E-007	0.00000E+000	6.70000E-001	1.02799E-003	5	..........a	-327.66
	1016	203.4	6.79923E-001	1.21291E-007	0.00000E+000	6.80000E-001	1.01039E-003	5	..........a	-327.66
	1017	203.6	6.89891E-001	1.24088E-007	0.00000E+000	6.90000E-001	1.04109E-003	5	..........a	-327.66
	1018	203.8	6.99881E-001	1.27020E-007	0.00000E+000	7.00000E-001	1.01629E-003	5	..........a	-327.66
	1019	204	7.09958E-001	1.30113E-007	0.00000E+000	7.10000E-001	1.02209E-003	5	..........a	-327.66
	1020	204.2	7.19894E-001	1.33451E-007	0.00000E+000	7.20000E-001	1.01809E-003	5	..........a	-327.66
	1021	204.4	7.29896E-001	1.37037E-007	0.00000E+000	7.30000E-001	1.03519E-003	5	..........a	-327.66
	1022	204.6	7.39870E-001	1.40919E-007	0.00000E+000	7.40000E-001	1.00819E-003	5	..........a	-327.66
	1023	204.8	7.49965E-001	1.45173E-007	0.00000E+000	7.50000E-001	1.00909E-003	5	..........a	-327.66
	1024	205	7.59883E-001	1.49682E-007	0.00000E+000	7.60000E-001	1.01629E-003	5	..........a	-327.66
	1025	205.2	7.69893E-001	1.54474E-007	0.00000E+000	7.70000E-001	1.01719E-003	5	..........a	-327.66
	1026	205.4	7.79859E-001	1.59605E-007	0.00000E+000	7.80000E-001	1.01139E-003	5	..........a	-327.66
	1027	205.6	7.89955E-001	1.65146E-007	0.00000E+000	7.90000E-001	1.00209E-003	5	..........a	-327.66
	1028	205.8	7.99860E-001	1.71007E-007	0.00000E+000	8.00000E-001	1.01839E-003	5	..........a	-327.66
CURVE5	TABLE
	Pt	T	Vf	Im	Vu	Sig	Ach	IERange	Over	Temp
	#	s	V vs. Ref.	A	V	V	V	#	bits	deg C
	1029	206	7.89938E-001	1.35674E-007	0.00000E+000	7.90000E-001	1.02319E-003	5	..........a	-327.66
	1030	206.2	7.79901E-001	1.13577E-007	0.00000E+000	7.80000E-001	9.93792E-004	5	..........a	-327.66
	1031	206.4	7.69933E-001	9.81292E-008	0.00000E+000	7.70000E-001	1.00379E-003	5	..........a	-327.66
	1032	206.6	7.59910E-001	8.65930E-008	0.00000E+000	7.60000E-001	1.00809E-003	5	..........a	-327.66
	1033	206.8	7.49984E-001	7.75717E-008	0.00000E+000	7.50000E-001	1.03289E-003	5	..........a	-327.66
	1034	207	7.39912E-001	7.03910E-008	0.00000E+000	7.40000E-001	1.01019E-003	5	..........a	-327.66
	1035	207.2	7.29885E-001	6.44344E-008	0.00000E+000	7.30000E-001	1.02829E-003	5	..........a	-327.66
	1036	207.4	7.19886E-001	5.93816E-008	0.00000E+000	7.20000E-001	1.01609E-003	5	..........a	-327.66
	1037	207.6	7.09973E-001	5.50279E-008	0.00000E+000	7.10000E-001	1.03549E-003	5	..........a	-327.66
	1038	207.8	6.99920E-001	5.12042E-008	0.00000E+000	7.00000E-001	1.00949E-003	5	..........a	-327.66
	1039	208	6.89916E-001	4.77762E-008	0.00000E+000	6.90000E-001	1.02609E-003	5	..........a	-327.66
	1040	208.2	6.79958E-001	4.46599E-008	0.00000E+000	6.80000E-001	9.97892E-004	5	..........a	-327.66
	1041	208.4	6.69974E-001	4.17888E-008	0.00000E+000	6.70000E-001	1.01449E-003	5	..........a	-327.66
	1042	208.6	6.59949E-001	3.90983E-008	0.00000E+000	6.60000E-001	9.90292E-004	5	..........a	-327.66
	1043	208.8	6.49967E-001	3.66352E-008	0.00000E+000	6.50000E-001	1.02229E-003	5	..........a	-327.66
	1044	209	6.39894E-001	3.42496E-008	0.00000E+000	6.40000E-001	1.02309E-003	5	..........a	-327.66
	1045	209.2	6.30047E-001	3.20331E-008	0.00000E+000	6.30000E-001	1.01879E-003	5	..........a	-327.66
	1046	209.4	6.19950E-001	2.99239E-008	0.00000E+000	6.20000E-001	1.02269E-003	5	..........a	-327.66
	1047	209.6	6.09950E-001	2.78840E-008	0.00000E+000	6.10000E-001	1.01089E-003	5	..........a	-327.66
	1048	209.8	5.99988E-001	2.60435E-008	0.00000E+000	6.00000E-001	1.01369E-003	5	..........a	-327.66
	1049	210	5.90008E-001	2.43746E-008	0.00000E+000	5.90000E-001	9.98892E-004	5	..........a	-327.66
	1050	210.2	5.80018E-001	2.28147E-008	0.00000E+000	5.80000E-001	9.97492E-004	5	..........a	-327.66
	1051	210.4	5.69980E-001	2.13803E-008	0.00000E+000	5.70000E-001	1.01959E-003	5	..........a	-327.66
	1052	210.6	5.59963E-001	1.99449E-008	0.00000E+000	5.60000E-001	1.02619E-003	5	..........a	-327.66
	1053	210.8	5.50043E-001	1.85140E-008	0.00000E+000	5.50000E-001	1.01049E-003	5	..........a	-327.66
	1054	211	5.40019E-001	1.70612E-008	0.00000E+000	5.40000E-001	1.01239E-003	5	..........a	-327.66
	1055	211.2	5.29963E-001	1.56668E-008	0.00000E+000	5.30000E-001	1.02979E-003	5	..........a	-327.66
	1056	211.4	5.19992E-001	1.43895E-008	0.00000E+000	5.20000E-001	1.00679E-003	5	..........a	-327.66
	1057	211.6	5.09954E-001	1.32025E-008	0.00000E+000	5.10000E-001	1.03139E-003	5	..........a	-327.66
	1058	211.8	5.00091E-001	1.22306E-008	0.00000E+000	5.00000E-001	1.01059E-003	5	..........a	-327.66
	1059	212	4.89968E-001	1.13232E-008	0.00000E+000	4.90000E-001	1.02699E-003	5	..........a	-327.66
	1060	212.2	4.79934E-001	1.04402E-008	0.00000E+000	4.80000E-001	1.04049E-003	5	..........a	-327.66
	1061	212.4	4.70032E-001	9.45116E-009	0.00000E+000	4.70000E-001	1.02309E-003	5	..........a	-327.66
	1062	212.6	4.60011E-001	8.41107E-009	0.00000E+000	4.60000E-001	1.01449E-003	5	..........a	-327.66
	1063	212.8	4.49840E-001	7.29661E-009	0.00000E+000	4.50000E-001	1.01489E-003	5	..........a	-327.66
	1064	213	4.39960E-001	6.21693E-009	0.00000E+000	4.40000E-001	1.02899E-003	5	..........a	-327.66
	1065	213.2	4.30000E-001	5.05854E-009	0.00000E+000	4.30000E-001	1.01379E-003	5	..........a	-327.66
	1066	213.4	4.20017E-001	3.91233E-009	0.00000E+000	4.20000E-001	1.00419E-003	5	..........a	-327.66
	1067	213.6	4.09948E-001	2.71818E-009	0.00000E+000	4.10000E-001	1.03569E-003	5	..........a	-327.66
	1068	213.8	4.00001E-001	1.55537E-009	0.00000E+000	4.00000E-001	1.03169E-003	5	..........a	-327.66
	1069	214	3.90032E-001	3.13648E-010	0.00000E+000	3.90000E-001	1.02129E-003	5	..........a	-327.66
	1070	214.2	3.80084E-001	-9.68370E-010	0.00000E+000	3.80000E-001	9.80892E-004	5	..........a	-327.66
	1071	214.4	3.70036E-001	-2.27440E-009	0.00000E+000	3.70000E-001	1.02899E-003	5	..........a	-327.66
	1072	214.6	3.60057E-001	-3.60685E-009	0.00000E+000	3.60000E-001	1.01729E-003	5	..........a	-327.66
	1073	214.8	3.50068E-001	-5.02857E-009	0.00000E+000	3.50000E-001	1.01499E-003	5	..........a	-327.66
	1074	215	3.40084E-001	-6.44764E-009	0.00000E+000	3.40000E-001	1.00379E-003	5	..........a	-327.66
	1075	215.2	3.30043E-001	-7.91407E-009	0.00000E+000	3.30000E-001	1.00009E-003	5	..........a	-327.66
	1076	215.4	3.20065E-001	-9.51170E-009	0.00000E+000	3.20000E-001	9.95092E-004	5	..........a	-327.66
	1077	215.6	3.10051E-001	-1.12221E-008	0.00000E+000	3.10000E-001	1.01979E-003	5	..........a	-327.66
	1078	215.8	3.00084E-001	-1.29771E-008	0.00000E+000	3.00000E-001	1.00529E-003	5	..........a	-327.66
	1079	216	2.90060E-001	-1.49207E-008	0.00000E+000	2.90000E-001	1.02069E-003	5	..........a	-327.66
	1080	216.2	2.79973E-001	-1.69542E-008	0.00000E+000	2.80000E-001	1.03119E-003	5	..........a	-327.66
	1081	216.4	2.70085E-001	-1.91319E-008	0.00000E+000	2.70000E-001	1.01989E-003	5	..........a	-327.66
	1082	216.6	2.60056E-001	-2.15598E-008	0.00000E+000	2.60000E-001	1.01949E-003	5	..........a	-327.66
	1083	216.8	2.50029E-001	-2.40525E-008	0.00000E+000	2.50000E-001	1.02959E-003	5	..........a	-327.66
	1084	217	2.40060E-001	-2.66530E-008	0.00000E+000	2.40000E-001	1.02129E-003	5	..........a	-327.66
	1085	217.2	2.30036E-001	-2.93206E-008	0.00000E+000	2.30000E-001	1.03599E-003	5	..........a	-327.66
	1086	217.4	2.20149E-001	-3.20654E-008	0.00000E+000	2.20000E-001	1.01609E-003	5	..........a	-327.66
	1087	217.6	2.10062E-001	-3.46219E-008	0.00000E+000	2.10000E-001	1.02709E-003	5	..........a	-327.66
	1088	217.8	2.00062E-001	-3.69335E-008	0.00000E+000	2.00000E-001	1.02929E-003	5	..........a	-327.66
	1089	218	1.90119E-001	-3.88000E-008	0.00000E+000	1.90000E-001	1.01059E-003	5	..........a	-327.66
	1090	218.2	1.80122E-001	-4.00766E-008	0.00000E+000	1.80000E-001	9.92092E-004	5	..........a	-327.66
	1091	218.4	1.70093E-001	-4.06716E-008	0.00000E+000	1.70000E-001	1.00029E-003	5	..........a	-327.66
	1092	218.6	1.60091E-001	-4.05060E-008	0.00000E+000	1.60000E-001	1.01449E-003	5	..........a	-327.66
	1093	218.8	1.50097E-001	-3.96838E-008	0.00000E+000	1.50000E-001	1.01679E-003	5	..........a	-327.66
	1094	219	1.40137E-001	-3.82343E-008	0.00000E+000	1.40000E-001	1.00529E-003	5	..........a	-327.66
	1095	219.2	1.30080E-001	-3.62375E-008	0.00000E+000	1.30000E-001	1.02319E-003	5	..........a	-327.66
	1096	219.4	1.20066E-001	-3.39154E-008	0.00000E+000	1.20000E-001	1.01829E-003	5	..........a	-327.66
	1097	219.6	1.10112E-001	-3.14148E-008	0.00000E+000	1.10000E-001	1.01339E-003	5	..........a	-327.66
	1098	219.8	1.00131E-001	-2.88516E-008	0.00000E+000	1.00000E-001	1.01649E-003	5	..........a	-327.66
	1099	220	9.01046E-002	-2.64021E-008	0.00000E+000	9.00000E-002	1.01509E-003	5	..........a	-327.66
	1100	220.2	8.00697E-002	-2.41904E-008	0.00000E+000	8.00000E-002	1.01269E-003	5	..........a	-327.66
	1101	220.4	7.00193E-002	-2.24241E-008	0.00000E+000	7.00000E-002	1.02959E-003	5	..........a	-327.66
	1102	220.6	6.01184E-002	-2.10835E-008	0.00000E+000	6.00000E-002	1.00079E-003	5	..........a	-327.66
	1103	220.8	5.00525E-002	-2.00907E-008	0.00000E+000	5.00000E-002	9.93892E-004	5	..........a	-327.66
	1104	221	4.00241E-002	-1.94379E-008	0.00000E+000	4.00000E-002	1.01059E-003	5	..........a	-327.66
	1105	221.2	3.00863E-002	-1.89978E-008	0.00000E+000	3.00000E-002	1.01689E-003	5	..........a	-327.66
	1106	221.4	2.01664E-002	-1.87386E-008	0.00000E+000	2.00000E-002	1.01189E-003	5	..........a	-327.66
	1107	221.6	1.01146E-002	-1.86973E-008	0.00000E+000	1.00000E-002	1.00249E-003	5	..........a	-327.66
	1108	221.8	5.52916E-005	-1.91482E-008	0.00000E+000	7.45058E-009	1.00529E-003	5	..........a	-327.66
	1109	222	-9.86471E-003	-1.92066E-008	0.00000E+000	-1.00000E-002	1.01079E-003	5	..........a	-327.66
	1110	222.2	-1.99030E-002	-1.96933E-008	0.00000E+000	-2.00000E-002	9.98592E-004	5	..........a	-327.66
	1111	222.4	-2.99244E-002	-1.96311E-008	0.00000E+000	-3.00000E-002	1.00819E-003	5	..........a	-327.66
	1112	222.6	-3.99053E-002	-1.97049E-008	0.00000E+000	-4.00000E-002	1.01529E-003	5	..........a	-327.66
	1113	222.8	-4.98930E-002	-2.04449E-008	0.00000E+000	-5.00000E-002	1.02479E-003	5	..........a	-327.66
	1114	223	-5.98979E-002	-2.06762E-008	0.00000E+000	-6.00000E-002	9.98492E-004	5	..........a	-327.66
	1115	223.2	-6.99165E-002	-2.09145E-008	0.00000E+000	-7.00000E-002	9.91692E-004	5	..........a	-327.66
	1116	223.4	-7.99220E-002	-2.16450E-008	0.00000E+000	-8.00000E-002	1.01579E-003	5	..........a	-327.66
	1117	223.6	-8.98950E-002	-2.23573E-008	0.00000E+000	-9.00000E-002	1.01049E-003	5	..........a	-327.66
	1118	223.8	-9.98953E-002	-2.33949E-008	0.00000E+000	-1.00000E-001	9.98392E-004	5	..........a	-327.66
	1119	224	-1.09941E-001	-2.43421E-008	0.00000E+000	-1.10000E-001	1.00519E-003	5	..........a	-327.66
	1120	224.2	-1.19906E-001	-2.46109E-008	0.00000E+000	-1.20000E-001	1.02399E-003	5	..........a	-327.66