File: example_project/raw_outputs/20240509_ZZQ_GM0016_HL03_E11_CV50.DTA
EXPLAIN
TAG	CV
TITLE	LABEL	Cyclic Voltammetry	Test &Identifier
DATE	LABEL	5/9/2024	Date
TIME	LABEL	14:43:11	Time
NOTES	NOTES	1	&Notes...

PSTAT	PSTAT	REF600P-43058	Potentiostat
VINIT	POTEN	0.00000E+000	T	Initial &E (V)
VLIMIT1	POTEN	8.00000E-001	F	Scan Limit &1 (V)
VLIMIT2	POTEN	-6.00000E-001	F	Scan Limit &2 (V)
VFINAL	POTEN	0.00000E+000	T	Final &E (V)
SCANRATE	QUANT	4.99999E+001	&Scan Rate (mV/s)
STEPSIZE	QUANT	1.00000E+001	St&ep Size (mV)
CYCLES	IQUANT	4	C&ycles (#)
IMODE	SELECTOR	0	I/E Range &Mode
IRANGE	QUANT	1.00000E-005	&Max Current (mA)
AREA	QUANT	1.00000E+000	Electrode &Area (cm^2)
ELECTRODETYPE	SELECTOR	0	Electrode Type
STRIPPING	TOGGLE	F	Used for Stripping
POLARITY	TOGGLE	F	Signal Polarity
CONDIT	TWOPARAM	F	1.50000E+001	0.00000E+000	Conditionin&g	Time(s)	E(V)
DELAY	TWOPARAM	T	1.00000E+001	0.00000E+000	Init. De&lay	Time(s)	Stab.(mV/s)
EQDELAY	QUANT	1.00000E+001	Equil. &Time (s)
IRCOMP	SELECTOR	0	IRCom&p
PFCOR	QUANT	5.00000E+001	PF Corr. (ohm)
SAMPLINGMODE	SELECTOR	1	Sampling &Mode
OCVCURVE	TABLE	39
	Pt	T	Vf	Vm	Ach	Over	Temp
	#	s	V vs. Ref.	V	V	bits	deg C
	0	0.258333	-1.67884E-001	-1.67884E-001	1.96926E-004	..........a	-327.66
	1	0.516667	-1.67890E-001	-1.68208E-001	2.07326E-004	..........a	-327.66
	2	0.775	-1.67929E-001	-1.68530E-001	2.02659E-004	..........a	-327.66
	3	1.03333	-1.68038E-001	-1.68858E-001	1.93926E-004	..........a	-327.66
	4	1.29167	-1.68238E-001	-1.69186E-001	1.99792E-004	..........a	-327.66
	5	1.55	-1.68511E-001	-1.69506E-001	1.98726E-004	..........a	-327.66
	6	1.80833	-1.68824E-001	-1.69827E-001	1.98659E-004	..........a	-327.66
	7	2.06667	-1.69149E-001	-1.70111E-001	2.05059E-004	..........a	-327.66
	8	2.325	-1.69472E-001	-1.70412E-001	2.01792E-004	..........a	-327.66
	9	2.58333	-1.69785E-001	-1.70653E-001	1.93459E-004	..........a	-327.66
	10	2.84167	-1.70083E-001	-1.70911E-001	1.98126E-004	..........a	-327.66
	11	3.1	-1.70365E-001	-1.71166E-001	1.93459E-004	..........a	-327.66
	12	3.35833	-1.70633E-001	-1.71445E-001	2.02792E-004	..........a	-327.66
	13	3.61667	-1.70895E-001	-1.71716E-001	2.01126E-004	..........a	-327.66
	14	3.875	-1.71158E-001	-1.72007E-001	1.96326E-004	..........a	-327.66
	15	4.13333	-1.71427E-001	-1.72287E-001	2.09192E-004	..........a	-327.66
	16	4.39167	-1.71702E-001	-1.72569E-001	2.14259E-004	..........a	-327.66
	17	4.65	-1.71982E-001	-1.72864E-001	2.06392E-004	..........a	-327.66
	18	4.90833	-1.72266E-001	-1.73139E-001	2.01992E-004	..........a	-327.66
	19	5.16667	-1.72550E-001	-1.73419E-001	1.95992E-004	..........a	-327.66
	20	5.425	-1.72834E-001	-1.73711E-001	1.96726E-004	..........a	-327.66
	21	5.68333	-1.73118E-001	-1.74012E-001	1.98526E-004	..........a	-327.66
	22	5.94167	-1.73404E-001	-1.74302E-001	2.01059E-004	..........a	-327.66
	23	6.2	-1.73693E-001	-1.74587E-001	2.09326E-004	..........a	-327.66
	24	6.45833	-1.73985E-001	-1.74877E-001	2.09259E-004	..........a	-327.66
	25	6.71667	-1.74276E-001	-1.75166E-001	2.13392E-004	..........a	-327.66
	26	6.975	-1.74565E-001	-1.75443E-001	1.97326E-004	..........a	-327.66
	27	7.23333	-1.74853E-001	-1.75695E-001	1.98126E-004	..........a	-327.66
	28	7.49167	-1.75136E-001	-1.75990E-001	1.94792E-004	..........a	-327.66
	29	7.75	-1.75414E-001	-1.76276E-001	2.06059E-004	..........a	-327.66
	30	8.00833	-1.75690E-001	-1.76556E-001	1.98459E-004	..........a	-327.66
	31	8.26667	-1.75970E-001	-1.76845E-001	1.98326E-004	..........a	-327.66
	32	8.525	-1.76252E-001	-1.77131E-001	2.10592E-004	..........a	-327.66
	33	8.78333	-1.76536E-001	-1.77409E-001	1.95659E-004	..........a	-327.66
	34	9.04167	-1.76821E-001	-1.77692E-001	2.00992E-004	..........a	-327.66
	35	9.3	-1.77105E-001	-1.77968E-001	2.06592E-004	..........a	-327.66
	36	9.5583	-1.77387E-001	-1.78235E-001	1.98259E-004	..........a	-327.66
	37	9.8167	-1.77666E-001	-1.78498E-001	2.04126E-004	..........a	-327.66
	38	10.075	-1.77941E-001	-1.78765E-001	1.98259E-004	..........a	-327.66
EOC	QUANT	-0.177941	Open Circuit (V)
PSTATMODEL	IQUANT	7	Pstat Model
PSTATSECTION	LABEL	REF600P-43058	Pstat Section
PSTATSERIALNO	LABEL	43058	Pstat Serial Number
CTRLMODE	IQUANT	1	Control Mode
ELECTROMETER	IQUANT	0	RE=0 or CS=1
IESTAB	IQUANT	2	I/E Stability
CASPEED	IQUANT	4	Control Amp Speed
CONVENTION	IQUANT	1	Current Convention
ICHRANGE	IQUANT	2	Ich Range
ICHRANGEMODE	TOGGLE	F	Ich Auto Range
ICHOFFSETENABLE	TOGGLE	F	Ich Offset Enable
ICHOFFSET	QUANT	0	Ich Offset (V)
ICHFILTER	IQUANT	2	Ich Filter
VCHRANGE	IQUANT	2	Vch Range
VCHRANGEMODE	TOGGLE	F	Vch Auto Range
VCHOFFSETENABLE	TOGGLE	F	Vch Offset Enable
VCHOFFSET	QUANT	0	Vch Offset (V)
VCHFILTER	IQUANT	2	Vch Filter
ACHRANGE	IQUANT	2	Ach Range
ACHOFFSETENABLE	TOGGLE	F	Ach Offset Enable
ACHOFFSET	QUANT	0	Ach Offset (V)
ACHFILTER	IQUANT	1	Ach Filter
IERANGELOWERLIMIT	IQUANT	1	I/E Range Lower Limit
IERANGEMODE	TOGGLE	T	I/E AutoRange
IERANGE	IQUANT	4	I/E Range
POSFEEDENABLE	TOGGLE	F	Positive Feedback IR Comp
POSFEEDRESISTANCE	QUANT	0	Positive Feedback Resistance (ohm)
ACHSELECT	IQUANT	4	Ach Select
SENSECABLEID	IQUANT	7	Sense Cable ID
PWRCABLEID	IQUANT	7	Power Cable ID
DCCALDATE	LABEL	3/22/2024	DC Calibration Date
ACCALDATE	LABEL	3/22/2024	AC Calibration Date
THERMOSELECT	IQUANT	1	Thermo Select
FRAMEWORKVERSION	LABEL	7.8.4	Framework Version
INSTRUMENTVERSION	LABEL	4.42	Instrument Version
CURVE1	TABLE
	Pt	T	Vf	Im	Vu	Sig	Ach	IERange	Over	Temp
	#	s	V vs. Ref.	A	V	V	V	#	bits	deg C
	0	0.2	-1.77905E-001	6.34781E-009	0.00000E+000	-1.77950E-001	9.62992E-004	5	..........a	-327.66
	1	0.4	-1.67904E-001	2.78208E-008	0.00000E+000	-1.67950E-001	9.58392E-004	5	..........a	-327.66
	2	0.6	-1.57934E-001	4.20586E-008	0.00000E+000	-1.57950E-001	9.55292E-004	5	..........a	-327.66
	3	0.8	-1.47919E-001	5.34825E-008	0.00000E+000	-1.47950E-001	9.44592E-004	5	..........a	-327.66
	4	1	-1.37918E-001	6.30608E-008	0.00000E+000	-1.37950E-001	9.49492E-004	5	..........a	-327.66
	5	1.2	-1.27984E-001	7.16149E-008	0.00000E+000	-1.27950E-001	9.66892E-004	5	..........a	-327.66
	6	1.4	-1.17932E-001	7.93532E-008	0.00000E+000	-1.17950E-001	9.60992E-004	5	..........a	-327.66
	7	1.6	-1.07911E-001	8.63707E-008	0.00000E+000	-1.07950E-001	9.60092E-004	5	..........a	-327.66
	8	1.8	-9.79367E-002	9.29873E-008	0.00000E+000	-9.79500E-002	9.64892E-004	5	..........a	-327.66
	9	2	-8.80069E-002	9.93080E-008	0.00000E+000	-8.79500E-002	9.51192E-004	5	..........a	-327.66
	10	2.2	-7.79761E-002	1.05610E-007	0.00000E+000	-7.79500E-002	9.61192E-004	5	..........a	-327.66
	11	2.4	-6.79201E-002	1.11728E-007	0.00000E+000	-6.79500E-002	9.63292E-004	5	..........a	-327.66
	12	2.6	-5.79360E-002	1.17753E-007	0.00000E+000	-5.79500E-002	9.57492E-004	5	..........a	-327.66
	13	2.8	-4.79884E-002	1.23571E-007	0.00000E+000	-4.79500E-002	9.65692E-004	5	..........a	-327.66
	14	3	-3.79438E-002	1.29382E-007	0.00000E+000	-3.79500E-002	9.63092E-004	5	..........a	-327.66
	15	3.2	-2.79501E-002	1.35085E-007	0.00000E+000	-2.79500E-002	9.60192E-004	5	..........a	-327.66
	16	3.4	-1.79418E-002	1.40757E-007	0.00000E+000	-1.79500E-002	9.56992E-004	5	..........a	-327.66
	17	3.6	-8.01271E-003	1.46482E-007	0.00000E+000	-7.94999E-003	9.53492E-004	5	..........a	-327.66
	18	3.8	2.02754E-003	1.52543E-007	0.00000E+000	2.05000E-003	9.68792E-004	5	..........a	-327.66
	19	4	1.20640E-002	1.57902E-007	0.00000E+000	1.20500E-002	9.57492E-004	5	..........a	-327.66
	20	4.2	2.19692E-002	1.63567E-007	0.00000E+000	2.20500E-002	9.70492E-004	5	..........a	-327.66
	21	4.4	3.19907E-002	1.69416E-007	0.00000E+000	3.20500E-002	9.86792E-004	5	..........a	-327.66
	22	4.6	4.20194E-002	1.75567E-007	0.00000E+000	4.20500E-002	9.57192E-004	5	..........a	-327.66
	23	4.8	5.20226E-002	1.81715E-007	0.00000E+000	5.20500E-002	9.49792E-004	5	..........a	-327.66
	24	5	6.20472E-002	1.87930E-007	0.00000E+000	6.20500E-002	9.68592E-004	5	..........a	-327.66
	25	5.2	7.19681E-002	1.94411E-007	0.00000E+000	7.20500E-002	9.60992E-004	5	..........a	-327.66
	26	5.4	8.19835E-002	2.01470E-007	0.00000E+000	8.20500E-002	9.76192E-004	5	..........a	-327.66
	27	5.6	9.19081E-002	2.08574E-007	0.00000E+000	9.20500E-002	9.61592E-004	5	..........a	-327.66
	28	5.8	1.01983E-001	2.16194E-007	0.00000E+000	1.02050E-001	9.70592E-004	5	..........a	-327.66
	29	6	1.12006E-001	2.24229E-007	0.00000E+000	1.12050E-001	9.64092E-004	5	..........a	-327.66
	30	6.2	1.21965E-001	2.32346E-007	0.00000E+000	1.22050E-001	9.65292E-004	5	..........a	-327.66
	31	6.4	1.32015E-001	2.40699E-007	0.00000E+000	1.32050E-001	9.50892E-004	5	..........a	-327.66
	32	6.6	1.42024E-001	2.49269E-007	0.00000E+000	1.42050E-001	9.61292E-004	5	..........a	-327.66
	33	6.8	1.51954E-001	2.57978E-007	0.00000E+000	1.52050E-001	9.67292E-004	5	..........a	-327.66
	34	7	1.61972E-001	2.67870E-007	0.00000E+000	1.62050E-001	9.73292E-004	5	..........a	-327.66
	35	7.2	1.71993E-001	2.77319E-007	0.00000E+000	1.72050E-001	9.59792E-004	5	..........a	-327.66
	36	7.4	1.81973E-001	2.87175E-007	0.00000E+000	1.82050E-001	9.79492E-004	5	..........a	-327.66
	37	7.6	1.91960E-001	2.97448E-007	0.00000E+000	1.92050E-001	9.63092E-004	5	..........a	-327.66
	38	7.8	2.01941E-001	3.07684E-007	0.00000E+000	2.02050E-001	9.78092E-004	5	..........a	-327.66
	39	8	2.11926E-001	3.17206E-007	0.00000E+000	2.12050E-001	9.62592E-004	5	..........a	-327.66
	40	8.2	2.21938E-001	3.25764E-007	0.00000E+000	2.22050E-001	9.70492E-004	5	..........a	-327.66
	41	8.4	2.31874E-001	3.33035E-007	0.00000E+000	2.32050E-001	9.75392E-004	5	..........a	-327.66
	42	8.6	2.41910E-001	3.40487E-007	0.00000E+000	2.42050E-001	9.69892E-004	5	..........a	-327.66
	43	8.8	2.51899E-001	3.48398E-007	0.00000E+000	2.52050E-001	9.63592E-004	5	..........a	-327.66
	44	9	2.61949E-001	3.54811E-007	0.00000E+000	2.62050E-001	9.71792E-004	5	..........a	-327.66
	45	9.2	2.71866E-001	3.62393E-007	0.00000E+000	2.72050E-001	9.58892E-004	5	..........a	-327.66
	46	9.4	2.81843E-001	3.70251E-007	0.00000E+000	2.82050E-001	9.63592E-004	5	..........a	-327.66
	47	9.6	2.91868E-001	3.78546E-007	0.00000E+000	2.92050E-001	9.57592E-004	5	..........a	-327.66
	48	9.8	3.01951E-001	3.84277E-007	0.00000E+000	3.02050E-001	9.52392E-004	5	..........a	-327.66
	49	10	3.11864E-001	3.90471E-007	0.00000E+000	3.12050E-001	9.66692E-004	5	..........a	-327.66
	50	10.2	3.21835E-001	3.97143E-007	0.00000E+000	3.22050E-001	9.63392E-004	5	..........a	-327.66
	51	10.4	3.31865E-001	4.04533E-007	0.00000E+000	3.32050E-001	9.54792E-004	5	..........a	-327.66
	52	10.6	3.41930E-001	4.13178E-007	0.00000E+000	3.42050E-001	9.51092E-004	5	..........a	-327.66
	53	10.8	3.51851E-001	4.18769E-007	0.00000E+000	3.52050E-001	9.74892E-004	5	..........a	-327.66
	54	11	3.61846E-001	4.25038E-007	0.00000E+000	3.62050E-001	9.78492E-004	5	..........a	-327.66
	55	11.2	3.71853E-001	4.30923E-007	0.00000E+000	3.72050E-001	9.59892E-004	5	..........a	-327.66
	56	11.4	3.81929E-001	4.37432E-007	0.00000E+000	3.82050E-001	9.70692E-004	5	..........a	-327.66
	57	11.6	3.91839E-001	4.43978E-007	0.00000E+000	3.92050E-001	9.47892E-004	5	..........a	-327.66
	58	11.8	4.01852E-001	4.50610E-007	0.00000E+000	4.02050E-001	9.67592E-004	5	..........a	-327.66
	59	12	4.11812E-001	4.57768E-007	0.00000E+000	4.12050E-001	9.61592E-004	5	..........a	-327.66
	60	12.2	4.21853E-001	4.65077E-007	0.00000E+000	4.22050E-001	9.54092E-004	5	..........a	-327.66
	61	12.4	4.31782E-001	4.72468E-007	0.00000E+000	4.32050E-001	9.69692E-004	5	..........a	-327.66
	62	12.6	4.41794E-001	4.78767E-007	0.00000E+000	4.42050E-001	9.69692E-004	5	..........a	-327.66
	63	12.8	4.51796E-001	4.86730E-007	0.00000E+000	4.52050E-001	9.57692E-004	5	..........a	-327.66
	64	13	4.61876E-001	4.94050E-007	0.00000E+000	4.62050E-001	9.65392E-004	5	..........a	-327.66
	65	13.2	4.71794E-001	5.00172E-007	0.00000E+000	4.72050E-001	9.56292E-004	5	..........a	-327.66
	66	13.4	4.81780E-001	5.08290E-007	0.00000E+000	4.82050E-001	9.62192E-004	5	..........a	-327.66
	67	13.6	4.91770E-001	5.15585E-007	0.00000E+000	4.92050E-001	9.64292E-004	5	..........a	-327.66
	68	13.8	5.01874E-001	5.23353E-007	0.00000E+000	5.02050E-001	9.60892E-004	5	..........a	-327.66
	69	14	5.11742E-001	5.28529E-007	0.00000E+000	5.12050E-001	9.67692E-004	5	..........a	-327.66
	70	14.2	5.21781E-001	5.33993E-007	0.00000E+000	5.22050E-001	9.68392E-004	5	..........a	-327.66
	71	14.4	5.32041E-001	5.40914E-007	0.00000E+000	5.32050E-001	9.68492E-004	6	..........a	-327.66
	72	14.6	5.42017E-001	5.47423E-007	0.00000E+000	5.42050E-001	9.74792E-004	6	..........a	-327.66
	73	14.8	5.52110E-001	5.54172E-007	0.00000E+000	5.52050E-001	9.57992E-004	6	..........a	-327.66
	74	15	5.61997E-001	5.63945E-007	0.00000E+000	5.62050E-001	9.60392E-004	6	..........a	-327.66
	75	15.2	5.72064E-001	5.69899E-007	0.00000E+000	5.72050E-001	9.63092E-004	6	..........a	-327.66
	76	15.4	5.82018E-001	5.75566E-007	0.00000E+000	5.82050E-001	9.65192E-004	6	..........a	-327.66
	77	15.6	5.91996E-001	5.82510E-007	0.00000E+000	5.92050E-001	9.74792E-004	6	..........a	-327.66
	78	15.8	6.01974E-001	5.89261E-007	0.00000E+000	6.02050E-001	9.62692E-004	6	..........a	-327.66
	79	16	6.12042E-001	5.96986E-007	0.00000E+000	6.12050E-001	9.55292E-004	6	..........a	-327.66
	80	16.2	6.22016E-001	6.03857E-007	0.00000E+000	6.22050E-001	9.63492E-004	6	..........a	-327.66
	81	16.4	6.31935E-001	6.14597E-007	0.00000E+000	6.32050E-001	9.81492E-004	6	..........a	-327.66
	82	16.6	6.41969E-001	6.22877E-007	0.00000E+000	6.42050E-001	9.73292E-004	6	..........a	-327.66
	83	16.8	6.51998E-001	6.30043E-007	0.00000E+000	6.52050E-001	9.52592E-004	6	..........a	-327.66
	84	17	6.61954E-001	6.38252E-007	0.00000E+000	6.62050E-001	9.78892E-004	6	..........a	-327.66
	85	17.2	6.71950E-001	6.49018E-007	0.00000E+000	6.72050E-001	9.71092E-004	6	..........a	-327.66
	86	17.4	6.82001E-001	6.57429E-007	0.00000E+000	6.82050E-001	9.72192E-004	6	..........a	-327.66
	87	17.6	6.91950E-001	6.67760E-007	0.00000E+000	6.92050E-001	9.58792E-004	6	..........a	-327.66
	88	17.8	7.02025E-001	6.78528E-007	0.00000E+000	7.02050E-001	9.65792E-004	6	..........a	-327.66
	89	18	7.11964E-001	6.89028E-007	0.00000E+000	7.12050E-001	9.60792E-004	6	..........a	-327.66
	90	18.2	7.21967E-001	7.00418E-007	0.00000E+000	7.22050E-001	9.71492E-004	6	..........a	-327.66
	91	18.4	7.31937E-001	7.13255E-007	0.00000E+000	7.32050E-001	9.45592E-004	6	..........a	-327.66
	92	18.6	7.42016E-001	7.23601E-007	0.00000E+000	7.42050E-001	9.60592E-004	6	..........a	-327.66
	93	18.8	7.52003E-001	7.33433E-007	0.00000E+000	7.52050E-001	9.68892E-004	6	..........a	-327.66
	94	19	7.61903E-001	7.44621E-007	0.00000E+000	7.62050E-001	9.60792E-004	6	..........a	-327.66
	95	19.2	7.71976E-001	7.57087E-007	0.00000E+000	7.72050E-001	9.55192E-004	6	..........a	-327.66
	96	19.4	7.82075E-001	7.69580E-007	0.00000E+000	7.82050E-001	9.63392E-004	6	..........a	-327.66
	97	19.6	7.91949E-001	7.83207E-007	0.00000E+000	7.92050E-001	9.59292E-004	6	..........a	-327.66
	98	19.8	8.01960E-001	7.98148E-007	0.00000E+000	8.02050E-001	9.65592E-004	6	..........a	-327.66
	99	20	7.91966E-001	7.16307E-007	0.00000E+000	7.92050E-001	9.72492E-004	6	..........a	-327.66
	100	20.2	7.82067E-001	6.56684E-007	0.00000E+000	7.82050E-001	9.41592E-004	6	..........a	-327.66
	101	20.4	7.72007E-001	6.08897E-007	0.00000E+000	7.72050E-001	9.58392E-004	6	..........a	-327.66
	102	20.6	7.62031E-001	5.67188E-007	0.00000E+000	7.62050E-001	9.69792E-004	6	..........a	-327.66
	103	20.8	7.52007E-001	5.31144E-007	0.00000E+000	7.52050E-001	9.68892E-004	6	..........a	-327.66
	104	21	7.41970E-001	4.97677E-007	0.00000E+000	7.42050E-001	9.64792E-004	6	..........a	-327.66
	105	21.2	7.32003E-001	4.67789E-007	0.00000E+000	7.32050E-001	9.55392E-004	6	..........a	-327.66
	106	21.4	7.21770E-001	4.37208E-007	0.00000E+000	7.22050E-001	9.62492E-004	5	..........a	-327.66
	107	21.6	7.11787E-001	4.12583E-007	0.00000E+000	7.12050E-001	9.80492E-004	5	..........a	-327.66
	108	21.8	7.01845E-001	3.88932E-007	0.00000E+000	7.02050E-001	9.46792E-004	5	..........a	-327.66
	109	22	6.91800E-001	3.67165E-007	0.00000E+000	6.92050E-001	9.60792E-004	5	..........a	-327.66
	110	22.2	6.81838E-001	3.46892E-007	0.00000E+000	6.82050E-001	9.73692E-004	5	..........a	-327.66
	111	22.4	6.71826E-001	3.27696E-007	0.00000E+000	6.72050E-001	9.65992E-004	5	..........a	-327.66
	112	22.6	6.61948E-001	3.09629E-007	0.00000E+000	6.62050E-001	9.74492E-004	5	..........a	-327.66
	113	22.8	6.51858E-001	2.92483E-007	0.00000E+000	6.52050E-001	9.53692E-004	5	..........a	-327.66
	114	23	6.41862E-001	2.76499E-007	0.00000E+000	6.42050E-001	9.76192E-004	5	..........a	-327.66
	115	23.2	6.31868E-001	2.61791E-007	0.00000E+000	6.32050E-001	9.68392E-004	5	..........a	-327.66
	116	23.4	6.21944E-001	2.47237E-007	0.00000E+000	6.22050E-001	9.59992E-004	5	..........a	-327.66
	117	23.6	6.11922E-001	2.33236E-007	0.00000E+000	6.12050E-001	9.56192E-004	5	..........a	-327.66
	118	23.8	6.01960E-001	2.19731E-007	0.00000E+000	6.02050E-001	9.65392E-004	5	..........a	-327.66
	119	24	5.91913E-001	2.07002E-007	0.00000E+000	5.92050E-001	9.65492E-004	5	..........a	-327.66
	120	24.2	5.81967E-001	1.94843E-007	0.00000E+000	5.82050E-001	9.67492E-004	5	..........a	-327.66
	121	24.4	5.71958E-001	1.83215E-007	0.00000E+000	5.72050E-001	9.51292E-004	5	..........a	-327.66
	122	24.6	5.61934E-001	1.71747E-007	0.00000E+000	5.62050E-001	9.78192E-004	5	..........a	-327.66
	123	24.8	5.52004E-001	1.60626E-007	0.00000E+000	5.52050E-001	9.58592E-004	5	..........a	-327.66
	124	25	5.41998E-001	1.49797E-007	0.00000E+000	5.42050E-001	9.65492E-004	5	..........a	-327.66
	125	25.2	5.32005E-001	1.38973E-007	0.00000E+000	5.32050E-001	9.52992E-004	5	..........a	-327.66
	126	25.4	5.21977E-001	1.28564E-007	0.00000E+000	5.22050E-001	9.58192E-004	5	..........a	-327.66
	127	25.6	5.11929E-001	1.18400E-007	0.00000E+000	5.12050E-001	9.59192E-004	5	..........a	-327.66
	128	25.8	5.02031E-001	1.08708E-007	0.00000E+000	5.02050E-001	9.66692E-004	5	..........a	-327.66
	129	26	4.92011E-001	9.90612E-008	0.00000E+000	4.92050E-001	9.45192E-004	5	..........a	-327.66
	130	26.2	4.81978E-001	8.97644E-008	0.00000E+000	4.82050E-001	9.71392E-004	5	..........a	-327.66
	131	26.4	4.72013E-001	8.06529E-008	0.00000E+000	4.72050E-001	9.64892E-004	5	..........a	-327.66
	132	26.6	4.62024E-001	7.16893E-008	0.00000E+000	4.62050E-001	9.63592E-004	5	..........a	-327.66
	133	26.8	4.52111E-001	6.28972E-008	0.00000E+000	4.52050E-001	9.47392E-004	5	..........a	-327.66
	134	27	4.42010E-001	5.43235E-008	0.00000E+000	4.42050E-001	9.52592E-004	5	..........a	-327.66
	135	27.2	4.31954E-001	4.58705E-008	0.00000E+000	4.32050E-001	9.83392E-004	5	..........a	-327.66
	136	27.4	4.22087E-001	3.75019E-008	0.00000E+000	4.22050E-001	9.47292E-004	5	..........a	-327.66
	137	27.6	4.12075E-001	2.93327E-008	0.00000E+000	4.12050E-001	9.52692E-004	5	..........a	-327.66
	138	27.8	4.02024E-001	2.14351E-008	0.00000E+000	4.02050E-001	9.61392E-004	5	..........a	-327.66
	139	28	3.92065E-001	1.36134E-008	0.00000E+000	3.92050E-001	9.62092E-004	5	..........a	-327.66
	140	28.2	3.82031E-001	5.89739E-009	0.00000E+000	3.82050E-001	9.58892E-004	5	..........a	-327.66
	141	28.4	3.72142E-001	-1.71289E-009	0.00000E+000	3.72050E-001	9.57592E-004	5	..........a	-327.66
	142	28.6	3.62079E-001	-9.19209E-009	0.00000E+000	3.62050E-001	9.59392E-004	5	..........a	-327.66
	143	28.8	3.52073E-001	-1.64352E-008	0.00000E+000	3.52050E-001	9.62492E-004	5	..........a	-327.66
	144	29	3.42138E-001	-2.35840E-008	0.00000E+000	3.42050E-001	9.56292E-004	5	..........a	-327.66
	145	29.2	3.32162E-001	-3.06375E-008	0.00000E+000	3.32050E-001	9.54092E-004	5	..........a	-327.66
	146	29.4	3.22059E-001	-3.74147E-008	0.00000E+000	3.22050E-001	9.48992E-004	5	..........a	-327.66
	147	29.6	3.12099E-001	-4.42320E-008	0.00000E+000	3.12050E-001	9.68392E-004	5	..........a	-327.66
	148	29.8	3.02090E-001	-5.09161E-008	0.00000E+000	3.02050E-001	9.63392E-004	5	..........a	-327.66
	149	30	2.92136E-001	-5.75438E-008	0.00000E+000	2.92050E-001	9.58792E-004	5	..........a	-327.66
	150	30.2	2.82078E-001	-6.40605E-008	0.00000E+000	2.82050E-001	9.62792E-004	5	..........a	-327.66
	151	30.4	2.72107E-001	-7.04006E-008	0.00000E+000	2.72050E-001	9.58292E-004	5	..........a	-327.66
	152	30.6	2.62098E-001	-7.68047E-008	0.00000E+000	2.62050E-001	9.77592E-004	5	..........a	-327.66
	153	30.8	2.52226E-001	-8.32605E-008	0.00000E+000	2.52050E-001	9.56592E-004	5	..........a	-327.66
	154	31	2.42149E-001	-8.96411E-008	0.00000E+000	2.42050E-001	9.54292E-004	5	..........a	-327.66
	155	31.2	2.32115E-001	-9.59600E-008	0.00000E+000	2.32050E-001	9.51792E-004	5	..........a	-327.66
	156	31.4	2.22094E-001	-1.02487E-007	0.00000E+000	2.22050E-001	9.64492E-004	5	..........a	-327.66
	157	31.6	2.12193E-001	-1.09123E-007	0.00000E+000	2.12050E-001	9.51492E-004	5	..........a	-327.66
	158	31.8	2.02175E-001	-1.15811E-007	0.00000E+000	2.02050E-001	9.53092E-004	5	..........a	-327.66
	159	32	1.92188E-001	-1.22668E-007	0.00000E+000	1.92050E-001	9.58592E-004	5	..........a	-327.66
	160	32.2	1.82169E-001	-1.29678E-007	0.00000E+000	1.82050E-001	9.40792E-004	5	..........a	-327.66
	161	32.4	1.72293E-001	-1.36815E-007	0.00000E+000	1.72050E-001	9.55092E-004	5	..........a	-327.66
	162	32.6	1.62192E-001	-1.44018E-007	0.00000E+000	1.62050E-001	9.52392E-004	5	..........a	-327.66
	163	32.8	1.52187E-001	-1.51488E-007	0.00000E+000	1.52050E-001	9.66492E-004	5	..........a	-327.66
	164	33	1.42194E-001	-1.58713E-007	0.00000E+000	1.42050E-001	9.58092E-004	5	..........a	-327.66
	165	33.2	1.32288E-001	-1.66078E-007	0.00000E+000	1.32050E-001	9.57692E-004	5	..........a	-327.66
	166	33.4	1.22207E-001	-1.73359E-007	0.00000E+000	1.22050E-001	9.59092E-004	5	..........a	-327.66
	167	33.6	1.12204E-001	-1.80393E-007	0.00000E+000	1.12050E-001	9.51392E-004	5	..........a	-327.66
	168	33.8	1.02183E-001	-1.87354E-007	0.00000E+000	1.02050E-001	9.54692E-004	5	..........a	-327.66
	169	34	9.22956E-002	-1.93964E-007	0.00000E+000	9.20500E-002	9.57992E-004	5	..........a	-327.66
	170	34.2	8.22107E-002	-2.00228E-007	0.00000E+000	8.20500E-002	9.47592E-004	5	..........a	-327.66
	171	34.4	7.22187E-002	-2.06221E-007	0.00000E+000	7.20500E-002	9.57692E-004	5	..........a	-327.66
	172	34.6	6.22084E-002	-2.11575E-007	0.00000E+000	6.20500E-002	9.54892E-004	5	..........a	-327.66
	173	34.8	5.23075E-002	-2.16514E-007	0.00000E+000	5.20500E-002	9.58992E-004	5	..........a	-327.66
	174	35	4.22456E-002	-2.21150E-007	0.00000E+000	4.20500E-002	9.45492E-004	5	..........a	-327.66
	175	35.2	3.22017E-002	-2.25610E-007	0.00000E+000	3.20500E-002	9.63092E-004	5	..........a	-327.66
	176	35.4	2.22244E-002	-2.30198E-007	0.00000E+000	2.20500E-002	9.74792E-004	5	..........a	-327.66
	177	35.6	1.22700E-002	-2.35004E-007	0.00000E+000	1.20500E-002	9.62792E-004	5	..........a	-327.66
	178	35.8	2.23609E-003	-2.39601E-007	0.00000E+000	2.05000E-003	9.56092E-004	5	..........a	-327.66
	179	36	-7.77521E-003	-2.44086E-007	0.00000E+000	-7.94999E-003	9.68392E-004	5	..........a	-327.66
	180	36.2	-1.77872E-002	-2.48146E-007	0.00000E+000	-1.79500E-002	9.55092E-004	5	..........a	-327.66
	181	36.4	-2.76959E-002	-2.52015E-007	0.00000E+000	-2.79500E-002	9.52492E-004	5	..........a	-327.66
	182	36.6	-3.77840E-002	-2.55593E-007	0.00000E+000	-3.79500E-002	9.60892E-004	5	..........a	-327.66
	183	36.8	-4.77715E-002	-2.58975E-007	0.00000E+000	-4.79500E-002	9.63792E-004	5	..........a	-327.66
	184	37	-5.77602E-002	-2.62290E-007	0.00000E+000	-5.79500E-002	9.64992E-004	5	..........a	-327.66
	185	37.2	-6.77219E-002	-2.65611E-007	0.00000E+000	-6.79500E-002	9.59892E-004	5	..........a	-327.66
	186	37.4	-7.77672E-002	-2.68645E-007	0.00000E+000	-7.79500E-002	9.50892E-004	5	..........a	-327.66
	187	37.6	-8.77838E-002	-2.71491E-007	0.00000E+000	-8.79500E-002	9.62492E-004	5	..........a	-327.66
	188	37.8	-9.77679E-002	-2.74225E-007	0.00000E+000	-9.79500E-002	9.67792E-004	5	..........a	-327.66
	189	38	-1.07659E-001	-2.77026E-007	0.00000E+000	-1.07950E-001	9.69792E-004	5	..........a	-327.66
	190	38.2	-1.17775E-001	-2.84573E-007	0.00000E+000	-1.17950E-001	9.54792E-004	5	..........a	-327.66
	191	38.4	-1.27760E-001	-2.88064E-007	0.00000E+000	-1.27950E-001	9.58292E-004	5	..........a	-327.66
	192	38.6	-1.37768E-001	-2.88650E-007	0.00000E+000	-1.37950E-001	9.66892E-004	5	..........a	-327.66
	193	38.8	-1.47712E-001	-2.90871E-007	0.00000E+000	-1.47950E-001	9.49092E-004	5	..........a	-327.66
	194	39	-1.57760E-001	-2.93644E-007	0.00000E+000	-1.57950E-001	9.55492E-004	5	..........a	-327.66
	195	39.2	-1.67751E-001	-2.96734E-007	0.00000E+000	-1.67950E-001	9.57492E-004	5	..........a	-327.66
	196	39.4	-1.77761E-001	-2.99788E-007	0.00000E+000	-1.77950E-001	9.72292E-004	5	..........a	-327.66
	197	39.6	-1.87655E-001	-3.02981E-007	0.00000E+000	-1.87950E-001	9.67592E-004	5	..........a	-327.66
	198	39.8	-1.97755E-001	-3.06296E-007	0.00000E+000	-1.97950E-001	9.53492E-004	5	..........a	-327.66
	199	40	-2.07712E-001	-3.09670E-007	0.00000E+000	-2.07950E-001	9.70992E-004	5	..........a	-327.66
	200	40.2	-2.17737E-001	-3.12979E-007	0.00000E+000	-2.17950E-001	9.59992E-004	5	..........a	-327.66
	201	40.4	-2.27647E-001	-3.16284E-007	0.00000E+000	-2.27950E-001	9.58692E-004	5	..........a	-327.66
	202	40.6	-2.37717E-001	-3.19762E-007	0.00000E+000	-2.37950E-001	9.57292E-004	5	..........a	-327.66
	203	40.8	-2.47709E-001	-3.23185E-007	0.00000E+000	-2.47950E-001	9.59892E-004	5	..........a	-327.66
	204	41	-2.57707E-001	-3.26605E-007	0.00000E+000	-2.57950E-001	9.54492E-004	5	..........a	-327.66
	205	41.2	-2.67623E-001	-3.30549E-007	0.00000E+000	-2.67950E-001	9.56392E-004	5	..........a	-327.66
	206	41.4	-2.77704E-001	-3.34063E-007	0.00000E+000	-2.77950E-001	9.63992E-004	5	..........a	-327.66
	207	41.6	-2.87685E-001	-3.37254E-007	0.00000E+000	-2.87950E-001	9.67792E-004	5	..........a	-327.66
	208	41.8	-2.97702E-001	-3.40429E-007	0.00000E+000	-2.97950E-001	9.66292E-004	5	..........a	-327.66
	209	42	-3.07639E-001	-3.43560E-007	0.00000E+000	-3.07950E-001	9.74392E-004	5	..........a	-327.66
	210	42.2	-3.17745E-001	-3.46285E-007	0.00000E+000	-3.17950E-001	9.65292E-004	5	..........a	-327.66
	211	42.4	-3.27703E-001	-3.48692E-007	0.00000E+000	-3.27950E-001	9.59792E-004	5	..........a	-327.66
	212	42.6	-3.37707E-001	-3.50814E-007	0.00000E+000	-3.37950E-001	9.58492E-004	5	..........a	-327.66
	213	42.8	-3.47658E-001	-3.52439E-007	0.00000E+000	-3.47950E-001	9.63692E-004	5	..........a	-327.66
	214	43	-3.57726E-001	-3.53865E-007	0.00000E+000	-3.57950E-001	9.61392E-004	5	..........a	-327.66
	215	43.2	-3.67647E-001	-3.55092E-007	0.00000E+000	-3.67950E-001	9.69992E-004	5	..........a	-327.66
	216	43.4	-3.77698E-001	-3.56068E-007	0.00000E+000	-3.77950E-001	9.64792E-004	5	..........a	-327.66
	217	43.6	-3.87624E-001	-3.56862E-007	0.00000E+000	-3.87950E-001	9.69992E-004	5	..........a	-327.66
	218	43.8	-3.97703E-001	-3.57502E-007	0.00000E+000	-3.97950E-001	9.60792E-004	5	..........a	-327.66
	219	44	-4.07704E-001	-3.57918E-007	0.00000E+000	-4.07950E-001	9.64092E-004	5	..........a	-327.66
	220	44.2	-4.17677E-001	-3.58227E-007	0.00000E+000	-4.17950E-001	9.63492E-004	5	..........a	-327.66
	221	44.4	-4.27610E-001	-3.58283E-007	0.00000E+000	-4.27950E-001	9.65192E-004	5	..........a	-327.66
	222	44.6	-4.37657E-001	-3.58544E-007	0.00000E+000	-4.37950E-001	9.61192E-004	5	..........a	-327.66
	223	44.8	-4.47622E-001	-3.58732E-007	0.00000E+000	-4.47950E-001	9.61392E-004	5	..........a	-327.66
	224	45	-4.57667E-001	-3.59038E-007	0.00000E+000	-4.57950E-001	9.70892E-004	5	..........a	-327.66
	225	45.2	-4.67598E-001	-3.59337E-007	0.00000E+000	-4.67950E-001	9.76092E-004	5	..........a	-327.66
	226	45.4	-4.77638E-001	-3.59683E-007	0.00000E+000	-4.77950E-001	9.55492E-004	5	..........a	-327.66
	227	45.6	-4.87648E-001	-3.60038E-007	0.00000E+000	-4.87950E-001	9.62092E-004	5	..........a	-327.66
	228	45.8	-4.97674E-001	-3.60281E-007	0.00000E+000	-4.97950E-001	9.63092E-004	5	..........a	-327.66
	229	46	-5.07605E-001	-3.60496E-007	0.00000E+000	-5.07950E-001	9.69792E-004	5	..........a	-327.66
	230	46.2	-5.17670E-001	-3.60856E-007	0.00000E+000	-5.17950E-001	9.53992E-004	5	..........a	-327.66
	231	46.4	-5.27652E-001	-3.61316E-007	0.00000E+000	-5.27950E-001	9.60692E-004	5	..........a	-327.66
	232	46.6	-5.37691E-001	-3.61946E-007	0.00000E+000	-5.37950E-001	9.69192E-004	5	..........a	-327.66
	233	46.8	-5.47589E-001	-3.62505E-007	0.00000E+000	-5.47950E-001	9.66892E-004	5	..........a	-327.66
	234	47	-5.57670E-001	-3.63407E-007	0.00000E+000	-5.57950E-001	9.69892E-004	5	..........a	-327.66
	235	47.2	-5.67646E-001	-3.64550E-007	0.00000E+000	-5.67950E-001	9.70192E-004	5	..........a	-327.66
	236	47.4	-5.77661E-001	-3.66296E-007	0.00000E+000	-5.77950E-001	9.55692E-004	5	..........a	-327.66
	237	47.6	-5.87609E-001	-3.68031E-007	0.00000E+000	-5.87950E-001	9.71592E-004	5	..........a	-327.66
	238	47.8	-5.97648E-001	-3.69992E-007	0.00000E+000	-5.97950E-001	9.62692E-004	5	..........a	-327.66
CURVE2	TABLE
	Pt	T	Vf	Im	Vu	Sig	Ach	IERange	Over	Temp
	#	s	V vs. Ref.	A	V	V	V	#	bits	deg C
	239	48	-5.89739E-001	-3.19619E-007	0.00000E+000	-5.90000E-001	9.59892E-004	5	..........a	-327.66
	240	48.2	-5.79701E-001	-2.78801E-007	0.00000E+000	-5.80000E-001	9.55892E-004	5	..........a	-327.66
	241	48.4	-5.69755E-001	-2.46814E-007	0.00000E+000	-5.70000E-001	9.71592E-004	5	..........a	-327.66
	242	48.6	-5.59792E-001	-2.20256E-007	0.00000E+000	-5.60000E-001	9.71392E-004	5	..........a	-327.66
	243	48.8	-5.49791E-001	-1.97338E-007	0.00000E+000	-5.50000E-001	9.54892E-004	5	..........a	-327.66
	244	49	-5.39726E-001	-1.77197E-007	0.00000E+000	-5.40000E-001	9.52692E-004	5	..........a	-327.66
	245	49.2	-5.29812E-001	-1.59264E-007	0.00000E+000	-5.30000E-001	9.47692E-004	5	..........a	-327.66
	246	49.4	-5.19808E-001	-1.43195E-007	0.00000E+000	-5.20000E-001	9.61392E-004	5	..........a	-327.66
	247	49.6	-5.09820E-001	-1.28221E-007	0.00000E+000	-5.10000E-001	9.55692E-004	5	..........a	-327.66
	248	49.8	-4.99807E-001	-1.14586E-007	0.00000E+000	-5.00000E-001	9.65592E-004	5	..........a	-327.66
	249	50	-4.89819E-001	-1.01943E-007	0.00000E+000	-4.90000E-001	9.53892E-004	5	..........a	-327.66
	250	50.2	-4.79832E-001	-9.01145E-008	0.00000E+000	-4.80000E-001	9.69592E-004	5	..........a	-327.66
	251	50.4	-4.69830E-001	-7.90707E-008	0.00000E+000	-4.70000E-001	9.59892E-004	5	..........a	-327.66
	252	50.6	-4.59785E-001	-6.87894E-008	0.00000E+000	-4.60000E-001	9.56992E-004	5	..........a	-327.66
	253	50.8	-4.49843E-001	-5.89358E-008	0.00000E+000	-4.50000E-001	9.49192E-004	5	..........a	-327.66
	254	51	-4.39849E-001	-4.96477E-008	0.00000E+000	-4.40000E-001	9.69892E-004	5	..........a	-327.66
	255	51.2	-4.29860E-001	-4.08291E-008	0.00000E+000	-4.30000E-001	9.60392E-004	5	..........a	-327.66
	256	51.4	-4.19820E-001	-3.23437E-008	0.00000E+000	-4.20000E-001	9.52792E-004	5	..........a	-327.66
	257	51.6	-4.09873E-001	-2.42821E-008	0.00000E+000	-4.10000E-001	9.57292E-004	5	..........a	-327.66
	258	51.8	-3.99877E-001	-1.65298E-008	0.00000E+000	-4.00000E-001	9.58292E-004	5	..........a	-327.66
	259	52	-3.89918E-001	-9.17681E-009	0.00000E+000	-3.90000E-001	9.68292E-004	5	..........a	-327.66
	260	52.2	-3.79867E-001	-2.01637E-009	0.00000E+000	-3.80000E-001	9.63492E-004	5	..........a	-327.66
	261	52.4	-3.69901E-001	4.93492E-009	0.00000E+000	-3.70000E-001	9.66092E-004	5	..........a	-327.66
	262	52.6	-3.59963E-001	1.17170E-008	0.00000E+000	-3.60000E-001	9.68392E-004	5	..........a	-327.66
	263	52.8	-3.49914E-001	1.49991E-008	0.00000E+000	-3.50000E-001	9.53692E-004	5	..........a	-327.66
	264	53	-3.39868E-001	1.99728E-008	0.00000E+000	-3.40000E-001	9.65892E-004	5	..........a	-327.66
	265	53.2	-3.29937E-001	2.61497E-008	0.00000E+000	-3.30000E-001	9.75992E-004	5	..........a	-327.66
	266	53.4	-3.19907E-001	3.23709E-008	0.00000E+000	-3.20000E-001	9.63492E-004	5	..........a	-327.66
	267	53.6	-3.09948E-001	3.90151E-008	0.00000E+000	-3.10000E-001	9.55592E-004	5	..........a	-327.66
	268	53.8	-2.99896E-001	4.55938E-008	0.00000E+000	-3.00000E-001	9.43792E-004	5	..........a	-327.66
	269	54	-2.89942E-001	5.19428E-008	0.00000E+000	-2.90000E-001	9.65292E-004	5	..........a	-327.66
	270	54.2	-2.79961E-001	5.78769E-008	0.00000E+000	-2.80000E-001	9.59792E-004	5	..........a	-327.66
	271	54.4	-2.69919E-001	6.34281E-008	0.00000E+000	-2.70000E-001	9.59792E-004	5	..........a	-327.66
	272	54.6	-2.59889E-001	6.90537E-008	0.00000E+000	-2.60000E-001	9.62292E-004	5	..........a	-327.66
	273	54.8	-2.49918E-001	7.41372E-008	0.00000E+000	-2.50000E-001	9.69192E-004	5	..........a	-327.66
	274	55	-2.39950E-001	7.94646E-008	0.00000E+000	-2.40000E-001	9.56992E-004	5	..........a	-327.66
	275	55.2	-2.30002E-001	8.48388E-008	0.00000E+000	-2.30000E-001	9.64592E-004	5	..........a	-327.66
	276	55.4	-2.19938E-001	9.01298E-008	0.00000E+000	-2.20000E-001	9.69692E-004	5	..........a	-327.66
	277	55.6	-2.09960E-001	9.53047E-008	0.00000E+000	-2.10000E-001	9.71092E-004	5	..........a	-327.66
	278	55.8	-2.00015E-001	1.00438E-007	0.00000E+000	-2.00000E-001	9.76092E-004	5	..........a	-327.66
	279	56	-1.90074E-001	1.05445E-007	0.00000E+000	-1.90000E-001	9.62892E-004	5	..........a	-327.66
	280	56.2	-1.79996E-001	1.10525E-007	0.00000E+000	-1.80000E-001	9.63492E-004	5	..........a	-327.66
	281	56.4	-1.69957E-001	1.15421E-007	0.00000E+000	-1.70000E-001	9.58092E-004	5	..........a	-327.66
	282	56.6	-1.60044E-001	1.20411E-007	0.00000E+000	-1.60000E-001	9.61692E-004	5	..........a	-327.66
	283	56.8	-1.50040E-001	1.25560E-007	0.00000E+000	-1.50000E-001	9.63592E-004	5	..........a	-327.66
	284	57	-1.40009E-001	1.30362E-007	0.00000E+000	-1.40000E-001	9.58592E-004	5	..........a	-327.66
	285	57.2	-1.29998E-001	1.35266E-007	0.00000E+000	-1.30000E-001	9.72092E-004	5	..........a	-327.66
	286	57.4	-1.20027E-001	1.41406E-007	0.00000E+000	-1.20000E-001	9.68192E-004	5	..........a	-327.66
	287	57.6	-1.10033E-001	1.47767E-007	0.00000E+000	-1.10000E-001	9.53192E-004	5	..........a	-327.66
	288	57.8	-1.00021E-001	1.54780E-007	0.00000E+000	-1.00000E-001	9.46992E-004	5	..........a	-327.66
	289	58	-8.99977E-002	1.61672E-007	0.00000E+000	-9.00000E-002	9.66392E-004	5	..........a	-327.66
	290	58.2	-8.00532E-002	1.67119E-007	0.00000E+000	-8.00000E-002	9.62192E-004	5	..........a	-327.66
	291	58.4	-7.00321E-002	1.72178E-007	0.00000E+000	-7.00000E-002	9.61892E-004	5	..........a	-327.66
	292	58.6	-6.00290E-002	1.87619E-007	0.00000E+000	-6.00000E-002	9.56892E-004	5	..........a	-327.66
	293	58.8	-4.99899E-002	1.90656E-007	0.00000E+000	-5.00000E-002	9.68992E-004	5	..........a	-327.66
	294	59	-4.00437E-002	1.94112E-007	0.00000E+000	-4.00000E-002	9.62792E-004	5	..........a	-327.66
	295	59.2	-3.00362E-002	1.98275E-007	0.00000E+000	-3.00000E-002	9.75292E-004	5	..........a	-327.66
	296	59.4	-2.00574E-002	2.02829E-007	0.00000E+000	-2.00000E-002	9.61192E-004	5	..........a	-327.66
	297	59.6	-9.96591E-003	2.07760E-007	0.00000E+000	-1.00000E-002	9.65992E-004	5	..........a	-327.66
	298	59.8	-8.51084E-005	2.12772E-007	0.00000E+000	7.45058E-009	9.56692E-004	5	..........a	-327.66
	299	60	9.97874E-003	2.18162E-007	0.00000E+000	1.00000E-002	9.55392E-004	5	..........a	-327.66
	300	60.2	1.99729E-002	2.23668E-007	0.00000E+000	2.00000E-002	9.57092E-004	5	..........a	-327.66
	301	60.4	2.99736E-002	2.29377E-007	0.00000E+000	3.00000E-002	9.66092E-004	5	..........a	-327.66
	302	60.6	3.99479E-002	2.35211E-007	0.00000E+000	4.00000E-002	9.62892E-004	5	..........a	-327.66
	303	60.8	4.99519E-002	2.41186E-007	0.00000E+000	5.00000E-002	9.61692E-004	5	..........a	-327.66
	304	61	5.99443E-002	2.47305E-007	0.00000E+000	6.00000E-002	9.65992E-004	5	..........a	-327.66
	305	61.2	6.99560E-002	2.53757E-007	0.00000E+000	7.00000E-002	9.80092E-004	5	..........a	-327.66
	306	61.4	7.99153E-002	2.60357E-007	0.00000E+000	8.00000E-002	9.76792E-004	5	..........a	-327.66
	307	61.6	8.99694E-002	2.67224E-007	0.00000E+000	9.00000E-002	9.53592E-004	5	..........a	-327.66
	308	61.8	9.99051E-002	2.74355E-007	0.00000E+000	1.00000E-001	9.58192E-004	5	..........a	-327.66
	309	62	1.09979E-001	2.81780E-007	0.00000E+000	1.10000E-001	9.59892E-004	5	..........a	-327.66
	310	62.2	1.19903E-001	2.89532E-007	0.00000E+000	1.20000E-001	9.64992E-004	5	..........a	-327.66
	311	62.4	1.29905E-001	2.97433E-007	0.00000E+000	1.30000E-001	9.59292E-004	5	..........a	-327.66
	312	62.6	1.39912E-001	3.05352E-007	0.00000E+000	1.40000E-001	9.55592E-004	5	..........a	-327.66
	313	62.8	1.49973E-001	3.13486E-007	0.00000E+000	1.50000E-001	9.74092E-004	5	..........a	-327.66
	314	63	1.59885E-001	3.21980E-007	0.00000E+000	1.60000E-001	9.64992E-004	5	..........a	-327.66
	315	63.2	1.69901E-001	3.30288E-007	0.00000E+000	1.70000E-001	9.74792E-004	5	..........a	-327.66
	316	63.4	1.79869E-001	3.38843E-007	0.00000E+000	1.80000E-001	9.72992E-004	5	..........a	-327.66
	317	63.6	1.89931E-001	3.47446E-007	0.00000E+000	1.90000E-001	9.56692E-004	5	..........a	-327.66
	318	63.8	1.99873E-001	3.55810E-007	0.00000E+000	2.00000E-001	9.64392E-004	5	..........a	-327.66
	319	64	2.09840E-001	3.63397E-007	0.00000E+000	2.10000E-001	9.57792E-004	5	..........a	-327.66
	320	64.2	2.19753E-001	3.69545E-007	0.00000E+000	2.20000E-001	9.58192E-004	5	..........a	-327.66
	321	64.4	2.29921E-001	3.74529E-007	0.00000E+000	2.30000E-001	9.66592E-004	5	..........a	-327.66
	322	64.6	2.39834E-001	3.79248E-007	0.00000E+000	2.40000E-001	9.61092E-004	5	..........a	-327.66
	323	64.8	2.49820E-001	3.83975E-007	0.00000E+000	2.50000E-001	9.59292E-004	5	..........a	-327.66
	324	65	2.59817E-001	3.88879E-007	0.00000E+000	2.60000E-001	9.60392E-004	5	..........a	-327.66
	325	65.2	2.69926E-001	3.94921E-007	0.00000E+000	2.70000E-001	9.67592E-004	5	..........a	-327.66
	326	65.4	2.79809E-001	4.01900E-007	0.00000E+000	2.80000E-001	9.66592E-004	5	..........a	-327.66
	327	65.6	2.89826E-001	4.07159E-007	0.00000E+000	2.90000E-001	9.65292E-004	5	..........a	-327.66
	328	65.8	2.99808E-001	4.13259E-007	0.00000E+000	3.00000E-001	9.47592E-004	5	..........a	-327.66
	329	66	3.09908E-001	4.19883E-007	0.00000E+000	3.10000E-001	9.62192E-004	5	..........a	-327.66
	330	66.2	3.19804E-001	4.24522E-007	0.00000E+000	3.20000E-001	9.54092E-004	5	..........a	-327.66
	331	66.4	3.29817E-001	4.29369E-007	0.00000E+000	3.30000E-001	9.74092E-004	5	..........a	-327.66
	332	66.6	3.39818E-001	4.34253E-007	0.00000E+000	3.40000E-001	9.49392E-004	5	..........a	-327.66
	333	66.8	3.49917E-001	4.40819E-007	0.00000E+000	3.50000E-001	9.81192E-004	5	..........a	-327.66
	334	67	3.59797E-001	4.45158E-007	0.00000E+000	3.60000E-001	9.67192E-004	5	..........a	-327.66
	335	67.2	3.69817E-001	4.49135E-007	0.00000E+000	3.70000E-001	9.61692E-004	5	..........a	-327.66
	336	67.4	3.79801E-001	4.53044E-007	0.00000E+000	3.80000E-001	9.55992E-004	5	..........a	-327.66
	337	67.6	3.89860E-001	4.57240E-007	0.00000E+000	3.90000E-001	9.65692E-004	5	..........a	-327.66
	338	67.8	3.99788E-001	4.61530E-007	0.00000E+000	4.00000E-001	9.67692E-004	5	..........a	-327.66
	339	68	4.09778E-001	4.66063E-007	0.00000E+000	4.10000E-001	9.65092E-004	5	..........a	-327.66
	340	68.2	4.19772E-001	4.69644E-007	0.00000E+000	4.20000E-001	9.68692E-004	5	..........a	-327.66
	341	68.4	4.29867E-001	4.73592E-007	0.00000E+000	4.30000E-001	9.72092E-004	5	..........a	-327.66
	342	68.6	4.39748E-001	4.77852E-007	0.00000E+000	4.40000E-001	9.56592E-004	5	..........a	-327.66
	343	68.8	4.49790E-001	4.81256E-007	0.00000E+000	4.50000E-001	9.64092E-004	5	..........a	-327.66
	344	69	4.59756E-001	4.86097E-007	0.00000E+000	4.60000E-001	9.62692E-004	5	..........a	-327.66
	345	69.2	4.69786E-001	4.89767E-007	0.00000E+000	4.70000E-001	9.55792E-004	5	..........a	-327.66
	346	69.4	4.79695E-001	4.93662E-007	0.00000E+000	4.80000E-001	9.73592E-004	5	..........a	-327.66
	347	69.6	4.89700E-001	4.98007E-007	0.00000E+000	4.90000E-001	9.70792E-004	5	..........a	-327.66
	348	69.8	4.99738E-001	5.01810E-007	0.00000E+000	5.00000E-001	9.73192E-004	5	..........a	-327.66
	349	70	5.09820E-001	5.06211E-007	0.00000E+000	5.10000E-001	9.58192E-004	5	..........a	-327.66
	350	70.2	5.19748E-001	5.10574E-007	0.00000E+000	5.20000E-001	9.65392E-004	5	..........a	-327.66
	351	70.4	5.29730E-001	5.15022E-007	0.00000E+000	5.30000E-001	9.59992E-004	5	..........a	-327.66
	352	70.6	5.39725E-001	5.18804E-007	0.00000E+000	5.40000E-001	9.62692E-004	5	..........a	-327.66
	353	70.8	5.49762E-001	5.22962E-007	0.00000E+000	5.50000E-001	9.63892E-004	5	..........a	-327.66
	354	71	5.59717E-001	5.27586E-007	0.00000E+000	5.60000E-001	9.64592E-004	5	..........a	-327.66
[...]
	922	184.6	6.39644E-001	5.36516E-007	0.00000E+000	6.40000E-001	9.71192E-004	5	..........a	-327.66
	923	184.8	6.49929E-001	5.43725E-007	0.00000E+000	6.50000E-001	9.75492E-004	6	..........a	-327.66
	924	185	6.59944E-001	5.49823E-007	0.00000E+000	6.60000E-001	9.65492E-004	6	..........a	-327.66
	925	185.2	6.69985E-001	5.59621E-007	0.00000E+000	6.70000E-001	9.73292E-004	6	..........a	-327.66
	926	185.4	6.79979E-001	5.65512E-007	0.00000E+000	6.80000E-001	9.55192E-004	6	..........a	-327.66
	927	185.6	6.89933E-001	5.72428E-007	0.00000E+000	6.90000E-001	9.59992E-004	6	..........a	-327.66
	928	185.8	6.99929E-001	5.80592E-007	0.00000E+000	7.00000E-001	9.62392E-004	6	..........a	-327.66
	929	186	7.09952E-001	5.87674E-007	0.00000E+000	7.10000E-001	9.76192E-004	6	..........a	-327.66
	930	186.2	7.19910E-001	5.95232E-007	0.00000E+000	7.20000E-001	9.74092E-004	6	..........a	-327.66
	931	186.4	7.29970E-001	6.05243E-007	0.00000E+000	7.30000E-001	9.63292E-004	6	..........a	-327.66
	932	186.6	7.39926E-001	6.14492E-007	0.00000E+000	7.40000E-001	9.57492E-004	6	..........a	-327.66
	933	186.8	7.49993E-001	6.24108E-007	0.00000E+000	7.50000E-001	9.61692E-004	6	..........a	-327.66
	934	187	7.59953E-001	6.34523E-007	0.00000E+000	7.60000E-001	9.49792E-004	6	..........a	-327.66
	935	187.2	7.69914E-001	6.46953E-007	0.00000E+000	7.70000E-001	9.67692E-004	6	..........a	-327.66
	936	187.4	7.79933E-001	6.59778E-007	0.00000E+000	7.80000E-001	9.68392E-004	6	..........a	-327.66
	937	187.6	7.89992E-001	6.73325E-007	0.00000E+000	7.90000E-001	9.66892E-004	6	..........a	-327.66
	938	187.8	7.99921E-001	6.88836E-007	0.00000E+000	8.00000E-001	9.72092E-004	6	..........a	-327.66
	939	188	7.90015E-001	6.17932E-007	0.00000E+000	7.90000E-001	9.69092E-004	6	..........a	-327.66
	940	188.2	7.79904E-001	5.66173E-007	0.00000E+000	7.80000E-001	9.50692E-004	6	..........a	-327.66
	941	188.4	7.69852E-001	5.24242E-007	0.00000E+000	7.70000E-001	9.65292E-004	6	..........a	-327.66
	942	188.6	7.59884E-001	4.87583E-007	0.00000E+000	7.60000E-001	9.68992E-004	6	..........a	-327.66
	943	188.8	7.50002E-001	4.56241E-007	0.00000E+000	7.50000E-001	9.59892E-004	6	..........a	-327.66
	944	189	7.39751E-001	4.24352E-007	0.00000E+000	7.40000E-001	9.57992E-004	5	..........a	-327.66
	945	189.2	7.29763E-001	3.98485E-007	0.00000E+000	7.30000E-001	9.58092E-004	5	..........a	-327.66
	946	189.4	7.19773E-001	3.75072E-007	0.00000E+000	7.20000E-001	9.64892E-004	5	..........a	-327.66
	947	189.6	7.09886E-001	3.53063E-007	0.00000E+000	7.10000E-001	9.71692E-004	5	..........a	-327.66
	948	189.8	6.99788E-001	3.32988E-007	0.00000E+000	7.00000E-001	9.51992E-004	5	..........a	-327.66
	949	190	6.89794E-001	3.13944E-007	0.00000E+000	6.90000E-001	9.60692E-004	5	..........a	-327.66
	950	190.2	6.79834E-001	2.96774E-007	0.00000E+000	6.80000E-001	9.59292E-004	5	..........a	-327.66
	951	190.4	6.69880E-001	2.80587E-007	0.00000E+000	6.70000E-001	9.67792E-004	5	..........a	-327.66
	952	190.6	6.59822E-001	2.64682E-007	0.00000E+000	6.60000E-001	9.53792E-004	5	..........a	-327.66
	953	190.8	6.49823E-001	2.48897E-007	0.00000E+000	6.50000E-001	9.70792E-004	5	..........a	-327.66
	954	191	6.39828E-001	2.33531E-007	0.00000E+000	6.40000E-001	9.64392E-004	5	..........a	-327.66
	955	191.2	6.29953E-001	2.18965E-007	0.00000E+000	6.30000E-001	9.58892E-004	5	..........a	-327.66
	956	191.4	6.19854E-001	2.05117E-007	0.00000E+000	6.20000E-001	9.57092E-004	5	..........a	-327.66
	957	191.6	6.09897E-001	1.95234E-007	0.00000E+000	6.10000E-001	9.67492E-004	5	..........a	-327.66
	958	191.8	5.99878E-001	1.81951E-007	0.00000E+000	6.00000E-001	9.80992E-004	5	..........a	-327.66
	959	192	5.89966E-001	1.69455E-007	0.00000E+000	5.90000E-001	9.65492E-004	5	..........a	-327.66
	960	192.2	5.79916E-001	1.56867E-007	0.00000E+000	5.80000E-001	9.51292E-004	5	..........a	-327.66
	961	192.4	5.69910E-001	1.45315E-007	0.00000E+000	5.70000E-001	9.57192E-004	5	..........a	-327.66
	962	192.6	5.59911E-001	1.34286E-007	0.00000E+000	5.60000E-001	9.61892E-004	5	..........a	-327.66
	963	192.8	5.49975E-001	1.23707E-007	0.00000E+000	5.50000E-001	9.60192E-004	5	..........a	-327.66
	964	193	5.39946E-001	1.13532E-007	0.00000E+000	5.40000E-001	9.60892E-004	5	..........a	-327.66
	965	193.2	5.29938E-001	1.03618E-007	0.00000E+000	5.30000E-001	9.64492E-004	5	..........a	-327.66
	966	193.4	5.19946E-001	9.40745E-008	0.00000E+000	5.20000E-001	9.74092E-004	5	..........a	-327.66
	967	193.6	5.09981E-001	8.46378E-008	0.00000E+000	5.10000E-001	9.72892E-004	5	..........a	-327.66
	968	193.8	4.99990E-001	7.55328E-008	0.00000E+000	5.00000E-001	9.61792E-004	5	..........a	-327.66
	969	194	4.89938E-001	6.65963E-008	0.00000E+000	4.90000E-001	9.71692E-004	5	..........a	-327.66
	970	194.2	4.79931E-001	5.77766E-008	0.00000E+000	4.80000E-001	9.69192E-004	5	..........a	-327.66
	971	194.4	4.70021E-001	4.92301E-008	0.00000E+000	4.70000E-001	9.70992E-004	5	..........a	-327.66
	972	194.6	4.59985E-001	4.08556E-008	0.00000E+000	4.60000E-001	9.62492E-004	5	..........a	-327.66
	973	194.8	4.49974E-001	3.26880E-008	0.00000E+000	4.50000E-001	9.48392E-004	5	..........a	-327.66
	974	195	4.39961E-001	2.45830E-008	0.00000E+000	4.40000E-001	9.66092E-004	5	..........a	-327.66
	975	195.2	4.29993E-001	1.65869E-008	0.00000E+000	4.30000E-001	9.61792E-004	5	..........a	-327.66
	976	195.4	4.20020E-001	8.71776E-009	0.00000E+000	4.20000E-001	9.50792E-004	5	..........a	-327.66
	977	195.6	4.09970E-001	9.68553E-010	0.00000E+000	4.10000E-001	9.63192E-004	5	..........a	-327.66
	978	195.8	4.00049E-001	-6.56936E-009	0.00000E+000	4.00000E-001	9.59492E-004	5	..........a	-327.66
	979	196	3.90072E-001	-1.44893E-008	0.00000E+000	3.90000E-001	9.66092E-004	5	..........a	-327.66
	980	196.2	3.80085E-001	-2.17505E-008	0.00000E+000	3.80000E-001	9.46592E-004	5	..........a	-327.66
	981	196.4	3.70069E-001	-2.87585E-008	0.00000E+000	3.70000E-001	9.52092E-004	5	..........a	-327.66
	982	196.6	3.60036E-001	-3.55781E-008	0.00000E+000	3.60000E-001	9.64392E-004	5	..........a	-327.66
	983	196.8	3.50084E-001	-4.24456E-008	0.00000E+000	3.50000E-001	9.62492E-004	5	..........a	-327.66
	984	197	3.40121E-001	-4.90642E-008	0.00000E+000	3.40000E-001	9.47092E-004	5	..........a	-327.66
	985	197.2	3.30070E-001	-5.54645E-008	0.00000E+000	3.30000E-001	9.60892E-004	5	..........a	-327.66
	986	197.4	3.20086E-001	-6.18722E-008	0.00000E+000	3.20000E-001	9.67892E-004	5	..........a	-327.66
	987	197.6	3.10078E-001	-6.82076E-008	0.00000E+000	3.10000E-001	9.60792E-004	5	..........a	-327.66
	988	197.8	3.00141E-001	-7.44355E-008	0.00000E+000	3.00000E-001	9.63192E-004	5	..........a	-327.66
	989	198	2.90084E-001	-8.07925E-008	0.00000E+000	2.90000E-001	9.60192E-004	5	..........a	-327.66
	990	198.2	2.80059E-001	-8.69161E-008	0.00000E+000	2.80000E-001	9.64692E-004	5	..........a	-327.66
	991	198.4	2.70125E-001	-9.30110E-008	0.00000E+000	2.70000E-001	9.50792E-004	5	..........a	-327.66
	992	198.6	2.60130E-001	-9.90473E-008	0.00000E+000	2.60000E-001	9.53492E-004	5	..........a	-327.66
	993	198.8	2.50083E-001	-1.05124E-007	0.00000E+000	2.50000E-001	9.51392E-004	5	..........a	-327.66
	994	199	2.40105E-001	-1.11178E-007	0.00000E+000	2.40000E-001	9.61492E-004	5	..........a	-327.66
	995	199.2	2.30058E-001	-1.17304E-007	0.00000E+000	2.30000E-001	9.67092E-004	5	..........a	-327.66
	996	199.4	2.20110E-001	-1.23576E-007	0.00000E+000	2.20000E-001	9.48492E-004	5	..........a	-327.66
	997	199.6	2.10111E-001	-1.29940E-007	0.00000E+000	2.10000E-001	9.63192E-004	5	..........a	-327.66
	998	199.8	2.00143E-001	-1.36521E-007	0.00000E+000	2.00000E-001	9.75692E-004	5	..........a	-327.66
	999	200	1.90160E-001	-1.43135E-007	0.00000E+000	1.90000E-001	9.61692E-004	5	..........a	-327.66
	1000	200.2	1.80223E-001	-1.49917E-007	0.00000E+000	1.80000E-001	9.55492E-004	5	..........a	-327.66
	1001	200.4	1.70162E-001	-1.56801E-007	0.00000E+000	1.70000E-001	9.62992E-004	5	..........a	-327.66
	1002	200.6	1.60139E-001	-1.64068E-007	0.00000E+000	1.60000E-001	9.67292E-004	5	..........a	-327.66
	1003	200.8	1.50168E-001	-1.71146E-007	0.00000E+000	1.50000E-001	9.71692E-004	5	..........a	-327.66
	1004	201	1.40192E-001	-1.77763E-007	0.00000E+000	1.40000E-001	9.45092E-004	5	..........a	-327.66
	1005	201.2	1.30172E-001	-1.84171E-007	0.00000E+000	1.30000E-001	9.54092E-004	5	..........a	-327.66
	1006	201.4	1.20180E-001	-1.90616E-007	0.00000E+000	1.20000E-001	9.64092E-004	5	..........a	-327.66
	1007	201.6	1.10187E-001	-1.96868E-007	0.00000E+000	1.10000E-001	9.57192E-004	5	..........a	-327.66
	1008	201.8	1.00253E-001	-2.03010E-007	0.00000E+000	1.00000E-001	9.54092E-004	5	..........a	-327.66
	1009	202	9.01847E-002	-2.09056E-007	0.00000E+000	9.00000E-002	9.53692E-004	5	..........a	-327.66
	1010	202.2	8.01634E-002	-2.14678E-007	0.00000E+000	8.00000E-002	9.70592E-004	5	..........a	-327.66
	1011	202.4	7.01607E-002	-2.20410E-007	0.00000E+000	7.00000E-002	9.57192E-004	5	..........a	-327.66
	1012	202.6	6.02303E-002	-2.26989E-007	0.00000E+000	6.00000E-002	9.55992E-004	5	..........a	-327.66
	1013	202.8	5.01902E-002	-2.32183E-007	0.00000E+000	5.00000E-002	9.60392E-004	5	..........a	-327.66
	1014	203	4.01679E-002	-2.37173E-007	0.00000E+000	4.00000E-002	9.56092E-004	5	..........a	-327.66
	1015	203.2	3.01841E-002	-2.42147E-007	0.00000E+000	3.00000E-002	9.55192E-004	5	..........a	-327.66
	1016	203.4	2.03190E-002	-2.47114E-007	0.00000E+000	2.00000E-002	9.63692E-004	5	..........a	-327.66
	1017	203.6	1.01982E-002	-2.51988E-007	0.00000E+000	1.00000E-002	9.56092E-004	5	..........a	-327.66
	1018	203.8	1.93792E-004	-2.56706E-007	0.00000E+000	7.45058E-009	9.58692E-004	5	..........a	-327.66
	1019	204	-9.80736E-003	-2.61058E-007	0.00000E+000	-1.00000E-002	9.54292E-004	5	..........a	-327.66
	1020	204.2	-1.97714E-002	-2.65224E-007	0.00000E+000	-2.00000E-002	9.50892E-004	5	..........a	-327.66
	1021	204.4	-2.98138E-002	-2.69331E-007	0.00000E+000	-3.00000E-002	9.56692E-004	5	..........a	-327.66
	1022	204.6	-3.97890E-002	-2.73383E-007	0.00000E+000	-4.00000E-002	9.59692E-004	5	..........a	-327.66
	1023	204.8	-4.98088E-002	-2.77393E-007	0.00000E+000	-5.00000E-002	9.40892E-004	5	..........a	-327.66
	1024	205	-5.96986E-002	-2.81309E-007	0.00000E+000	-6.00000E-002	9.64392E-004	5	..........a	-327.66
	1025	205.2	-6.98090E-002	-2.85232E-007	0.00000E+000	-7.00000E-002	9.50492E-004	5	..........a	-327.66
	1026	205.4	-7.97757E-002	-2.88986E-007	0.00000E+000	-8.00000E-002	9.80192E-004	5	..........a	-327.66
	1027	205.6	-8.98100E-002	-2.92830E-007	0.00000E+000	-9.00000E-002	9.54192E-004	5	..........a	-327.66
	1028	205.8	-9.97267E-002	-2.96268E-007	0.00000E+000	-1.00000E-001	9.58792E-004	5	..........a	-327.66
	1029	206	-1.09808E-001	-2.99899E-007	0.00000E+000	-1.10000E-001	9.54592E-004	5	..........a	-327.66
	1030	206.2	-1.19793E-001	-3.03344E-007	0.00000E+000	-1.20000E-001	9.52392E-004	5	..........a	-327.66
	1031	206.4	-1.29815E-001	-3.06876E-007	0.00000E+000	-1.30000E-001	9.56192E-004	5	..........a	-327.66
	1032	206.6	-1.39690E-001	-3.10390E-007	0.00000E+000	-1.40000E-001	9.65392E-004	5	..........a	-327.66
	1033	206.8	-1.49803E-001	-3.14040E-007	0.00000E+000	-1.50000E-001	9.57692E-004	5	..........a	-327.66
	1034	207	-1.59793E-001	-3.17419E-007	0.00000E+000	-1.60000E-001	9.61892E-004	5	..........a	-327.66
	1035	207.2	-1.69795E-001	-3.20700E-007	0.00000E+000	-1.70000E-001	9.68192E-004	5	..........a	-327.66
	1036	207.4	-1.79702E-001	-3.24004E-007	0.00000E+000	-1.80000E-001	9.57792E-004	5	..........a	-327.66
	1037	207.6	-1.89862E-001	-3.27167E-007	0.00000E+000	-1.90000E-001	9.44992E-004	5	..........a	-327.66
	1038	207.8	-1.99782E-001	-3.30064E-007	0.00000E+000	-2.00000E-001	9.49592E-004	5	..........a	-327.66
	1039	208	-2.09760E-001	-3.32703E-007	0.00000E+000	-2.10000E-001	9.54192E-004	5	..........a	-327.66
	1040	208.2	-2.19743E-001	-3.34910E-007	0.00000E+000	-2.20000E-001	9.52992E-004	5	..........a	-327.66
	1041	208.4	-2.29780E-001	-3.36786E-007	0.00000E+000	-2.30000E-001	9.59492E-004	5	..........a	-327.66
	1042	208.6	-2.39712E-001	-3.38526E-007	0.00000E+000	-2.40000E-001	9.65092E-004	5	..........a	-327.66
	1043	208.8	-2.49766E-001	-3.40172E-007	0.00000E+000	-2.50000E-001	9.60992E-004	5	..........a	-327.66
	1044	209	-2.59657E-001	-3.41847E-007	0.00000E+000	-2.60000E-001	9.61692E-004	5	..........a	-327.66
	1045	209.2	-2.69758E-001	-3.43315E-007	0.00000E+000	-2.70000E-001	9.60092E-004	5	..........a	-327.66
	1046	209.4	-2.79730E-001	-3.44906E-007	0.00000E+000	-2.80000E-001	9.50392E-004	5	..........a	-327.66
	1047	209.6	-2.89737E-001	-3.46481E-007	0.00000E+000	-2.90000E-001	9.55092E-004	5	..........a	-327.66
	1048	209.8	-2.99699E-001	-3.48009E-007	0.00000E+000	-3.00000E-001	9.60692E-004	5	..........a	-327.66
	1049	210	-3.09754E-001	-3.50452E-007	0.00000E+000	-3.10000E-001	9.57192E-004	5	..........a	-327.66
	1050	210.2	-3.19707E-001	-3.52748E-007	0.00000E+000	-3.20000E-001	9.55092E-004	5	..........a	-327.66
	1051	210.4	-3.29752E-001	-3.55106E-007	0.00000E+000	-3.30000E-001	9.59992E-004	5	..........a	-327.66
	1052	210.6	-3.39651E-001	-3.56899E-007	0.00000E+000	-3.40000E-001	9.70392E-004	5	..........a	-327.66
	1053	210.8	-3.49755E-001	-3.57702E-007	0.00000E+000	-3.50000E-001	9.64792E-004	5	..........a	-327.66
	1054	211	-3.59717E-001	-3.57963E-007	0.00000E+000	-3.60000E-001	9.69592E-004	5	..........a	-327.66
	1055	211.2	-3.69722E-001	-3.58405E-007	0.00000E+000	-3.70000E-001	9.42992E-004	5	..........a	-327.66
	1056	211.4	-3.79674E-001	-3.58759E-007	0.00000E+000	-3.80000E-001	9.57892E-004	5	..........a	-327.66
	1057	211.6	-3.89734E-001	-3.59095E-007	0.00000E+000	-3.90000E-001	9.49592E-004	5	..........a	-327.66
	1058	211.8	-3.99728E-001	-3.59179E-007	0.00000E+000	-4.00000E-001	9.53392E-004	5	..........a	-327.66
	1059	212	-4.09732E-001	-3.59599E-007	0.00000E+000	-4.10000E-001	9.62192E-004	5	..........a	-327.66
	1060	212.2	-4.19613E-001	-3.59775E-007	0.00000E+000	-4.20000E-001	9.62892E-004	5	..........a	-327.66
	1061	212.4	-4.29724E-001	-3.60032E-007	0.00000E+000	-4.30000E-001	9.59992E-004	5	..........a	-327.66
	1062	212.6	-4.39693E-001	-3.60031E-007	0.00000E+000	-4.40000E-001	9.56392E-004	5	..........a	-327.66
	1063	212.8	-4.49743E-001	-3.60913E-007	0.00000E+000	-4.50000E-001	9.53192E-004	5	..........a	-327.66
	1064	213	-4.59649E-001	-3.60162E-007	0.00000E+000	-4.60000E-001	9.52192E-004	5	..........a	-327.66
	1065	213.2	-4.69723E-001	-3.60033E-007	0.00000E+000	-4.70000E-001	9.45692E-004	5	..........a	-327.66
	1066	213.4	-4.79703E-001	-3.59797E-007	0.00000E+000	-4.80000E-001	9.65992E-004	5	..........a	-327.66
	1067	213.6	-4.89716E-001	-3.59601E-007	0.00000E+000	-4.90000E-001	9.54892E-004	5	..........a	-327.66
	1068	213.8	-4.99692E-001	-3.59428E-007	0.00000E+000	-5.00000E-001	9.51392E-004	5	..........a	-327.66
	1069	214	-5.09725E-001	-3.59371E-007	0.00000E+000	-5.10000E-001	9.56292E-004	5	..........a	-327.66
	1070	214.2	-5.19706E-001	-3.59626E-007	0.00000E+000	-5.20000E-001	9.66192E-004	5	..........a	-327.66
	1071	214.4	-5.29736E-001	-3.59725E-007	0.00000E+000	-5.30000E-001	9.53192E-004	5	..........a	-327.66
	1072	214.6	-5.39647E-001	-3.59900E-007	0.00000E+000	-5.40000E-001	9.55792E-004	5	..........a	-327.66
	1073	214.8	-5.49743E-001	-3.60435E-007	0.00000E+000	-5.50000E-001	9.48992E-004	5	..........a	-327.66
	1074	215	-5.59719E-001	-3.61003E-007	0.00000E+000	-5.60000E-001	9.51392E-004	5	..........a	-327.66
	1075	215.2	-5.69709E-001	-3.61618E-007	0.00000E+000	-5.70000E-001	9.73292E-004	5	..........a	-327.66
	1076	215.4	-5.79669E-001	-3.62861E-007	0.00000E+000	-5.80000E-001	9.63092E-004	5	..........a	-327.66
	1077	215.6	-5.89727E-001	-3.64227E-007	0.00000E+000	-5.90000E-001	9.43392E-004	5	..........a	-327.66
	1078	215.8	-5.99678E-001	-3.65963E-007	0.00000E+000	-6.00000E-001	9.61392E-004	5	..........a	-327.66
CURVE5	TABLE
	Pt	T	Vf	Im	Vu	Sig	Ach	IERange	Over	Temp
	#	s	V vs. Ref.	A	V	V	V	#	bits	deg C
	1079	216	-5.89743E-001	-3.09655E-007	0.00000E+000	-5.90000E-001	9.47092E-004	5	..........a	-327.66
	1080	216.2	-5.79728E-001	-2.70851E-007	0.00000E+000	-5.80000E-001	9.57292E-004	5	..........a	-327.66
	1081	216.4	-5.69774E-001	-2.40091E-007	0.00000E+000	-5.70000E-001	9.52292E-004	5	..........a	-327.66
	1082	216.6	-5.59784E-001	-2.14127E-007	0.00000E+000	-5.60000E-001	9.63192E-004	5	..........a	-327.66
	1083	216.8	-5.49802E-001	-1.91671E-007	0.00000E+000	-5.50000E-001	9.41192E-004	5	..........a	-327.66
	1084	217	-5.39726E-001	-1.71865E-007	0.00000E+000	-5.40000E-001	9.60092E-004	5	..........a	-327.66
	1085	217.2	-5.29816E-001	-1.54119E-007	0.00000E+000	-5.30000E-001	9.54292E-004	5	..........a	-327.66
	1086	217.4	-5.19818E-001	-1.40061E-007	0.00000E+000	-5.20000E-001	9.62592E-004	5	..........a	-327.66
	1087	217.6	-5.09811E-001	-1.26225E-007	0.00000E+000	-5.10000E-001	9.57992E-004	5	..........a	-327.66
	1088	217.8	-4.99803E-001	-1.12570E-007	0.00000E+000	-5.00000E-001	9.45992E-004	5	..........a	-327.66
	1089	218	-4.89819E-001	-9.97645E-008	0.00000E+000	-4.90000E-001	9.49192E-004	5	..........a	-327.66
	1090	218.2	-4.79806E-001	-8.77964E-008	0.00000E+000	-4.80000E-001	9.64892E-004	5	..........a	-327.66
	1091	218.4	-4.69829E-001	-7.66702E-008	0.00000E+000	-4.70000E-001	9.54192E-004	5	..........a	-327.66
	1092	218.6	-4.59797E-001	-6.61392E-008	0.00000E+000	-4.60000E-001	9.52292E-004	5	..........a	-327.66
	1093	218.8	-4.49839E-001	-5.62589E-008	0.00000E+000	-4.50000E-001	9.52592E-004	5	..........a	-327.66
	1094	219	-4.39818E-001	-4.68476E-008	0.00000E+000	-4.40000E-001	9.58092E-004	5	..........a	-327.66
	1095	219.2	-4.29858E-001	-3.78504E-008	0.00000E+000	-4.30000E-001	9.51092E-004	5	..........a	-327.66
	1096	219.4	-4.19818E-001	-2.92327E-008	0.00000E+000	-4.20000E-001	9.51792E-004	5	..........a	-327.66
	1097	219.6	-4.09862E-001	-2.08376E-008	0.00000E+000	-4.10000E-001	9.54392E-004	5	..........a	-327.66
	1098	219.8	-3.99869E-001	-1.29639E-008	0.00000E+000	-4.00000E-001	9.66592E-004	5	..........a	-327.66
	1099	220	-3.89901E-001	-5.40917E-009	0.00000E+000	-3.90000E-001	9.62992E-004	5	..........a	-327.66
	1100	220.2	-3.79873E-001	1.87621E-009	0.00000E+000	-3.80000E-001	9.51792E-004	5	..........a	-327.66
	1101	220.4	-3.69889E-001	8.84106E-009	0.00000E+000	-3.70000E-001	9.52992E-004	5	..........a	-327.66
	1102	220.6	-3.59931E-001	1.56890E-008	0.00000E+000	-3.60000E-001	9.70692E-004	5	..........a	-327.66
	1103	220.8	-3.49907E-001	2.22955E-008	0.00000E+000	-3.50000E-001	9.51292E-004	5	..........a	-327.66
	1104	221	-3.39872E-001	2.87424E-008	0.00000E+000	-3.40000E-001	9.58592E-004	5	..........a	-327.66
	1105	221.2	-3.29932E-001	3.50423E-008	0.00000E+000	-3.30000E-001	9.69792E-004	5	..........a	-327.66
	1106	221.4	-3.19907E-001	4.11318E-008	0.00000E+000	-3.20000E-001	9.60992E-004	5	..........a	-327.66
	1107	221.6	-3.09944E-001	4.71436E-008	0.00000E+000	-3.10000E-001	9.67292E-004	5	..........a	-327.66
	1108	221.8	-2.99897E-001	5.30134E-008	0.00000E+000	-3.00000E-001	9.68092E-004	5	..........a	-327.66
	1109	222	-2.89930E-001	5.88034E-008	0.00000E+000	-2.90000E-001	9.56392E-004	5	..........a	-327.66
	1110	222.2	-2.79956E-001	6.45864E-008	0.00000E+000	-2.80000E-001	9.64792E-004	5	..........a	-327.66
	1111	222.4	-2.69918E-001	7.02960E-008	0.00000E+000	-2.70000E-001	9.60292E-004	5	..........a	-327.66
	1112	222.6	-2.59906E-001	7.61484E-008	0.00000E+000	-2.60000E-001	9.54492E-004	5	..........a	-327.66
	1113	222.8	-2.49929E-001	8.16770E-008	0.00000E+000	-2.50000E-001	9.71592E-004	5	..........a	-327.66
	1114	223	-2.39965E-001	8.69460E-008	0.00000E+000	-2.40000E-001	9.51792E-004	5	..........a	-327.66
	1115	223.2	-2.29984E-001	9.22347E-008	0.00000E+000	-2.30000E-001	9.74692E-004	5	..........a	-327.66
	1116	223.4	-2.19943E-001	9.76913E-008	0.00000E+000	-2.20000E-001	9.54092E-004	5	..........a	-327.66
	1117	223.6	-2.09952E-001	1.03115E-007	0.00000E+000	-2.10000E-001	9.63192E-004	5	..........a	-327.66
	1118	223.8	-2.00017E-001	1.08743E-007	0.00000E+000	-2.00000E-001	9.66092E-004	5	..........a	-327.66
	1119	224	-1.90077E-001	1.14201E-007	0.00000E+000	-1.90000E-001	9.55592E-004	5	..........a	-327.66
	1120	224.2	-1.80013E-001	1.19501E-007	0.00000E+000	-1.80000E-001	9.45692E-004	5	..........a	-327.66