File: example_project/raw_outputs/20240522_O_GM0016_HL03_E04_CV50.DTA
EXPLAIN
TAG	CV
TITLE	LABEL	Cyclic Voltammetry	Test &Identifier
DATE	LABEL	5/22/2024	Date
TIME	LABEL	17:37:08	Time
NOTES	NOTES	1	&Notes...

PSTAT	PSTAT	REF600P-43058	Potentiostat
VINIT	POTEN	0.00000E+000	T	Initial &E (V)
VLIMIT1	POTEN	8.00000E-001	F	Scan Limit &1 (V)
VLIMIT2	POTEN	-6.00000E-001	F	Scan Limit &2 (V)
VFINAL	POTEN	0.00000E+000	T	Final &E (V)
SCANRATE	QUANT	4.99999E+001	&Scan Rate (mV/s)
STEPSIZE	QUANT	1.00000E+001	St&ep Size (mV)
CYCLES	IQUANT	4	C&ycles (#)
IMODE	SELECTOR	0	I/E Range &Mode
IRANGE	QUANT	1.00000E-005	&Max Current (mA)
AREA	QUANT	1.00000E+000	Electrode &Area (cm^2)
ELECTRODETYPE	SELECTOR	0	Electrode Type
STRIPPING	TOGGLE	F	Used for Stripping
POLARITY	TOGGLE	F	Signal Polarity
CONDIT	TWOPARAM	F	1.50000E+001	0.00000E+000	Conditionin&g	Time(s)	E(V)
DELAY	TWOPARAM	T	1.00000E+001	0.00000E+000	Init. De&lay	Time(s)	Stab.(mV/s)
EQDELAY	QUANT	5.00000E+000	Equil. &Time (s)
IRCOMP	SELECTOR	0	IRCom&p
PFCOR	QUANT	5.00000E+001	PF Corr. (ohm)
SAMPLINGMODE	SELECTOR	1	Sampling &Mode
OCVCURVE	TABLE	39
	Pt	T	Vf	Vm	Ach	Over	Temp
	#	s	V vs. Ref.	V	V	bits	deg C
	0	0.258333	-1.53217E-001	-1.53217E-001	2.53326E-004	..........a	-327.66
	1	0.516667	-1.53218E-001	-1.53250E-001	2.43526E-004	..........a	-327.66
	2	0.775	-1.53222E-001	-1.53285E-001	2.48859E-004	..........a	-327.66
	3	1.03333	-1.53233E-001	-1.53310E-001	2.56859E-004	..........a	-327.66
	4	1.29167	-1.53253E-001	-1.53355E-001	2.53926E-004	..........a	-327.66
	5	1.55	-1.53281E-001	-1.53387E-001	2.63526E-004	..........a	-327.66
	6	1.80833	-1.53313E-001	-1.53424E-001	2.53926E-004	..........a	-327.66
	7	2.06667	-1.53348E-001	-1.53454E-001	2.51126E-004	..........a	-327.66
	8	2.325	-1.53384E-001	-1.53483E-001	2.51592E-004	..........a	-327.66
	9	2.58333	-1.53418E-001	-1.53532E-001	2.57459E-004	..........a	-327.66
	10	2.84167	-1.53452E-001	-1.53555E-001	2.48792E-004	..........a	-327.66
	11	3.1	-1.53487E-001	-1.53591E-001	2.41859E-004	..........a	-327.66
	12	3.35833	-1.53521E-001	-1.53616E-001	2.57726E-004	..........a	-327.66
	13	3.61667	-1.53554E-001	-1.53647E-001	2.45926E-004	..........a	-327.66
	14	3.875	-1.53585E-001	-1.53694E-001	2.60126E-004	..........a	-327.66
	15	4.13333	-1.53617E-001	-1.53723E-001	2.52592E-004	..........a	-327.66
	16	4.39167	-1.53651E-001	-1.53759E-001	2.43126E-004	..........a	-327.66
	17	4.65	-1.53685E-001	-1.53784E-001	2.61059E-004	..........a	-327.66
	18	4.90833	-1.53720E-001	-1.53815E-001	2.44526E-004	..........a	-327.66
	19	5.16667	-1.53752E-001	-1.53852E-001	2.56326E-004	..........a	-327.66
	20	5.425	-1.53784E-001	-1.53880E-001	2.40659E-004	..........a	-327.66
	21	5.68333	-1.53815E-001	-1.53918E-001	2.54526E-004	..........a	-327.66
	22	5.94167	-1.53848E-001	-1.53944E-001	2.52059E-004	..........a	-327.66
	23	6.2	-1.53880E-001	-1.53967E-001	2.35992E-004	..........a	-327.66
	24	6.45833	-1.53911E-001	-1.54007E-001	2.49192E-004	..........a	-327.66
	25	6.71667	-1.53941E-001	-1.54039E-001	2.62259E-004	..........a	-327.66
	26	6.975	-1.53972E-001	-1.54078E-001	2.43592E-004	..........a	-327.66
	27	7.23333	-1.54004E-001	-1.54106E-001	2.61259E-004	..........a	-327.66
	28	7.49167	-1.54038E-001	-1.54132E-001	2.41192E-004	..........a	-327.66
	29	7.75	-1.54071E-001	-1.54181E-001	2.54259E-004	..........a	-327.66
	30	8.00833	-1.54104E-001	-1.54207E-001	2.53192E-004	..........a	-327.66
	31	8.26667	-1.54137E-001	-1.54242E-001	2.52526E-004	..........a	-327.66
	32	8.525	-1.54171E-001	-1.54264E-001	2.63059E-004	..........a	-327.66
	33	8.78333	-1.54204E-001	-1.54281E-001	2.38859E-004	..........a	-327.66
	34	9.04167	-1.54234E-001	-1.54323E-001	2.37592E-004	..........a	-327.66
	35	9.3	-1.54261E-001	-1.54346E-001	2.68392E-004	..........a	-327.66
	36	9.5583	-1.54288E-001	-1.54379E-001	2.42059E-004	..........a	-327.66
	37	9.8167	-1.54317E-001	-1.54413E-001	2.62859E-004	..........a	-327.66
	38	10.075	-1.54346E-001	-1.54429E-001	2.70992E-004	..........a	-327.66
EOC	QUANT	-0.1543461	Open Circuit (V)
PSTATMODEL	IQUANT	7	Pstat Model
PSTATSECTION	LABEL	REF600P-43058	Pstat Section
PSTATSERIALNO	LABEL	43058	Pstat Serial Number
CTRLMODE	IQUANT	1	Control Mode
ELECTROMETER	IQUANT	0	RE=0 or CS=1
IESTAB	IQUANT	2	I/E Stability
CASPEED	IQUANT	4	Control Amp Speed
CONVENTION	IQUANT	1	Current Convention
ICHRANGE	IQUANT	2	Ich Range
ICHRANGEMODE	TOGGLE	F	Ich Auto Range
ICHOFFSETENABLE	TOGGLE	F	Ich Offset Enable
ICHOFFSET	QUANT	0	Ich Offset (V)
ICHFILTER	IQUANT	2	Ich Filter
VCHRANGE	IQUANT	2	Vch Range
VCHRANGEMODE	TOGGLE	F	Vch Auto Range
VCHOFFSETENABLE	TOGGLE	F	Vch Offset Enable
VCHOFFSET	QUANT	0	Vch Offset (V)
VCHFILTER	IQUANT	2	Vch Filter
ACHRANGE	IQUANT	2	Ach Range
ACHOFFSETENABLE	TOGGLE	F	Ach Offset Enable
ACHOFFSET	QUANT	0	Ach Offset (V)
ACHFILTER	IQUANT	1	Ach Filter
IERANGELOWERLIMIT	IQUANT	1	I/E Range Lower Limit
IERANGEMODE	TOGGLE	T	I/E AutoRange
IERANGE	IQUANT	4	I/E Range
POSFEEDENABLE	TOGGLE	F	Positive Feedback IR Comp
POSFEEDRESISTANCE	QUANT	0	Positive Feedback Resistance (ohm)
ACHSELECT	IQUANT	4	Ach Select
SENSECABLEID	IQUANT	7	Sense Cable ID
PWRCABLEID	IQUANT	7	Power Cable ID
DCCALDATE	LABEL	3/22/2024	DC Calibration Date
ACCALDATE	LABEL	3/22/2024	AC Calibration Date
THERMOSELECT	IQUANT	1	Thermo Select
FRAMEWORKVERSION	LABEL	7.8.4	Framework Version
INSTRUMENTVERSION	LABEL	4.42	Instrument Version
CURVE1	TABLE
	Pt	T	Vf	Im	Vu	Sig	Ach	IERange	Over	Temp
	#	s	V vs. Ref.	A	V	V	V	#	bits	deg C
	0	0.2	-1.54194E-001	3.16288E-010	0.00000E+000	-1.54350E-001	1.00549E-003	5	..........a	-327.66
	1	0.4	-1.44276E-001	8.54156E-009	0.00000E+000	-1.44350E-001	1.01109E-003	5	..........a	-327.66
	2	0.6	-1.34399E-001	1.37149E-008	0.00000E+000	-1.34350E-001	1.03399E-003	5	..........a	-327.66
	3	0.8	-1.24341E-001	1.76614E-008	0.00000E+000	-1.24350E-001	1.00959E-003	5	..........a	-327.66
	4	1	-1.14218E-001	2.09545E-008	0.00000E+000	-1.14350E-001	1.03989E-003	5	..........a	-327.66
	5	1.2	-1.04369E-001	2.38313E-008	0.00000E+000	-1.04350E-001	1.02309E-003	5	..........a	-327.66
	6	1.4	-9.42887E-002	2.64376E-008	0.00000E+000	-9.43500E-002	1.02259E-003	5	..........a	-327.66
	7	1.6	-8.43392E-002	2.88539E-008	0.00000E+000	-8.43500E-002	1.00469E-003	5	..........a	-327.66
	8	1.8	-7.42397E-002	3.11456E-008	0.00000E+000	-7.43500E-002	1.02479E-003	5	..........a	-327.66
	9	2	-6.42701E-002	3.33443E-008	0.00000E+000	-6.43500E-002	1.02839E-003	5	..........a	-327.66
	10	2.2	-5.43071E-002	3.55053E-008	0.00000E+000	-5.43500E-002	1.01499E-003	5	..........a	-327.66
	11	2.4	-4.43043E-002	3.75791E-008	0.00000E+000	-4.43500E-002	1.00649E-003	5	..........a	-327.66
	12	2.6	-3.42356E-002	3.96547E-008	0.00000E+000	-3.43500E-002	9.96792E-004	5	..........a	-327.66
	13	2.8	-2.42893E-002	4.17238E-008	0.00000E+000	-2.43500E-002	1.03239E-003	5	..........a	-327.66
	14	3	-1.43153E-002	4.37508E-008	0.00000E+000	-1.43500E-002	9.98492E-004	5	..........a	-327.66
	15	3.2	-4.32451E-003	4.57755E-008	0.00000E+000	-4.35000E-003	1.00119E-003	5	..........a	-327.66
	16	3.4	5.75164E-003	4.77923E-008	0.00000E+000	5.65001E-003	1.00309E-003	5	..........a	-327.66
	17	3.6	1.56282E-002	4.98180E-008	0.00000E+000	1.56500E-002	1.02709E-003	5	..........a	-327.66
	18	3.8	2.56054E-002	5.18525E-008	0.00000E+000	2.56500E-002	1.03949E-003	5	..........a	-327.66
	19	4	3.56955E-002	5.38998E-008	0.00000E+000	3.56500E-002	1.01039E-003	5	..........a	-327.66
	20	4.2	4.58213E-002	5.59833E-008	0.00000E+000	4.56500E-002	1.00249E-003	5	..........a	-327.66
	21	4.4	5.56601E-002	5.80617E-008	0.00000E+000	5.56500E-002	1.02289E-003	5	..........a	-327.66
	22	4.6	6.57498E-002	6.01660E-008	0.00000E+000	6.56500E-002	1.02039E-003	5	..........a	-327.66
	23	4.8	7.56536E-002	6.22572E-008	0.00000E+000	7.56500E-002	1.02049E-003	5	..........a	-327.66
	24	5	8.57186E-002	6.43530E-008	0.00000E+000	8.56500E-002	9.99792E-004	5	..........a	-327.66
	25	5.2	9.56314E-002	6.64386E-008	0.00000E+000	9.56500E-002	1.02529E-003	5	..........a	-327.66
	26	5.4	1.05627E-001	6.85336E-008	0.00000E+000	1.05650E-001	1.00619E-003	5	..........a	-327.66
	27	5.6	1.15657E-001	7.06437E-008	0.00000E+000	1.15650E-001	9.99892E-004	5	..........a	-327.66
	28	5.8	1.25792E-001	7.28131E-008	0.00000E+000	1.25650E-001	1.00619E-003	5	..........a	-327.66
	29	6	1.35688E-001	7.48851E-008	0.00000E+000	1.35650E-001	1.00489E-003	5	..........a	-327.66
	30	6.2	1.45659E-001	7.70771E-008	0.00000E+000	1.45650E-001	1.02029E-003	5	..........a	-327.66
	31	6.4	1.55653E-001	7.91876E-008	0.00000E+000	1.55650E-001	9.94492E-004	5	..........a	-327.66
	32	6.6	1.65713E-001	8.13291E-008	0.00000E+000	1.65650E-001	1.01089E-003	5	..........a	-327.66
	33	6.8	1.75635E-001	8.34789E-008	0.00000E+000	1.75650E-001	1.00789E-003	5	..........a	-327.66
	34	7	1.85630E-001	8.56388E-008	0.00000E+000	1.85650E-001	1.04289E-003	5	..........a	-327.66
	35	7.2	1.95678E-001	8.77337E-008	0.00000E+000	1.95650E-001	1.02649E-003	5	..........a	-327.66
	36	7.4	2.05668E-001	8.98013E-008	0.00000E+000	2.05650E-001	1.01379E-003	5	..........a	-327.66
	37	7.6	2.15685E-001	9.19470E-008	0.00000E+000	2.15650E-001	1.02879E-003	5	..........a	-327.66
	38	7.8	2.25566E-001	9.40235E-008	0.00000E+000	2.25650E-001	1.02859E-003	5	..........a	-327.66
	39	8	2.35617E-001	9.60995E-008	0.00000E+000	2.35650E-001	1.01209E-003	5	..........a	-327.66
	40	8.2	2.45650E-001	9.81957E-008	0.00000E+000	2.45650E-001	1.01119E-003	5	..........a	-327.66
	41	8.4	2.55586E-001	1.00179E-007	0.00000E+000	2.55650E-001	1.02229E-003	5	..........a	-327.66
	42	8.6	2.65628E-001	1.02045E-007	0.00000E+000	2.65650E-001	1.00649E-003	5	..........a	-327.66
	43	8.8	2.75573E-001	1.04002E-007	0.00000E+000	2.75650E-001	1.04169E-003	5	..........a	-327.66
	44	9	2.85653E-001	1.05681E-007	0.00000E+000	2.85650E-001	9.94392E-004	5	..........a	-327.66
	45	9.2	2.95664E-001	1.07328E-007	0.00000E+000	2.95650E-001	1.02589E-003	5	..........a	-327.66
	46	9.4	3.05581E-001	1.08995E-007	0.00000E+000	3.05650E-001	1.00639E-003	5	..........a	-327.66
	47	9.6	3.15622E-001	1.10686E-007	0.00000E+000	3.15650E-001	1.01669E-003	5	..........a	-327.66
	48	9.8	3.25720E-001	1.12360E-007	0.00000E+000	3.25650E-001	1.01649E-003	5	..........a	-327.66
	49	10	3.35623E-001	1.14177E-007	0.00000E+000	3.35650E-001	1.01929E-003	5	..........a	-327.66
	50	10.2	3.45671E-001	1.16865E-007	0.00000E+000	3.45650E-001	1.01129E-003	5	..........a	-327.66
	51	10.4	3.55632E-001	1.17528E-007	0.00000E+000	3.55650E-001	1.02049E-003	5	..........a	-327.66
	52	10.6	3.65684E-001	1.18875E-007	0.00000E+000	3.65650E-001	1.01179E-003	5	..........a	-327.66
	53	10.8	3.75582E-001	1.20747E-007	0.00000E+000	3.75650E-001	1.02119E-003	5	..........a	-327.66
	54	11	3.85581E-001	1.22006E-007	0.00000E+000	3.85650E-001	1.02529E-003	5	..........a	-327.66
	55	11.2	3.95652E-001	1.23742E-007	0.00000E+000	3.95650E-001	1.02469E-003	5	..........a	-327.66
	56	11.4	4.05677E-001	1.25396E-007	0.00000E+000	4.05650E-001	1.01169E-003	5	..........a	-327.66
	57	11.6	4.15618E-001	1.27214E-007	0.00000E+000	4.15650E-001	1.01179E-003	5	..........a	-327.66
	58	11.8	4.25560E-001	1.29164E-007	0.00000E+000	4.25650E-001	1.02219E-003	5	..........a	-327.66
	59	12	4.35513E-001	1.30978E-007	0.00000E+000	4.35650E-001	1.04239E-003	5	..........a	-327.66
	60	12.2	4.45615E-001	1.32631E-007	0.00000E+000	4.45650E-001	1.00879E-003	5	..........a	-327.66
	61	12.4	4.55598E-001	1.34479E-007	0.00000E+000	4.55650E-001	1.03469E-003	5	..........a	-327.66
	62	12.6	4.65535E-001	1.36285E-007	0.00000E+000	4.65650E-001	1.01509E-003	5	..........a	-327.66
	63	12.8	4.75540E-001	1.38193E-007	0.00000E+000	4.75650E-001	1.02949E-003	5	..........a	-327.66
	64	13	4.85597E-001	1.40246E-007	0.00000E+000	4.85650E-001	1.01539E-003	5	..........a	-327.66
	65	13.2	4.95626E-001	1.42222E-007	0.00000E+000	4.95650E-001	1.01719E-003	5	..........a	-327.66
	66	13.4	5.05532E-001	1.44385E-007	0.00000E+000	5.05650E-001	1.01569E-003	5	..........a	-327.66
	67	13.6	5.15530E-001	1.46387E-007	0.00000E+000	5.15650E-001	1.02159E-003	5	..........a	-327.66
	68	13.8	5.25683E-001	1.48109E-007	0.00000E+000	5.25650E-001	1.01919E-003	5	..........a	-327.66
	69	14	5.35573E-001	1.50351E-007	0.00000E+000	5.35650E-001	1.02989E-003	5	..........a	-327.66
	70	14.2	5.45572E-001	1.52537E-007	0.00000E+000	5.45650E-001	1.00699E-003	5	..........a	-327.66
	71	14.4	5.55574E-001	1.54568E-007	0.00000E+000	5.55650E-001	1.00989E-003	5	..........a	-327.66
	72	14.6	5.65574E-001	1.56900E-007	0.00000E+000	5.65650E-001	1.02429E-003	5	..........a	-327.66
	73	14.8	5.75614E-001	1.58955E-007	0.00000E+000	5.75650E-001	1.01559E-003	5	..........a	-327.66
	74	15	5.85535E-001	1.61370E-007	0.00000E+000	5.85650E-001	1.05199E-003	5	..........a	-327.66
	75	15.2	5.95542E-001	1.63503E-007	0.00000E+000	5.95650E-001	1.03099E-003	5	..........a	-327.66
	76	15.4	6.05621E-001	1.65891E-007	0.00000E+000	6.05650E-001	1.00349E-003	5	..........a	-327.66
	77	15.6	6.15579E-001	1.68333E-007	0.00000E+000	6.15650E-001	1.01049E-003	5	..........a	-327.66
	78	15.8	6.25530E-001	1.70680E-007	0.00000E+000	6.25650E-001	1.02909E-003	5	..........a	-327.66
	79	16	6.35495E-001	1.73377E-007	0.00000E+000	6.35650E-001	1.03229E-003	5	..........a	-327.66
	80	16.2	6.45533E-001	1.75707E-007	0.00000E+000	6.45650E-001	1.01689E-003	5	..........a	-327.66
	81	16.4	6.55558E-001	1.77660E-007	0.00000E+000	6.55650E-001	1.02159E-003	5	..........a	-327.66
	82	16.6	6.65497E-001	1.79657E-007	0.00000E+000	6.65650E-001	1.02169E-003	5	..........a	-327.66
	83	16.8	6.75513E-001	1.81598E-007	0.00000E+000	6.75650E-001	1.02659E-003	5	..........a	-327.66
	84	17	6.85535E-001	1.83715E-007	0.00000E+000	6.85650E-001	9.99992E-004	5	..........a	-327.66
	85	17.2	6.95565E-001	1.85818E-007	0.00000E+000	6.95650E-001	1.04329E-003	5	..........a	-327.66
	86	17.4	7.05540E-001	1.88246E-007	0.00000E+000	7.05650E-001	1.01499E-003	5	..........a	-327.66
	87	17.6	7.15485E-001	1.91519E-007	0.00000E+000	7.15650E-001	1.00599E-003	5	..........a	-327.66
	88	17.8	7.25536E-001	1.93241E-007	0.00000E+000	7.25650E-001	1.00699E-003	5	..........a	-327.66
	89	18	7.35566E-001	1.95994E-007	0.00000E+000	7.35650E-001	1.00919E-003	5	..........a	-327.66
	90	18.2	7.45501E-001	1.97541E-007	0.00000E+000	7.45650E-001	1.01039E-003	5	..........a	-327.66
	91	18.4	7.55595E-001	1.99422E-007	0.00000E+000	7.55650E-001	9.99792E-004	5	..........a	-327.66
	92	18.6	7.65523E-001	2.01801E-007	0.00000E+000	7.65650E-001	1.01059E-003	5	..........a	-327.66
	93	18.8	7.75573E-001	2.04427E-007	0.00000E+000	7.75650E-001	1.01389E-003	5	..........a	-327.66
	94	19	7.85488E-001	2.06870E-007	0.00000E+000	7.85650E-001	1.03469E-003	5	..........a	-327.66
	95	19.2	7.95492E-001	2.09296E-007	0.00000E+000	7.95650E-001	1.02729E-003	5	..........a	-327.66
	96	19.4	7.85464E-001	1.87344E-007	0.00000E+000	7.85650E-001	1.01099E-003	5	..........a	-327.66
	97	19.6	7.75575E-001	1.71234E-007	0.00000E+000	7.75650E-001	1.02509E-003	5	..........a	-327.66
	98	19.8	7.65555E-001	1.58107E-007	0.00000E+000	7.65650E-001	1.00679E-003	5	..........a	-327.66
	99	20	7.55600E-001	1.46890E-007	0.00000E+000	7.55650E-001	1.00409E-003	5	..........a	-327.66
	100	20.2	7.45539E-001	1.38931E-007	0.00000E+000	7.45650E-001	1.02439E-003	5	..........a	-327.66
	101	20.4	7.35584E-001	1.29607E-007	0.00000E+000	7.35650E-001	9.98192E-004	5	..........a	-327.66
	102	20.6	7.25573E-001	1.21834E-007	0.00000E+000	7.25650E-001	1.02149E-003	5	..........a	-327.66
	103	20.8	7.15498E-001	1.15222E-007	0.00000E+000	7.15650E-001	1.02269E-003	5	..........a	-327.66
	104	21	7.05557E-001	1.09146E-007	0.00000E+000	7.05650E-001	1.00249E-003	5	..........a	-327.66
	105	21.2	6.95583E-001	1.03427E-007	0.00000E+000	6.95650E-001	1.02839E-003	5	..........a	-327.66
	106	21.4	6.85608E-001	9.84337E-008	0.00000E+000	6.85650E-001	9.99592E-004	5	..........a	-327.66
	107	21.6	6.75573E-001	9.38266E-008	0.00000E+000	6.75650E-001	1.03249E-003	5	..........a	-327.66
	108	21.8	6.65511E-001	8.94802E-008	0.00000E+000	6.65650E-001	1.01629E-003	5	..........a	-327.66
	109	22	6.55561E-001	8.54531E-008	0.00000E+000	6.55650E-001	1.03939E-003	5	..........a	-327.66
	110	22.2	6.45587E-001	8.17735E-008	0.00000E+000	6.45650E-001	1.01059E-003	5	..........a	-327.66
	111	22.4	6.35583E-001	7.82453E-008	0.00000E+000	6.35650E-001	1.02989E-003	5	..........a	-327.66
	112	22.6	6.25569E-001	7.49207E-008	0.00000E+000	6.25650E-001	1.01999E-003	5	..........a	-327.66
	113	22.8	6.15620E-001	7.17558E-008	0.00000E+000	6.15650E-001	1.02579E-003	5	..........a	-327.66
	114	23	6.05695E-001	6.87877E-008	0.00000E+000	6.05650E-001	1.00889E-003	5	..........a	-327.66
	115	23.2	5.95609E-001	6.59107E-008	0.00000E+000	5.95650E-001	1.01279E-003	5	..........a	-327.66
	116	23.4	5.85557E-001	6.31479E-008	0.00000E+000	5.85650E-001	1.02349E-003	5	..........a	-327.66
	117	23.6	5.75672E-001	6.05917E-008	0.00000E+000	5.75650E-001	1.02449E-003	5	..........a	-327.66
	118	23.8	5.65664E-001	5.81580E-008	0.00000E+000	5.65650E-001	1.01069E-003	5	..........a	-327.66
	119	24	5.55595E-001	5.56533E-008	0.00000E+000	5.55650E-001	1.02309E-003	5	..........a	-327.66
	120	24.2	5.45612E-001	5.33058E-008	0.00000E+000	5.45650E-001	1.01389E-003	5	..........a	-327.66
	121	24.4	5.35603E-001	5.10204E-008	0.00000E+000	5.35650E-001	1.01929E-003	5	..........a	-327.66
	122	24.6	5.25715E-001	4.87860E-008	0.00000E+000	5.25650E-001	1.01409E-003	5	..........a	-327.66
	123	24.8	5.15599E-001	4.64635E-008	0.00000E+000	5.15650E-001	1.04559E-003	5	..........a	-327.66
	124	25	5.05528E-001	4.43265E-008	0.00000E+000	5.05650E-001	1.03189E-003	5	..........a	-327.66
	125	25.2	4.95676E-001	4.22820E-008	0.00000E+000	4.95650E-001	1.01819E-003	5	..........a	-327.66
	126	25.4	4.85674E-001	4.02145E-008	0.00000E+000	4.85650E-001	1.01179E-003	5	..........a	-327.66
	127	25.6	4.75580E-001	3.88199E-008	0.00000E+000	4.75650E-001	1.00899E-003	5	..........a	-327.66
	128	25.8	4.65615E-001	3.63535E-008	0.00000E+000	4.65650E-001	1.03199E-003	5	..........a	-327.66
	129	26	4.55611E-001	3.43226E-008	0.00000E+000	4.55650E-001	1.03049E-003	5	..........a	-327.66
	130	26.2	4.45695E-001	3.23995E-008	0.00000E+000	4.45650E-001	1.01139E-003	5	..........a	-327.66
	131	26.4	4.35589E-001	3.04926E-008	0.00000E+000	4.35650E-001	1.01579E-003	5	..........a	-327.66
	132	26.6	4.25565E-001	2.86496E-008	0.00000E+000	4.25650E-001	9.96792E-004	5	..........a	-327.66
	133	26.8	4.15666E-001	2.68142E-008	0.00000E+000	4.15650E-001	1.03419E-003	5	..........a	-327.66
	134	27	4.05776E-001	2.50455E-008	0.00000E+000	4.05650E-001	1.00849E-003	5	..........a	-327.66
	135	27.2	3.95687E-001	2.32179E-008	0.00000E+000	3.95650E-001	1.02299E-003	5	..........a	-327.66
	136	27.4	3.85637E-001	2.14460E-008	0.00000E+000	3.85650E-001	1.01829E-003	5	..........a	-327.66
	137	27.6	3.75631E-001	1.96907E-008	0.00000E+000	3.75650E-001	1.02569E-003	5	..........a	-327.66
	138	27.8	3.65738E-001	1.79749E-008	0.00000E+000	3.65650E-001	1.00379E-003	5	..........a	-327.66
	139	28	3.55677E-001	1.62343E-008	0.00000E+000	3.55650E-001	1.03319E-003	5	..........a	-327.66
	140	28.2	3.45722E-001	1.45529E-008	0.00000E+000	3.45650E-001	1.01129E-003	5	..........a	-327.66
	141	28.4	3.35634E-001	1.28477E-008	0.00000E+000	3.35650E-001	1.03469E-003	5	..........a	-327.66
	142	28.6	3.25814E-001	1.11847E-008	0.00000E+000	3.25650E-001	1.01099E-003	5	..........a	-327.66
	143	28.8	3.15694E-001	9.53937E-009	0.00000E+000	3.15650E-001	1.02999E-003	5	..........a	-327.66
	144	29	3.05592E-001	7.91849E-009	0.00000E+000	3.05650E-001	1.03179E-003	5	..........a	-327.66
	145	29.2	2.95686E-001	6.28062E-009	0.00000E+000	2.95650E-001	1.00539E-003	5	..........a	-327.66
	146	29.4	2.85750E-001	4.65599E-009	0.00000E+000	2.85650E-001	1.02179E-003	5	..........a	-327.66
	147	29.6	2.75606E-001	3.22208E-009	0.00000E+000	2.75650E-001	1.02369E-003	5	..........a	-327.66
	148	29.8	2.65666E-001	1.68173E-009	0.00000E+000	2.65650E-001	1.02229E-003	5	..........a	-327.66
	149	30	2.55636E-001	8.50097E-011	0.00000E+000	2.55650E-001	1.03659E-003	5	..........a	-327.66
	150	30.2	2.45824E-001	-1.44902E-009	0.00000E+000	2.45650E-001	1.02739E-003	5	..........a	-327.66
	151	30.4	2.35703E-001	-3.06346E-009	0.00000E+000	2.35650E-001	1.02329E-003	5	..........a	-327.66
	152	30.6	2.25690E-001	-4.59695E-009	0.00000E+000	2.25650E-001	1.01999E-003	5	..........a	-327.66
	153	30.8	2.15736E-001	-6.14332E-009	0.00000E+000	2.15650E-001	1.01309E-003	5	..........a	-327.66
	154	31	2.05767E-001	-7.67083E-009	0.00000E+000	2.05650E-001	1.01059E-003	5	..........a	-327.66
	155	31.2	1.95756E-001	-9.23407E-009	0.00000E+000	1.95650E-001	1.00059E-003	5	..........a	-327.66
	156	31.4	1.85726E-001	-1.08766E-008	0.00000E+000	1.85650E-001	1.00549E-003	5	..........a	-327.66
	157	31.6	1.75704E-001	-1.23868E-008	0.00000E+000	1.75650E-001	1.00839E-003	5	..........a	-327.66
	158	31.8	1.65784E-001	-1.39091E-008	0.00000E+000	1.65650E-001	9.90292E-004	5	..........a	-327.66
	159	32	1.55736E-001	-1.54028E-008	0.00000E+000	1.55650E-001	1.03199E-003	5	..........a	-327.66
	160	32.2	1.45704E-001	-1.68766E-008	0.00000E+000	1.45650E-001	1.03259E-003	5	..........a	-327.66
	161	32.4	1.35754E-001	-1.83210E-008	0.00000E+000	1.35650E-001	1.01619E-003	5	..........a	-327.66
	162	32.6	1.25851E-001	-1.97604E-008	0.00000E+000	1.25650E-001	1.00969E-003	5	..........a	-327.66
	163	32.8	1.15718E-001	-2.12080E-008	0.00000E+000	1.15650E-001	1.02099E-003	5	..........a	-327.66
	164	33	1.05704E-001	-2.26541E-008	0.00000E+000	1.05650E-001	1.00349E-003	5	..........a	-327.66
	165	33.2	9.57317E-002	-2.41605E-008	0.00000E+000	9.56500E-002	1.03139E-003	5	..........a	-327.66
	166	33.4	8.58004E-002	-2.56867E-008	0.00000E+000	8.56500E-002	1.00239E-003	5	..........a	-327.66
	167	33.6	7.57032E-002	-2.72889E-008	0.00000E+000	7.56500E-002	1.01349E-003	5	..........a	-327.66
	168	33.8	6.56558E-002	-2.88264E-008	0.00000E+000	6.56500E-002	1.01559E-003	5	..........a	-327.66
	169	34	5.57361E-002	-3.03922E-008	0.00000E+000	5.56500E-002	1.01389E-003	5	..........a	-327.66
	170	34.2	4.58849E-002	-3.18422E-008	0.00000E+000	4.56500E-002	1.03429E-003	5	..........a	-327.66
	171	34.4	3.57625E-002	-3.33760E-008	0.00000E+000	3.56500E-002	1.02839E-003	5	..........a	-327.66
	172	34.6	2.56989E-002	-3.48559E-008	0.00000E+000	2.56500E-002	1.01989E-003	5	..........a	-327.66
	173	34.8	1.57395E-002	-3.63534E-008	0.00000E+000	1.56500E-002	1.02719E-003	5	..........a	-327.66
	174	35	5.82119E-003	-3.78092E-008	0.00000E+000	5.65001E-003	1.00149E-003	5	..........a	-327.66
	175	35.2	-4.25986E-003	-3.92696E-008	0.00000E+000	-4.35000E-003	1.02229E-003	5	..........a	-327.66
	176	35.4	-1.42208E-002	-4.08043E-008	0.00000E+000	-1.43500E-002	1.02019E-003	5	..........a	-327.66
	177	35.6	-2.42715E-002	-4.23689E-008	0.00000E+000	-2.43500E-002	1.01999E-003	5	..........a	-327.66
	178	35.8	-3.41637E-002	-4.39588E-008	0.00000E+000	-3.43500E-002	1.01879E-003	5	..........a	-327.66
	179	36	-4.42478E-002	-4.54571E-008	0.00000E+000	-4.43500E-002	1.02359E-003	5	..........a	-327.66
	180	36.2	-5.42348E-002	-4.65511E-008	0.00000E+000	-5.43500E-002	1.00909E-003	5	..........a	-327.66
	181	36.4	-6.42390E-002	-4.79814E-008	0.00000E+000	-6.43500E-002	1.00109E-003	5	..........a	-327.66
	182	36.6	-7.41691E-002	-4.92553E-008	0.00000E+000	-7.43500E-002	1.00989E-003	5	..........a	-327.66
	183	36.8	-8.42582E-002	-5.04185E-008	0.00000E+000	-8.43500E-002	1.02489E-003	5	..........a	-327.66
	184	37	-9.42327E-002	-5.14860E-008	0.00000E+000	-9.43500E-002	1.01519E-003	5	..........a	-327.66
	185	37.2	-1.04282E-001	-5.26700E-008	0.00000E+000	-1.04350E-001	1.01679E-003	5	..........a	-327.66
	186	37.4	-1.14176E-001	-5.37327E-008	0.00000E+000	-1.14350E-001	1.00979E-003	5	..........a	-327.66
	187	37.6	-1.24257E-001	-5.49483E-008	0.00000E+000	-1.24350E-001	1.01329E-003	5	..........a	-327.66
	188	37.8	-1.34293E-001	-5.59997E-008	0.00000E+000	-1.34350E-001	1.01739E-003	5	..........a	-327.66
	189	38	-1.44244E-001	-5.70803E-008	0.00000E+000	-1.44350E-001	1.03749E-003	5	..........a	-327.66
	190	38.2	-1.54170E-001	-5.82111E-008	0.00000E+000	-1.54350E-001	1.00699E-003	5	..........a	-327.66
	191	38.4	-1.64312E-001	-5.93030E-008	0.00000E+000	-1.64350E-001	9.98592E-004	5	..........a	-327.66
	192	38.6	-1.74267E-001	-6.03763E-008	0.00000E+000	-1.74350E-001	1.02249E-003	5	..........a	-327.66
	193	38.8	-1.84267E-001	-6.15060E-008	0.00000E+000	-1.84350E-001	1.01539E-003	5	..........a	-327.66
	194	39	-1.94232E-001	-6.25830E-008	0.00000E+000	-1.94350E-001	1.01229E-003	5	..........a	-327.66
	195	39.2	-2.04290E-001	-6.36804E-008	0.00000E+000	-2.04350E-001	9.97692E-004	5	..........a	-327.66
	196	39.4	-2.14220E-001	-6.47950E-008	0.00000E+000	-2.14350E-001	1.01229E-003	5	..........a	-327.66
	197	39.6	-2.24221E-001	-6.59016E-008	0.00000E+000	-2.24350E-001	1.01259E-003	5	..........a	-327.66
	198	39.8	-2.34124E-001	-6.69670E-008	0.00000E+000	-2.34350E-001	1.01009E-003	5	..........a	-327.66
	199	40	-2.44224E-001	-6.80076E-008	0.00000E+000	-2.44350E-001	1.03299E-003	5	..........a	-327.66
	200	40.2	-2.54260E-001	-6.91355E-008	0.00000E+000	-2.54350E-001	1.03349E-003	5	..........a	-327.66
	201	40.4	-2.64219E-001	-7.02617E-008	0.00000E+000	-2.64350E-001	1.00449E-003	5	..........a	-327.66
	202	40.6	-2.74165E-001	-7.13678E-008	0.00000E+000	-2.74350E-001	1.01409E-003	5	..........a	-327.66
	203	40.8	-2.84229E-001	-7.25425E-008	0.00000E+000	-2.84350E-001	1.00379E-003	5	..........a	-327.66
	204	41	-2.94236E-001	-7.36886E-008	0.00000E+000	-2.94350E-001	1.01819E-003	5	..........a	-327.66
	205	41.2	-3.04236E-001	-7.48662E-008	0.00000E+000	-3.04350E-001	1.01899E-003	5	..........a	-327.66
	206	41.4	-3.14121E-001	-7.60418E-008	0.00000E+000	-3.14350E-001	1.00329E-003	5	..........a	-327.66
	207	41.6	-3.24220E-001	-7.72627E-008	0.00000E+000	-3.24350E-001	1.00919E-003	5	..........a	-327.66
	208	41.8	-3.34279E-001	-7.84585E-008	0.00000E+000	-3.34350E-001	1.02229E-003	5	..........a	-327.66
	209	42	-3.44214E-001	-7.96392E-008	0.00000E+000	-3.44350E-001	1.01439E-003	5	..........a	-327.66
	210	42.2	-3.54155E-001	-8.07057E-008	0.00000E+000	-3.54350E-001	1.00859E-003	5	..........a	-327.66
	211	42.4	-3.64232E-001	-8.18485E-008	0.00000E+000	-3.64350E-001	1.01649E-003	5	..........a	-327.66
	212	42.6	-3.74223E-001	-8.30248E-008	0.00000E+000	-3.74350E-001	1.01539E-003	5	..........a	-327.66
	213	42.8	-3.84255E-001	-8.42213E-008	0.00000E+000	-3.84350E-001	1.02279E-003	5	..........a	-327.66
	214	43	-3.94126E-001	-8.54508E-008	0.00000E+000	-3.94350E-001	1.01189E-003	5	..........a	-327.66
	215	43.2	-4.04221E-001	-8.66834E-008	0.00000E+000	-4.04350E-001	1.01499E-003	5	..........a	-327.66
	216	43.4	-4.14171E-001	-8.79642E-008	0.00000E+000	-4.14350E-001	1.01629E-003	5	..........a	-327.66
	217	43.6	-4.24197E-001	-8.92828E-008	0.00000E+000	-4.24350E-001	1.01859E-003	5	..........a	-327.66
	218	43.8	-4.34107E-001	-9.06585E-008	0.00000E+000	-4.34350E-001	1.01819E-003	5	..........a	-327.66
	219	44	-4.44195E-001	-9.20838E-008	0.00000E+000	-4.44350E-001	9.99892E-004	5	..........a	-327.66
	220	44.2	-4.54194E-001	-9.35031E-008	0.00000E+000	-4.54350E-001	1.01939E-003	5	..........a	-327.66
	221	44.4	-4.64180E-001	-9.50418E-008	0.00000E+000	-4.64350E-001	1.00909E-003	5	..........a	-327.66
	222	44.6	-4.74159E-001	-9.64775E-008	0.00000E+000	-4.74350E-001	1.00649E-003	5	..........a	-327.66
	223	44.8	-4.84187E-001	-9.80381E-008	0.00000E+000	-4.84350E-001	1.02539E-003	5	..........a	-327.66
	224	45	-4.94198E-001	-9.96367E-008	0.00000E+000	-4.94350E-001	1.03069E-003	5	..........a	-327.66
	225	45.2	-5.04184E-001	-1.01262E-007	0.00000E+000	-5.04350E-001	1.00259E-003	5	..........a	-327.66
	226	45.4	-5.14094E-001	-1.02969E-007	0.00000E+000	-5.14350E-001	1.02099E-003	5	..........a	-327.66
	227	45.6	-5.24184E-001	-1.04670E-007	0.00000E+000	-5.24350E-001	1.01089E-003	5	..........a	-327.66
	228	45.8	-5.34191E-001	-1.06487E-007	0.00000E+000	-5.34350E-001	1.01849E-003	5	..........a	-327.66
	229	46	-5.44198E-001	-1.08369E-007	0.00000E+000	-5.44350E-001	1.01049E-003	5	..........a	-327.66
	230	46.2	-5.54127E-001	-1.10228E-007	0.00000E+000	-5.54350E-001	1.00059E-003	5	..........a	-327.66
	231	46.4	-5.64176E-001	-1.12135E-007	0.00000E+000	-5.64350E-001	1.01189E-003	5	..........a	-327.66
	232	46.6	-5.74096E-001	-1.14057E-007	0.00000E+000	-5.74350E-001	1.02899E-003	5	..........a	-327.66
	233	46.8	-5.84185E-001	-1.15965E-007	0.00000E+000	-5.84350E-001	1.02519E-003	5	..........a	-327.66
	234	47	-5.94066E-001	-1.17966E-007	0.00000E+000	-5.94350E-001	1.02459E-003	5	..........a	-327.66
	235	47.2	-6.04176E-001	-1.20023E-007	0.00000E+000	-6.04350E-001	1.00459E-003	5	..........a	-327.66
CURVE2	TABLE
	Pt	T	Vf	Im	Vu	Sig	Ach	IERange	Over	Temp
	#	s	V vs. Ref.	A	V	V	V	#	bits	deg C
	236	47.4	-5.89846E-001	-9.86813E-008	0.00000E+000	-5.90000E-001	1.02749E-003	5	..........a	-327.66
	237	47.6	-5.79788E-001	-8.87365E-008	0.00000E+000	-5.80000E-001	1.03629E-003	5	..........a	-327.66
	238	47.8	-5.69859E-001	-8.05853E-008	0.00000E+000	-5.70000E-001	1.03209E-003	5	..........a	-327.66
	239	48	-5.59886E-001	-7.35344E-008	0.00000E+000	-5.60000E-001	1.02559E-003	5	..........a	-327.66
	240	48.2	-5.49855E-001	-6.73917E-008	0.00000E+000	-5.50000E-001	1.02079E-003	5	..........a	-327.66
	241	48.4	-5.39776E-001	-6.19138E-008	0.00000E+000	-5.40000E-001	1.01309E-003	5	..........a	-327.66
	242	48.6	-5.29844E-001	-5.69395E-008	0.00000E+000	-5.30000E-001	1.01109E-003	5	..........a	-327.66
	243	48.8	-5.19874E-001	-5.23941E-008	0.00000E+000	-5.20000E-001	1.01179E-003	5	..........a	-327.66
	244	49	-5.09883E-001	-4.82001E-008	0.00000E+000	-5.10000E-001	1.03489E-003	5	..........a	-327.66
	245	49.2	-4.99830E-001	-4.43062E-008	0.00000E+000	-5.00000E-001	1.00269E-003	5	..........a	-327.66
	246	49.4	-4.89859E-001	-4.06425E-008	0.00000E+000	-4.90000E-001	1.02279E-003	5	..........a	-327.66
	247	49.6	-4.79855E-001	-3.71724E-008	0.00000E+000	-4.80000E-001	9.96792E-004	5	..........a	-327.66
	248	49.8	-4.69842E-001	-3.39580E-008	0.00000E+000	-4.70000E-001	1.00769E-003	5	..........a	-327.66
	249	50	-4.59814E-001	-3.08739E-008	0.00000E+000	-4.60000E-001	1.02629E-003	5	..........a	-327.66
	250	50.2	-4.49846E-001	-2.79585E-008	0.00000E+000	-4.50000E-001	1.01239E-003	5	..........a	-327.66
	251	50.4	-4.39864E-001	-2.51676E-008	0.00000E+000	-4.40000E-001	1.01149E-003	5	..........a	-327.66
	252	50.6	-4.29878E-001	-2.25167E-008	0.00000E+000	-4.30000E-001	1.02949E-003	5	..........a	-327.66
	253	50.8	-4.19790E-001	-1.99663E-008	0.00000E+000	-4.20000E-001	1.01719E-003	5	..........a	-327.66
	254	51	-4.09918E-001	-1.75180E-008	0.00000E+000	-4.10000E-001	1.03119E-003	5	..........a	-327.66
	255	51.2	-3.99862E-001	-1.51292E-008	0.00000E+000	-4.00000E-001	1.00799E-003	5	..........a	-327.66
	256	51.4	-3.89946E-001	-1.28481E-008	0.00000E+000	-3.90000E-001	9.94892E-004	5	..........a	-327.66
	257	51.6	-3.79843E-001	-1.06201E-008	0.00000E+000	-3.80000E-001	1.01669E-003	5	..........a	-327.66
	258	51.8	-3.69857E-001	-8.47280E-009	0.00000E+000	-3.70000E-001	1.00829E-003	5	..........a	-327.66
	259	52	-3.59905E-001	-6.37796E-009	0.00000E+000	-3.60000E-001	1.02369E-003	5	..........a	-327.66
	260	52.2	-3.49870E-001	-4.31472E-009	0.00000E+000	-3.50000E-001	1.00759E-003	5	..........a	-327.66
	261	52.4	-3.39818E-001	-2.34584E-009	0.00000E+000	-3.40000E-001	1.02789E-003	5	..........a	-327.66
	262	52.6	-3.29940E-001	-4.03369E-010	0.00000E+000	-3.30000E-001	1.00669E-003	5	..........a	-327.66
	263	52.8	-3.19887E-001	1.53904E-009	0.00000E+000	-3.20000E-001	1.02129E-003	5	..........a	-327.66
	264	53	-3.09966E-001	3.41139E-009	0.00000E+000	-3.10000E-001	1.01939E-003	5	..........a	-327.66
	265	53.2	-2.99852E-001	5.23623E-009	0.00000E+000	-3.00000E-001	1.03399E-003	5	..........a	-327.66
	266	53.4	-2.89944E-001	7.07041E-009	0.00000E+000	-2.90000E-001	1.02549E-003	5	..........a	-327.66
	267	53.6	-2.79963E-001	8.86078E-009	0.00000E+000	-2.80000E-001	1.04559E-003	5	..........a	-327.66
	268	53.8	-2.69886E-001	1.06069E-008	0.00000E+000	-2.70000E-001	1.00849E-003	5	..........a	-327.66
	269	54	-2.59819E-001	1.23712E-008	0.00000E+000	-2.60000E-001	1.00039E-003	5	..........a	-327.66
	270	54.2	-2.49911E-001	1.41216E-008	0.00000E+000	-2.50000E-001	1.01329E-003	5	..........a	-327.66
	271	54.4	-2.39939E-001	1.58375E-008	0.00000E+000	-2.40000E-001	1.01199E-003	5	..........a	-327.66
	272	54.6	-2.29968E-001	1.75340E-008	0.00000E+000	-2.30000E-001	1.02539E-003	5	..........a	-327.66
	273	54.8	-2.19892E-001	1.92325E-008	0.00000E+000	-2.20000E-001	1.01289E-003	5	..........a	-327.66
	274	55	-2.09941E-001	2.09311E-008	0.00000E+000	-2.10000E-001	1.02179E-003	5	..........a	-327.66
	275	55.2	-2.00004E-001	2.25947E-008	0.00000E+000	-2.00000E-001	1.02069E-003	5	..........a	-327.66
	276	55.4	-1.89949E-001	2.42923E-008	0.00000E+000	-1.90000E-001	1.01809E-003	5	..........a	-327.66
	277	55.6	-1.79934E-001	2.59690E-008	0.00000E+000	-1.80000E-001	1.02479E-003	5	..........a	-327.66
	278	55.8	-1.69925E-001	2.76556E-008	0.00000E+000	-1.70000E-001	1.02059E-003	5	..........a	-327.66
	279	56	-1.60026E-001	2.93703E-008	0.00000E+000	-1.60000E-001	1.03509E-003	5	..........a	-327.66
	280	56.2	-1.49999E-001	3.10663E-008	0.00000E+000	-1.50000E-001	1.02689E-003	5	..........a	-327.66
	281	56.4	-1.39885E-001	3.28089E-008	0.00000E+000	-1.40000E-001	1.00029E-003	5	..........a	-327.66
	282	56.6	-1.29987E-001	3.45218E-008	0.00000E+000	-1.30000E-001	1.02949E-003	5	..........a	-327.66
	283	56.8	-1.19968E-001	3.62364E-008	0.00000E+000	-1.20000E-001	1.02059E-003	5	..........a	-327.66
	284	57	-1.10004E-001	3.79660E-008	0.00000E+000	-1.10000E-001	1.00489E-003	5	..........a	-327.66
	285	57.2	-9.99457E-002	3.97303E-008	0.00000E+000	-1.00000E-001	1.01709E-003	5	..........a	-327.66
	286	57.4	-8.99253E-002	4.15160E-008	0.00000E+000	-9.00000E-002	1.03429E-003	5	..........a	-327.66
	287	57.6	-8.00410E-002	4.33335E-008	0.00000E+000	-8.00000E-002	1.04049E-003	5	..........a	-327.66
	288	57.8	-6.99677E-002	4.51449E-008	0.00000E+000	-7.00000E-002	1.01319E-003	5	..........a	-327.66
	289	58	-5.98894E-002	4.69933E-008	0.00000E+000	-6.00000E-002	9.98392E-004	5	..........a	-327.66
	290	58.2	-4.99778E-002	4.88699E-008	0.00000E+000	-5.00000E-002	1.00959E-003	5	..........a	-327.66
	291	58.4	-3.99574E-002	5.07947E-008	0.00000E+000	-4.00000E-002	1.00459E-003	5	..........a	-327.66
	292	58.6	-2.99903E-002	5.27206E-008	0.00000E+000	-3.00000E-002	1.01289E-003	5	..........a	-327.66
	293	58.8	-1.99773E-002	5.46342E-008	0.00000E+000	-2.00000E-002	1.01049E-003	5	..........a	-327.66
	294	59	-9.92356E-003	5.64901E-008	0.00000E+000	-1.00000E-002	1.01229E-003	5	..........a	-327.66
	295	59.2	-3.64583E-005	5.83401E-008	0.00000E+000	7.45058E-009	1.01049E-003	5	..........a	-327.66
	296	59.4	1.00546E-002	6.02429E-008	0.00000E+000	1.00000E-002	1.01179E-003	5	..........a	-327.66
	297	59.6	2.00971E-002	6.22155E-008	0.00000E+000	2.00000E-002	1.01749E-003	5	..........a	-327.66
	298	59.8	2.99690E-002	6.41091E-008	0.00000E+000	3.00000E-002	1.04319E-003	5	..........a	-327.66
	299	60	4.00065E-002	6.60606E-008	0.00000E+000	4.00000E-002	1.00669E-003	5	..........a	-327.66
	300	60.2	4.99962E-002	6.80304E-008	0.00000E+000	5.00000E-002	1.02319E-003	5	..........a	-327.66
	301	60.4	6.00370E-002	6.99808E-008	0.00000E+000	6.00000E-002	1.03049E-003	5	..........a	-327.66
	302	60.6	6.99647E-002	7.19511E-008	0.00000E+000	7.00000E-002	1.04309E-003	5	..........a	-327.66
	303	60.8	7.99623E-002	7.38505E-008	0.00000E+000	8.00000E-002	1.02829E-003	5	..........a	-327.66
	304	61	9.00481E-002	7.57723E-008	0.00000E+000	9.00000E-002	1.00239E-003	5	..........a	-327.66
	305	61.2	1.00045E-001	7.77336E-008	0.00000E+000	1.00000E-001	1.03199E-003	5	..........a	-327.66
	306	61.4	1.10019E-001	7.97761E-008	0.00000E+000	1.10000E-001	1.02329E-003	5	..........a	-327.66
	307	61.6	1.19953E-001	8.17088E-008	0.00000E+000	1.20000E-001	1.01969E-003	5	..........a	-327.66
	308	61.8	1.29960E-001	8.36268E-008	0.00000E+000	1.30000E-001	1.01569E-003	5	..........a	-327.66
	309	62	1.40036E-001	8.55912E-008	0.00000E+000	1.40000E-001	1.01809E-003	5	..........a	-327.66
	310	62.2	1.49986E-001	8.75465E-008	0.00000E+000	1.50000E-001	1.03029E-003	5	..........a	-327.66
	311	62.4	1.59959E-001	8.95038E-008	0.00000E+000	1.60000E-001	1.00759E-003	5	..........a	-327.66
	312	62.6	1.70002E-001	9.13831E-008	0.00000E+000	1.70000E-001	1.00959E-003	5	..........a	-327.66
	313	62.8	1.80007E-001	9.32955E-008	0.00000E+000	1.80000E-001	1.00659E-003	5	..........a	-327.66
	314	63	1.90034E-001	9.51312E-008	0.00000E+000	1.90000E-001	1.02359E-003	5	..........a	-327.66
	315	63.2	1.99959E-001	9.69898E-008	0.00000E+000	2.00000E-001	1.01359E-003	5	..........a	-327.66
	316	63.4	2.09962E-001	9.86594E-008	0.00000E+000	2.10000E-001	1.00519E-003	5	..........a	-327.66
	317	63.6	2.19993E-001	1.00438E-007	0.00000E+000	2.20000E-001	1.00689E-003	5	..........a	-327.66
	318	63.8	2.29958E-001	1.02145E-007	0.00000E+000	2.30000E-001	1.02129E-003	5	..........a	-327.66
	319	64	2.39968E-001	1.03827E-007	0.00000E+000	2.40000E-001	1.01339E-003	5	..........a	-327.66
	320	64.2	2.49896E-001	1.05441E-007	0.00000E+000	2.50000E-001	1.03379E-003	5	..........a	-327.66
	321	64.4	2.59980E-001	1.07079E-007	0.00000E+000	2.60000E-001	1.00509E-003	5	..........a	-327.66
	322	64.6	2.70001E-001	1.08650E-007	0.00000E+000	2.70000E-001	1.00959E-003	5	..........a	-327.66
	323	64.8	2.79914E-001	1.10101E-007	0.00000E+000	2.80000E-001	1.01349E-003	5	..........a	-327.66
	324	65	2.89957E-001	1.11379E-007	0.00000E+000	2.90000E-001	1.03129E-003	5	..........a	-327.66
	325	65.2	2.99995E-001	1.12342E-007	0.00000E+000	3.00000E-001	1.00109E-003	5	..........a	-327.66
	326	65.4	3.09987E-001	1.13232E-007	0.00000E+000	3.10000E-001	1.02279E-003	5	..........a	-327.66
	327	65.6	3.19971E-001	1.14448E-007	0.00000E+000	3.20000E-001	1.01019E-003	5	..........a	-327.66
	328	65.8	3.29926E-001	1.15514E-007	0.00000E+000	3.30000E-001	1.00879E-003	5	..........a	-327.66
	329	66	3.39999E-001	1.16778E-007	0.00000E+000	3.40000E-001	1.02839E-003	5	..........a	-327.66
	330	66.2	3.49992E-001	1.18112E-007	0.00000E+000	3.50000E-001	1.02109E-003	5	..........a	-327.66
	331	66.4	3.59944E-001	1.19495E-007	0.00000E+000	3.60000E-001	1.01499E-003	5	..........a	-327.66
	332	66.6	3.69959E-001	1.21091E-007	0.00000E+000	3.70000E-001	1.03999E-003	5	..........a	-327.66
	333	66.8	3.79988E-001	1.22220E-007	0.00000E+000	3.80000E-001	1.01399E-003	5	..........a	-327.66
	334	67	3.89997E-001	1.23720E-007	0.00000E+000	3.90000E-001	1.02279E-003	5	..........a	-327.66
	335	67.2	3.99929E-001	1.25125E-007	0.00000E+000	4.00000E-001	1.03329E-003	5	..........a	-327.66
	336	67.4	4.09914E-001	1.26569E-007	0.00000E+000	4.10000E-001	1.01319E-003	5	..........a	-327.66
	337	67.6	4.19947E-001	1.28031E-007	0.00000E+000	4.20000E-001	1.01109E-003	5	..........a	-327.66
	338	67.8	4.29958E-001	1.29405E-007	0.00000E+000	4.30000E-001	1.03469E-003	5	..........a	-327.66
	339	68	4.39899E-001	1.31182E-007	0.00000E+000	4.40000E-001	1.03029E-003	5	..........a	-327.66
	340	68.2	4.49968E-001	1.32255E-007	0.00000E+000	4.50000E-001	1.01169E-003	5	..........a	-327.66
	341	68.4	4.59927E-001	1.33784E-007	0.00000E+000	4.60000E-001	1.01109E-003	5	..........a	-327.66
	342	68.6	4.69986E-001	1.35412E-007	0.00000E+000	4.70000E-001	1.01389E-003	5	..........a	-327.66
	343	68.8	4.79886E-001	1.36757E-007	0.00000E+000	4.80000E-001	1.03319E-003	5	..........a	-327.66
	344	69	4.89913E-001	1.38433E-007	0.00000E+000	4.90000E-001	1.01199E-003	5	..........a	-327.66
	345	69.2	4.99989E-001	1.40019E-007	0.00000E+000	5.00000E-001	1.00689E-003	5	..........a	-327.66
	346	69.4	5.09946E-001	1.41593E-007	0.00000E+000	5.10000E-001	1.00389E-003	5	..........a	-327.66
	347	69.6	5.19919E-001	1.43322E-007	0.00000E+000	5.20000E-001	1.01029E-003	5	..........a	-327.66
	348	69.8	5.29898E-001	1.45084E-007	0.00000E+000	5.30000E-001	1.00689E-003	5	..........a	-327.66
	349	70	5.39922E-001	1.46894E-007	0.00000E+000	5.40000E-001	1.00239E-003	5	..........a	-327.66
	350	70.2	5.49984E-001	1.48761E-007	0.00000E+000	5.50000E-001	1.02529E-003	5	..........a	-327.66
	351	70.4	5.59890E-001	1.50754E-007	0.00000E+000	5.60000E-001	1.00489E-003	5	..........a	-327.66
	352	70.6	5.69907E-001	1.52468E-007	0.00000E+000	5.70000E-001	1.01079E-003	5	..........a	-327.66
	353	70.8	5.79940E-001	1.54510E-007	0.00000E+000	5.80000E-001	1.00939E-003	5	..........a	-327.66
	354	71	5.89971E-001	1.55882E-007	0.00000E+000	5.90000E-001	1.00159E-003	5	..........a	-327.66
[...]
	922	184.6	6.69934E-001	1.66865E-007	0.00000E+000	6.70000E-001	1.02419E-003	5	..........a	-327.66
	923	184.8	6.79904E-001	1.68396E-007	0.00000E+000	6.80000E-001	1.00579E-003	5	..........a	-327.66
	924	185	6.89864E-001	1.70178E-007	0.00000E+000	6.90000E-001	1.03939E-003	5	..........a	-327.66
	925	185.2	6.99887E-001	1.71868E-007	0.00000E+000	7.00000E-001	1.00819E-003	5	..........a	-327.66
	926	185.4	7.09960E-001	1.73760E-007	0.00000E+000	7.10000E-001	1.01579E-003	5	..........a	-327.66
	927	185.6	7.19877E-001	1.75749E-007	0.00000E+000	7.20000E-001	1.01919E-003	5	..........a	-327.66
	928	185.8	7.29862E-001	1.77725E-007	0.00000E+000	7.30000E-001	1.01709E-003	5	..........a	-327.66
	929	186	7.39883E-001	1.79862E-007	0.00000E+000	7.40000E-001	9.97192E-004	5	..........a	-327.66
	930	186.2	7.49958E-001	1.82144E-007	0.00000E+000	7.50000E-001	1.02619E-003	5	..........a	-327.66
	931	186.4	7.59869E-001	1.84213E-007	0.00000E+000	7.60000E-001	1.00149E-003	5	..........a	-327.66
	932	186.6	7.69843E-001	1.86395E-007	0.00000E+000	7.70000E-001	1.02409E-003	5	..........a	-327.66
	933	186.8	7.79875E-001	1.88649E-007	0.00000E+000	7.80000E-001	1.01099E-003	5	..........a	-327.66
	934	187	7.89958E-001	1.91094E-007	0.00000E+000	7.90000E-001	1.00789E-003	5	..........a	-327.66
	935	187.2	7.99862E-001	1.93583E-007	0.00000E+000	8.00000E-001	1.02779E-003	5	..........a	-327.66
	936	187.4	7.89958E-001	1.72620E-007	0.00000E+000	7.90000E-001	1.02509E-003	5	..........a	-327.66
	937	187.6	7.79892E-001	1.57627E-007	0.00000E+000	7.80000E-001	1.01699E-003	5	..........a	-327.66
	938	187.8	7.69865E-001	1.45658E-007	0.00000E+000	7.70000E-001	1.02399E-003	5	..........a	-327.66
	939	188	7.59885E-001	1.35586E-007	0.00000E+000	7.60000E-001	1.01579E-003	5	..........a	-327.66
	940	188.2	7.49975E-001	1.27141E-007	0.00000E+000	7.50000E-001	1.01619E-003	5	..........a	-327.66
	941	188.4	7.39914E-001	1.19862E-007	0.00000E+000	7.40000E-001	1.00769E-003	5	..........a	-327.66
	942	188.6	7.29929E-001	1.13038E-007	0.00000E+000	7.30000E-001	1.00859E-003	5	..........a	-327.66
	943	188.8	7.19903E-001	1.06864E-007	0.00000E+000	7.20000E-001	1.01959E-003	5	..........a	-327.66
	944	189	7.09974E-001	1.01404E-007	0.00000E+000	7.10000E-001	1.04439E-003	5	..........a	-327.66
	945	189.2	6.99925E-001	9.65620E-008	0.00000E+000	7.00000E-001	9.97592E-004	5	..........a	-327.66
	946	189.4	6.89905E-001	9.20189E-008	0.00000E+000	6.90000E-001	1.02179E-003	5	..........a	-327.66
	947	189.6	6.79885E-001	8.78197E-008	0.00000E+000	6.80000E-001	1.01639E-003	5	..........a	-327.66
	948	189.8	6.69944E-001	8.39777E-008	0.00000E+000	6.70000E-001	1.04709E-003	5	..........a	-327.66
	949	190	6.59936E-001	8.03625E-008	0.00000E+000	6.60000E-001	1.02719E-003	5	..........a	-327.66
	950	190.2	6.49960E-001	7.70074E-008	0.00000E+000	6.50000E-001	1.01829E-003	5	..........a	-327.66
	951	190.4	6.39897E-001	7.38203E-008	0.00000E+000	6.40000E-001	1.03999E-003	5	..........a	-327.66
	952	190.6	6.30008E-001	7.08095E-008	0.00000E+000	6.30000E-001	1.03259E-003	5	..........a	-327.66
	953	190.8	6.19954E-001	6.79233E-008	0.00000E+000	6.20000E-001	1.01409E-003	5	..........a	-327.66
	954	191	6.09947E-001	6.52153E-008	0.00000E+000	6.10000E-001	1.04309E-003	5	..........a	-327.66
	955	191.2	5.99985E-001	6.26421E-008	0.00000E+000	6.00000E-001	1.00049E-003	5	..........a	-327.66
	956	191.4	5.90001E-001	6.01337E-008	0.00000E+000	5.90000E-001	1.02639E-003	5	..........a	-327.66
	957	191.6	5.80019E-001	5.77077E-008	0.00000E+000	5.80000E-001	9.95992E-004	5	..........a	-327.66
	958	191.8	5.69964E-001	5.54609E-008	0.00000E+000	5.70000E-001	1.04089E-003	5	..........a	-327.66
	959	192	5.59932E-001	5.31409E-008	0.00000E+000	5.60000E-001	1.03179E-003	5	..........a	-327.66
	960	192.2	5.50047E-001	5.09006E-008	0.00000E+000	5.50000E-001	1.02809E-003	5	..........a	-327.66
	961	192.4	5.39994E-001	4.87441E-008	0.00000E+000	5.40000E-001	1.02239E-003	5	..........a	-327.66
	962	192.6	5.29950E-001	4.68399E-008	0.00000E+000	5.30000E-001	1.02859E-003	5	..........a	-327.66
	963	192.8	5.19969E-001	4.45878E-008	0.00000E+000	5.20000E-001	1.03839E-003	5	..........a	-327.66
	964	193	5.09972E-001	4.25202E-008	0.00000E+000	5.10000E-001	1.03479E-003	5	..........a	-327.66
	965	193.2	5.00051E-001	4.05295E-008	0.00000E+000	5.00000E-001	9.92092E-004	5	..........a	-327.66
	966	193.4	4.89947E-001	3.85816E-008	0.00000E+000	4.90000E-001	1.02399E-003	5	..........a	-327.66
	967	193.6	4.79945E-001	3.66027E-008	0.00000E+000	4.80000E-001	1.02749E-003	5	..........a	-327.66
	968	193.8	4.70031E-001	3.46876E-008	0.00000E+000	4.70000E-001	1.02549E-003	5	..........a	-327.66
	969	194	4.60021E-001	3.28336E-008	0.00000E+000	4.60000E-001	1.02909E-003	5	..........a	-327.66
	970	194.2	4.49928E-001	3.09868E-008	0.00000E+000	4.50000E-001	1.01869E-003	5	..........a	-327.66
	971	194.4	4.39943E-001	2.91593E-008	0.00000E+000	4.40000E-001	1.02029E-003	5	..........a	-327.66
	972	194.6	4.29970E-001	2.73696E-008	0.00000E+000	4.30000E-001	1.03299E-003	5	..........a	-327.66
	973	194.8	4.20031E-001	2.56060E-008	0.00000E+000	4.20000E-001	1.02099E-003	5	..........a	-327.66
	974	195	4.09940E-001	2.38624E-008	0.00000E+000	4.10000E-001	1.03549E-003	5	..........a	-327.66
	975	195.2	3.99995E-001	2.21868E-008	0.00000E+000	4.00000E-001	1.01789E-003	5	..........a	-327.66
	976	195.4	3.90040E-001	2.04585E-008	0.00000E+000	3.90000E-001	1.01599E-003	5	..........a	-327.66
	977	195.6	3.80100E-001	1.87657E-008	0.00000E+000	3.80000E-001	1.01429E-003	5	..........a	-327.66
	978	195.8	3.70044E-001	1.70918E-008	0.00000E+000	3.70000E-001	1.02149E-003	5	..........a	-327.66
	979	196	3.59997E-001	1.54053E-008	0.00000E+000	3.60000E-001	1.02689E-003	5	..........a	-327.66
	980	196.2	3.49977E-001	1.36945E-008	0.00000E+000	3.50000E-001	1.02979E-003	5	..........a	-327.66
	981	196.4	3.40074E-001	1.20161E-008	0.00000E+000	3.40000E-001	1.01399E-003	5	..........a	-327.66
	982	196.6	3.30009E-001	1.03869E-008	0.00000E+000	3.30000E-001	1.01489E-003	5	..........a	-327.66
	983	196.8	3.20033E-001	8.82902E-009	0.00000E+000	3.20000E-001	1.02309E-003	5	..........a	-327.66
	984	197	3.09993E-001	7.16295E-009	0.00000E+000	3.10000E-001	1.01669E-003	5	..........a	-327.66
	985	197.2	3.00119E-001	5.48123E-009	0.00000E+000	3.00000E-001	1.00589E-003	5	..........a	-327.66
	986	197.4	2.90032E-001	3.91312E-009	0.00000E+000	2.90000E-001	1.01459E-003	5	..........a	-327.66
	987	197.6	2.79942E-001	2.32652E-009	0.00000E+000	2.80000E-001	1.01999E-003	5	..........a	-327.66
	988	197.8	2.70059E-001	7.99246E-010	0.00000E+000	2.70000E-001	1.01499E-003	5	..........a	-327.66
	989	198	2.60058E-001	-8.20764E-010	0.00000E+000	2.60000E-001	1.01259E-003	5	..........a	-327.66
	990	198.2	2.50001E-001	-2.40430E-009	0.00000E+000	2.50000E-001	1.02149E-003	5	..........a	-327.66
	991	198.4	2.40101E-001	-3.94327E-009	0.00000E+000	2.40000E-001	1.02119E-003	5	..........a	-327.66
	992	198.6	2.30041E-001	-5.47576E-009	0.00000E+000	2.30000E-001	1.03129E-003	5	..........a	-327.66
	993	198.8	2.20140E-001	-6.97160E-009	0.00000E+000	2.20000E-001	1.02309E-003	5	..........a	-327.66
	994	199	2.10033E-001	-8.38101E-009	0.00000E+000	2.10000E-001	1.02779E-003	5	..........a	-327.66
	995	199.2	2.00063E-001	-9.81910E-009	0.00000E+000	2.00000E-001	9.99092E-004	5	..........a	-327.66
	996	199.4	1.90129E-001	-1.13785E-008	0.00000E+000	1.90000E-001	1.00699E-003	5	..........a	-327.66
	997	199.6	1.80121E-001	-1.28907E-008	0.00000E+000	1.80000E-001	1.01209E-003	5	..........a	-327.66
	998	199.8	1.70100E-001	-1.44822E-008	0.00000E+000	1.70000E-001	1.01769E-003	5	..........a	-327.66
	999	200	1.60084E-001	-1.60633E-008	0.00000E+000	1.60000E-001	1.01639E-003	5	..........a	-327.66
	1000	200.2	1.50064E-001	-1.77354E-008	0.00000E+000	1.50000E-001	1.01199E-003	5	..........a	-327.66
	1001	200.4	1.40156E-001	-1.91397E-008	0.00000E+000	1.40000E-001	9.77792E-004	5	..........a	-327.66
	1002	200.6	1.30087E-001	-2.04615E-008	0.00000E+000	1.30000E-001	1.02789E-003	5	..........a	-327.66
	1003	200.8	1.20059E-001	-2.17098E-008	0.00000E+000	1.20000E-001	1.02939E-003	5	..........a	-327.66
	1004	201	1.10116E-001	-2.30995E-008	0.00000E+000	1.10000E-001	1.02109E-003	5	..........a	-327.66
	1005	201.2	1.00162E-001	-2.45261E-008	0.00000E+000	1.00000E-001	9.99492E-004	5	..........a	-327.66
	1006	201.4	9.01237E-002	-2.59410E-008	0.00000E+000	9.00000E-002	1.00919E-003	5	..........a	-327.66
	1007	201.6	8.00366E-002	-2.74969E-008	0.00000E+000	8.00000E-002	1.02909E-003	5	..........a	-327.66
	1008	201.8	7.00650E-002	-2.91575E-008	0.00000E+000	7.00000E-002	1.01939E-003	5	..........a	-327.66
	1009	202	6.01515E-002	-3.07168E-008	0.00000E+000	6.00000E-002	1.00399E-003	5	..........a	-327.66
	1010	202.2	5.00664E-002	-3.22046E-008	0.00000E+000	5.00000E-002	1.01999E-003	5	..........a	-327.66
	1011	202.4	4.00525E-002	-3.37253E-008	0.00000E+000	4.00000E-002	1.01749E-003	5	..........a	-327.66
	1012	202.6	3.00885E-002	-3.52664E-008	0.00000E+000	3.00000E-002	1.02529E-003	5	..........a	-327.66
	1013	202.8	2.02138E-002	-3.68693E-008	0.00000E+000	2.00000E-002	1.01959E-003	5	..........a	-327.66
	1014	203	1.01219E-002	-3.85073E-008	0.00000E+000	1.00000E-002	1.02839E-003	5	..........a	-327.66
	1015	203.2	5.90917E-005	-4.02789E-008	0.00000E+000	7.45058E-009	1.03229E-003	5	..........a	-327.66
	1016	203.4	-9.88511E-003	-4.20955E-008	0.00000E+000	-1.00000E-002	1.01209E-003	5	..........a	-327.66
	1017	203.6	-1.98748E-002	-4.37030E-008	0.00000E+000	-2.00000E-002	1.01219E-003	5	..........a	-327.66
	1018	203.8	-2.98942E-002	-4.52376E-008	0.00000E+000	-3.00000E-002	1.01699E-003	5	..........a	-327.66
	1019	204	-3.98747E-002	-4.67184E-008	0.00000E+000	-4.00000E-002	1.00229E-003	5	..........a	-327.66
	1020	204.2	-4.99119E-002	-4.80439E-008	0.00000E+000	-5.00000E-002	1.02899E-003	5	..........a	-327.66
	1021	204.4	-5.98212E-002	-4.93027E-008	0.00000E+000	-6.00000E-002	1.00199E-003	5	..........a	-327.66
	1022	204.6	-6.98740E-002	-5.04774E-008	0.00000E+000	-7.00000E-002	1.01839E-003	5	..........a	-327.66
	1023	204.8	-7.99166E-002	-5.16448E-008	0.00000E+000	-8.00000E-002	1.02089E-003	5	..........a	-327.66
	1024	205	-8.98762E-002	-5.28522E-008	0.00000E+000	-9.00000E-002	1.00449E-003	5	..........a	-327.66
	1025	205.2	-9.98494E-002	-5.40889E-008	0.00000E+000	-1.00000E-001	9.96492E-004	5	..........a	-327.66
	1026	205.4	-1.09911E-001	-5.52562E-008	0.00000E+000	-1.10000E-001	1.00289E-003	5	..........a	-327.66
	1027	205.6	-1.19889E-001	-5.63463E-008	0.00000E+000	-1.20000E-001	1.03559E-003	5	..........a	-327.66
	1028	205.8	-1.29927E-001	-5.75769E-008	0.00000E+000	-1.30000E-001	1.02209E-003	5	..........a	-327.66
	1029	206	-1.39817E-001	-5.86809E-008	0.00000E+000	-1.40000E-001	1.03219E-003	5	..........a	-327.66
	1030	206.2	-1.49923E-001	-5.98503E-008	0.00000E+000	-1.50000E-001	1.02179E-003	5	..........a	-327.66
	1031	206.4	-1.59925E-001	-6.10023E-008	0.00000E+000	-1.60000E-001	1.01519E-003	5	..........a	-327.66
	1032	206.6	-1.69862E-001	-6.21331E-008	0.00000E+000	-1.70000E-001	1.02499E-003	5	..........a	-327.66
	1033	206.8	-1.79857E-001	-6.32487E-008	0.00000E+000	-1.80000E-001	1.01749E-003	5	..........a	-327.66
	1034	207	-1.89963E-001	-6.43195E-008	0.00000E+000	-1.90000E-001	1.01099E-003	5	..........a	-327.66
	1035	207.2	-1.99897E-001	-6.54829E-008	0.00000E+000	-2.00000E-001	1.01989E-003	5	..........a	-327.66
	1036	207.4	-2.09871E-001	-6.67194E-008	0.00000E+000	-2.10000E-001	1.01689E-003	5	..........a	-327.66
	1037	207.6	-2.19831E-001	-6.78881E-008	0.00000E+000	-2.20000E-001	1.01459E-003	5	..........a	-327.66
	1038	207.8	-2.29914E-001	-6.90798E-008	0.00000E+000	-2.30000E-001	1.01389E-003	5	..........a	-327.66
	1039	208	-2.39852E-001	-7.02610E-008	0.00000E+000	-2.40000E-001	1.02379E-003	5	..........a	-327.66
	1040	208.2	-2.49854E-001	-7.14366E-008	0.00000E+000	-2.50000E-001	1.01779E-003	5	..........a	-327.66
	1041	208.4	-2.59765E-001	-7.25969E-008	0.00000E+000	-2.60000E-001	1.00379E-003	5	..........a	-327.66
	1042	208.6	-2.69848E-001	-7.37931E-008	0.00000E+000	-2.70000E-001	1.00449E-003	5	..........a	-327.66
	1043	208.8	-2.79878E-001	-7.49977E-008	0.00000E+000	-2.80000E-001	1.02639E-003	5	..........a	-327.66
	1044	209	-2.89866E-001	-7.61059E-008	0.00000E+000	-2.90000E-001	1.00619E-003	5	..........a	-327.66
	1045	209.2	-2.99816E-001	-7.71456E-008	0.00000E+000	-3.00000E-001	9.97692E-004	5	..........a	-327.66
	1046	209.4	-3.09881E-001	-7.82027E-008	0.00000E+000	-3.10000E-001	1.01079E-003	5	..........a	-327.66
	1047	209.6	-3.19840E-001	-7.92859E-008	0.00000E+000	-3.20000E-001	1.01189E-003	5	..........a	-327.66
	1048	209.8	-3.29873E-001	-8.03992E-008	0.00000E+000	-3.30000E-001	1.03019E-003	5	..........a	-327.66
	1049	210	-3.39762E-001	-8.15570E-008	0.00000E+000	-3.40000E-001	1.00549E-003	5	..........a	-327.66
	1050	210.2	-3.49857E-001	-8.26626E-008	0.00000E+000	-3.50000E-001	1.00999E-003	5	..........a	-327.66
	1051	210.4	-3.59904E-001	-8.38409E-008	0.00000E+000	-3.60000E-001	1.03369E-003	5	..........a	-327.66
	1052	210.6	-3.69830E-001	-8.50171E-008	0.00000E+000	-3.70000E-001	1.02019E-003	5	..........a	-327.66
	1053	210.8	-3.79795E-001	-8.62360E-008	0.00000E+000	-3.80000E-001	1.02509E-003	5	..........a	-327.66
	1054	211	-3.89863E-001	-8.74655E-008	0.00000E+000	-3.90000E-001	1.01309E-003	5	..........a	-327.66
	1055	211.2	-3.99848E-001	-8.87094E-008	0.00000E+000	-4.00000E-001	1.01579E-003	5	..........a	-327.66
	1056	211.4	-4.09834E-001	-8.99784E-008	0.00000E+000	-4.10000E-001	1.02949E-003	5	..........a	-327.66
	1057	211.6	-4.19745E-001	-9.12750E-008	0.00000E+000	-4.20000E-001	1.00689E-003	5	..........a	-327.66
	1058	211.8	-4.29826E-001	-9.26000E-008	0.00000E+000	-4.30000E-001	1.01149E-003	5	..........a	-327.66
	1059	212	-4.39850E-001	-9.40384E-008	0.00000E+000	-4.40000E-001	1.01909E-003	5	..........a	-327.66
	1060	212.2	-4.49820E-001	-9.53551E-008	0.00000E+000	-4.50000E-001	9.98092E-004	5	..........a	-327.66
	1061	212.4	-4.59754E-001	-9.67673E-008	0.00000E+000	-4.60000E-001	9.99292E-004	5	..........a	-327.66
	1062	212.6	-4.69813E-001	-9.82738E-008	0.00000E+000	-4.70000E-001	1.01089E-003	5	..........a	-327.66
	1063	212.8	-4.79824E-001	-9.97693E-008	0.00000E+000	-4.80000E-001	1.02599E-003	5	..........a	-327.66
	1064	213	-4.89817E-001	-1.01352E-007	0.00000E+000	-4.90000E-001	1.02539E-003	5	..........a	-327.66
	1065	213.2	-4.99790E-001	-1.02931E-007	0.00000E+000	-5.00000E-001	1.00389E-003	5	..........a	-327.66
	1066	213.4	-5.09827E-001	-1.04512E-007	0.00000E+000	-5.10000E-001	9.98592E-004	5	..........a	-327.66
	1067	213.6	-5.19813E-001	-1.06240E-007	0.00000E+000	-5.20000E-001	1.03479E-003	5	..........a	-327.66
	1068	213.8	-5.29819E-001	-1.07944E-007	0.00000E+000	-5.30000E-001	1.00719E-003	5	..........a	-327.66
	1069	214	-5.39737E-001	-1.09749E-007	0.00000E+000	-5.40000E-001	1.03259E-003	5	..........a	-327.66
	1070	214.2	-5.49828E-001	-1.11590E-007	0.00000E+000	-5.50000E-001	1.00819E-003	5	..........a	-327.66
	1071	214.4	-5.59835E-001	-1.13500E-007	0.00000E+000	-5.60000E-001	1.03129E-003	5	..........a	-327.66
	1072	214.6	-5.69843E-001	-1.15413E-007	0.00000E+000	-5.70000E-001	1.02469E-003	5	..........a	-327.66
	1073	214.8	-5.79772E-001	-1.17377E-007	0.00000E+000	-5.80000E-001	1.02779E-003	5	..........a	-327.66
	1074	215	-5.89839E-001	-1.19419E-007	0.00000E+000	-5.90000E-001	1.02109E-003	5	..........a	-327.66
	1075	215.2	-5.99895E-001	-1.21432E-007	0.00000E+000	-6.00000E-001	1.00349E-003	5	..........a	-327.66
CURVE5	TABLE
	Pt	T	Vf	Im	Vu	Sig	Ach	IERange	Over	Temp
	#	s	V vs. Ref.	A	V	V	V	#	bits	deg C
	1076	215.4	-5.89859E-001	-1.04298E-007	0.00000E+000	-5.90000E-001	1.01739E-003	5	..........a	-327.66
	1077	215.6	-5.79786E-001	-9.29831E-008	0.00000E+000	-5.80000E-001	1.00609E-003	5	..........a	-327.66
	1078	215.8	-5.69871E-001	-8.42023E-008	0.00000E+000	-5.70000E-001	1.01679E-003	5	..........a	-327.66
	1079	216	-5.59855E-001	-7.68228E-008	0.00000E+000	-5.60000E-001	1.02829E-003	5	..........a	-327.66
	1080	216.2	-5.49842E-001	-7.04768E-008	0.00000E+000	-5.50000E-001	9.96092E-004	5	..........a	-327.66
	1081	216.4	-5.39757E-001	-6.48257E-008	0.00000E+000	-5.40000E-001	1.01039E-003	5	..........a	-327.66
	1082	216.6	-5.29828E-001	-5.96648E-008	0.00000E+000	-5.30000E-001	1.01289E-003	5	..........a	-327.66
	1083	216.8	-5.19864E-001	-5.50037E-008	0.00000E+000	-5.20000E-001	1.02569E-003	5	..........a	-327.66
	1084	217	-5.09845E-001	-5.07130E-008	0.00000E+000	-5.10000E-001	1.03479E-003	5	..........a	-327.66
	1085	217.2	-4.99822E-001	-4.67181E-008	0.00000E+000	-5.00000E-001	1.01919E-003	5	..........a	-327.66
	1086	217.4	-4.89878E-001	-4.29793E-008	0.00000E+000	-4.90000E-001	1.01399E-003	5	..........a	-327.66
	1087	217.6	-4.79840E-001	-3.94293E-008	0.00000E+000	-4.80000E-001	1.03449E-003	5	..........a	-327.66
	1088	217.8	-4.69845E-001	-3.61628E-008	0.00000E+000	-4.70000E-001	9.95292E-004	5	..........a	-327.66
	1089	218	-4.59800E-001	-3.29923E-008	0.00000E+000	-4.60000E-001	1.02879E-003	5	..........a	-327.66
	1090	218.2	-4.49837E-001	-2.99927E-008	0.00000E+000	-4.50000E-001	1.03419E-003	5	..........a	-327.66
	1091	218.4	-4.39876E-001	-2.71537E-008	0.00000E+000	-4.40000E-001	9.97892E-004	5	..........a	-327.66
	1092	218.6	-4.29845E-001	-2.44092E-008	0.00000E+000	-4.30000E-001	1.03349E-003	5	..........a	-327.66
	1093	218.8	-4.19779E-001	-2.17948E-008	0.00000E+000	-4.20000E-001	9.95192E-004	5	..........a	-327.66
	1094	219	-4.09865E-001	-1.92752E-008	0.00000E+000	-4.10000E-001	1.00589E-003	5	..........a	-327.66
	1095	219.2	-3.99872E-001	-1.68536E-008	0.00000E+000	-4.00000E-001	1.00739E-003	5	..........a	-327.66
	1096	219.4	-3.89895E-001	-1.45047E-008	0.00000E+000	-3.90000E-001	1.01779E-003	5	..........a	-327.66
	1097	219.6	-3.79849E-001	-1.22233E-008	0.00000E+000	-3.80000E-001	1.01639E-003	5	..........a	-327.66
	1098	219.8	-3.69848E-001	-9.99323E-009	0.00000E+000	-3.70000E-001	9.90892E-004	5	..........a	-327.66
	1099	220	-3.59915E-001	-7.85280E-009	0.00000E+000	-3.60000E-001	1.01989E-003	5	..........a	-327.66
	1100	220.2	-3.49875E-001	-5.76629E-009	0.00000E+000	-3.50000E-001	1.01959E-003	5	..........a	-327.66
	1101	220.4	-3.39838E-001	-3.73194E-009	0.00000E+000	-3.40000E-001	1.01859E-003	5	..........a	-327.66
	1102	220.6	-3.29947E-001	-1.73684E-009	0.00000E+000	-3.30000E-001	1.01159E-003	5	..........a	-327.66
	1103	220.8	-3.19892E-001	2.36785E-010	0.00000E+000	-3.20000E-001	1.01949E-003	5	..........a	-327.66
	1104	221	-3.09945E-001	2.18572E-009	0.00000E+000	-3.10000E-001	1.02579E-003	5	..........a	-327.66
	1105	221.2	-2.99867E-001	4.06760E-009	0.00000E+000	-3.00000E-001	1.00329E-003	5	..........a	-327.66
	1106	221.4	-2.89936E-001	5.91649E-009	0.00000E+000	-2.90000E-001	1.05139E-003	5	..........a	-327.66
	1107	221.6	-2.79963E-001	7.75977E-009	0.00000E+000	-2.80000E-001	1.01299E-003	5	..........a	-327.66
	1108	221.8	-2.69882E-001	9.56155E-009	0.00000E+000	-2.70000E-001	1.00329E-003	5	..........a	-327.66
	1109	222	-2.59807E-001	1.13733E-008	0.00000E+000	-2.60000E-001	1.01199E-003	5	..........a	-327.66
	1110	222.2	-2.49928E-001	1.31338E-008	0.00000E+000	-2.50000E-001	1.02149E-003	5	..........a	-327.66
	1111	222.4	-2.39939E-001	1.48988E-008	0.00000E+000	-2.40000E-001	1.02659E-003	5	..........a	-327.66
	1112	222.6	-2.29937E-001	1.66440E-008	0.00000E+000	-2.30000E-001	1.01909E-003	5	..........a	-327.66
	1113	222.8	-2.19892E-001	1.83995E-008	0.00000E+000	-2.20000E-001	1.02079E-003	5	..........a	-327.66
	1114	223	-2.09929E-001	2.01204E-008	0.00000E+000	-2.10000E-001	1.02199E-003	5	..........a	-327.66
	1115	223.2	-1.99969E-001	2.18616E-008	0.00000E+000	-2.00000E-001	1.00369E-003	5	..........a	-327.66
	1116	223.4	-1.89998E-001	2.35845E-008	0.00000E+000	-1.90000E-001	9.99092E-004	5	..........a	-327.66
	1117	223.6	-1.79922E-001	2.53135E-008	0.00000E+000	-1.80000E-001	1.00919E-003	5	..........a	-327.66
	1118	223.8	-1.69901E-001	2.70515E-008	0.00000E+000	-1.70000E-001	1.01359E-003	5	..........a	-327.66
	1119	224	-1.60027E-001	2.87679E-008	0.00000E+000	-1.60000E-001	1.01849E-003	5	..........a	-327.66
	1120	224.2	-1.49967E-001	3.04994E-008	0.00000E+000	-1.50000E-001	1.01049E-003	5	..........a	-327.66