File: example_project/raw_outputs/20240424_O_GM0016_HL03_E04_CV50.DTA
EXPLAIN
TAG	CV
TITLE	LABEL	Cyclic Voltammetry	Test &Identifier
DATE	LABEL	4/24/2024	Date
TIME	LABEL	17:32:48	Time
NOTES	NOTES	1	&Notes...

PSTAT	PSTAT	REF600P-43058	Potentiostat
VINIT	POTEN	0.00000E+000	T	Initial &E (V)
VLIMIT1	POTEN	-6.00000E-001	F	Scan Limit &1 (V)
VLIMIT2	POTEN	8.00000E-001	F	Scan Limit &2 (V)
VFINAL	POTEN	0.00000E+000	T	Final &E (V)
SCANRATE	QUANT	4.99999E+001	&Scan Rate (mV/s)
STEPSIZE	QUANT	1.00000E+001	St&ep Size (mV)
CYCLES	IQUANT	4	C&ycles (#)
IMODE	SELECTOR	0	I/E Range &Mode
IRANGE	QUANT	1.00000E-005	&Max Current (mA)
AREA	QUANT	1.00000E+000	Electrode &Area (cm^2)
ELECTRODETYPE	SELECTOR	0	Electrode Type
STRIPPING	TOGGLE	F	Used for Stripping
POLARITY	TOGGLE	F	Signal Polarity
CONDIT	TWOPARAM	F	1.50000E+001	0.00000E+000	Conditionin&g	Time(s)	E(V)
DELAY	TWOPARAM	T	1.00000E+001	0.00000E+000	Init. De&lay	Time(s)	Stab.(mV/s)
EQDELAY	QUANT	1.00000E+001	Equil. &Time (s)
IRCOMP	SELECTOR	0	IRCom&p
PFCOR	QUANT	5.00000E+001	PF Corr. (ohm)
SAMPLINGMODE	SELECTOR	1	Sampling &Mode
OCVCURVE	TABLE	39
	Pt	T	Vf	Vm	Ach	Over	Temp
	#	s	V vs. Ref.	V	V	bits	deg C
	0	0.258333	-1.54465E-001	-1.54465E-001	2.13726E-004	..........a	-327.66
	1	0.516667	-1.54466E-001	-1.54500E-001	2.33126E-004	..........a	-327.66
	2	0.775	-1.54470E-001	-1.54542E-001	2.04926E-004	..........a	-327.66
	3	1.03333	-1.54483E-001	-1.54580E-001	2.26859E-004	..........a	-327.66
	4	1.29167	-1.54506E-001	-1.54625E-001	2.10792E-004	..........a	-327.66
	5	1.55	-1.54539E-001	-1.54661E-001	2.29526E-004	..........a	-327.66
	6	1.80833	-1.54578E-001	-1.54715E-001	2.09926E-004	..........a	-327.66
	7	2.06667	-1.54620E-001	-1.54747E-001	2.24859E-004	..........a	-327.66
	8	2.325	-1.54663E-001	-1.54817E-001	2.05459E-004	..........a	-327.66
	9	2.58333	-1.54708E-001	-1.54856E-001	2.10659E-004	..........a	-327.66
	10	2.84167	-1.54755E-001	-1.54902E-001	2.29726E-004	..........a	-327.66
	11	3.1	-1.54804E-001	-1.54960E-001	2.20792E-004	..........a	-327.66
	12	3.35833	-1.54853E-001	-1.55001E-001	2.08926E-004	..........a	-327.66
	13	3.61667	-1.54902E-001	-1.55050E-001	2.34059E-004	..........a	-327.66
	14	3.875	-1.54951E-001	-1.55101E-001	2.12326E-004	..........a	-327.66
	15	4.13333	-1.54999E-001	-1.55151E-001	2.16859E-004	..........a	-327.66
	16	4.39167	-1.55048E-001	-1.55203E-001	2.13659E-004	..........a	-327.66
	17	4.65	-1.55098E-001	-1.55252E-001	2.10459E-004	..........a	-327.66
	18	4.90833	-1.55148E-001	-1.55305E-001	2.31326E-004	..........a	-327.66
	19	5.16667	-1.55199E-001	-1.55361E-001	2.23326E-004	..........a	-327.66
	20	5.425	-1.55250E-001	-1.55408E-001	2.13392E-004	..........a	-327.66
	21	5.68333	-1.55302E-001	-1.55462E-001	2.24926E-004	..........a	-327.66
	22	5.94167	-1.55354E-001	-1.55518E-001	2.14859E-004	..........a	-327.66
	23	6.2	-1.55407E-001	-1.55564E-001	2.07326E-004	..........a	-327.66
	24	6.45833	-1.55459E-001	-1.55617E-001	2.23992E-004	..........a	-327.66
	25	6.71667	-1.55511E-001	-1.55674E-001	2.24526E-004	..........a	-327.66
	26	6.975	-1.55562E-001	-1.55716E-001	2.22792E-004	..........a	-327.66
	27	7.23333	-1.55614E-001	-1.55771E-001	2.21459E-004	..........a	-327.66
	28	7.49167	-1.55665E-001	-1.55825E-001	2.10792E-004	..........a	-327.66
	29	7.75	-1.55716E-001	-1.55867E-001	2.19726E-004	..........a	-327.66
	30	8.00833	-1.55767E-001	-1.55924E-001	2.15726E-004	..........a	-327.66
	31	8.26667	-1.55817E-001	-1.55969E-001	2.12392E-004	..........a	-327.66
	32	8.525	-1.55867E-001	-1.56017E-001	2.28259E-004	..........a	-327.66
	33	8.78333	-1.55917E-001	-1.56068E-001	2.19592E-004	..........a	-327.66
	34	9.04167	-1.55966E-001	-1.56108E-001	2.24126E-004	..........a	-327.66
	35	9.3	-1.56014E-001	-1.56156E-001	2.18992E-004	..........a	-327.66
	36	9.5583	-1.56060E-001	-1.56187E-001	2.25259E-004	..........a	-327.66
	37	9.8167	-1.56105E-001	-1.56237E-001	2.18326E-004	..........a	-327.66
	38	10.075	-1.56148E-001	-1.56271E-001	2.29459E-004	..........a	-327.66
EOC	QUANT	-0.1561476	Open Circuit (V)
PSTATMODEL	IQUANT	7	Pstat Model
PSTATSECTION	LABEL	REF600P-43058	Pstat Section
PSTATSERIALNO	LABEL	43058	Pstat Serial Number
CTRLMODE	IQUANT	1	Control Mode
ELECTROMETER	IQUANT	0	RE=0 or CS=1
IESTAB	IQUANT	2	I/E Stability
CASPEED	IQUANT	4	Control Amp Speed
CONVENTION	IQUANT	1	Current Convention
ICHRANGE	IQUANT	2	Ich Range
ICHRANGEMODE	TOGGLE	F	Ich Auto Range
ICHOFFSETENABLE	TOGGLE	F	Ich Offset Enable
ICHOFFSET	QUANT	0	Ich Offset (V)
ICHFILTER	IQUANT	2	Ich Filter
VCHRANGE	IQUANT	2	Vch Range
VCHRANGEMODE	TOGGLE	F	Vch Auto Range
VCHOFFSETENABLE	TOGGLE	F	Vch Offset Enable
VCHOFFSET	QUANT	0	Vch Offset (V)
VCHFILTER	IQUANT	2	Vch Filter
ACHRANGE	IQUANT	2	Ach Range
ACHOFFSETENABLE	TOGGLE	F	Ach Offset Enable
ACHOFFSET	QUANT	0	Ach Offset (V)
ACHFILTER	IQUANT	1	Ach Filter
IERANGELOWERLIMIT	IQUANT	1	I/E Range Lower Limit
IERANGEMODE	TOGGLE	T	I/E AutoRange
IERANGE	IQUANT	4	I/E Range
POSFEEDENABLE	TOGGLE	F	Positive Feedback IR Comp
POSFEEDRESISTANCE	QUANT	0	Positive Feedback Resistance (ohm)
ACHSELECT	IQUANT	4	Ach Select
SENSECABLEID	IQUANT	7	Sense Cable ID
PWRCABLEID	IQUANT	7	Power Cable ID
DCCALDATE	LABEL	3/22/2024	DC Calibration Date
ACCALDATE	LABEL	3/22/2024	AC Calibration Date
THERMOSELECT	IQUANT	1	Thermo Select
FRAMEWORKVERSION	LABEL	7.8.4	Framework Version
INSTRUMENTVERSION	LABEL	4.42	Instrument Version
CURVE1	TABLE
	Pt	T	Vf	Im	Vu	Sig	Ach	IERange	Over	Temp
	#	s	V vs. Ref.	A	V	V	V	#	bits	deg C
	0	0.2	-1.56132E-001	4.29012E-010	0.00000E+000	-1.56150E-001	9.64392E-004	5	..........a	-327.66
	1	0.4	-1.66130E-001	-1.76027E-009	0.00000E+000	-1.66150E-001	9.60992E-004	5	..........a	-327.66
	2	0.6	-1.76118E-001	-3.23711E-009	0.00000E+000	-1.76150E-001	9.76492E-004	5	..........a	-327.66
	3	0.8	-1.86025E-001	-4.57651E-009	0.00000E+000	-1.86150E-001	9.69592E-004	5	..........a	-327.66
	4	1	-1.96122E-001	-5.81849E-009	0.00000E+000	-1.96150E-001	9.80992E-004	5	..........a	-327.66
	5	1.2	-2.06071E-001	-6.98951E-009	0.00000E+000	-2.06150E-001	9.86092E-004	5	..........a	-327.66
	6	1.4	-2.15977E-001	-8.16054E-009	0.00000E+000	-2.16150E-001	9.60892E-004	5	..........a	-327.66
	7	1.6	-2.26015E-001	-9.28396E-009	0.00000E+000	-2.26150E-001	9.72992E-004	5	..........a	-327.66
	8	1.8	-2.36077E-001	-1.04238E-008	0.00000E+000	-2.36150E-001	9.57792E-004	5	..........a	-327.66
	9	2	-2.46045E-001	-1.14731E-008	0.00000E+000	-2.46150E-001	9.63492E-004	5	..........a	-327.66
	10	2.2	-2.56091E-001	-1.25436E-008	0.00000E+000	-2.56150E-001	9.54192E-004	5	..........a	-327.66
	11	2.4	-2.65945E-001	-1.35891E-008	0.00000E+000	-2.66150E-001	9.65592E-004	5	..........a	-327.66
	12	2.6	-2.76062E-001	-1.46578E-008	0.00000E+000	-2.76150E-001	9.68492E-004	5	..........a	-327.66
	13	2.8	-2.86067E-001	-1.57148E-008	0.00000E+000	-2.86150E-001	9.63892E-004	5	..........a	-327.66
	14	3	-2.96071E-001	-1.67184E-008	0.00000E+000	-2.96150E-001	9.69592E-004	5	..........a	-327.66
	15	3.2	-3.06022E-001	-1.77435E-008	0.00000E+000	-3.06150E-001	9.83792E-004	5	..........a	-327.66
	16	3.4	-3.16068E-001	-1.87623E-008	0.00000E+000	-3.16150E-001	9.66792E-004	5	..........a	-327.66
	17	3.6	-3.26033E-001	-1.97538E-008	0.00000E+000	-3.26150E-001	9.69592E-004	5	..........a	-327.66
	18	3.8	-3.36073E-001	-2.07933E-008	0.00000E+000	-3.36150E-001	9.71792E-004	5	..........a	-327.66
	19	4	-3.46049E-001	-2.17568E-008	0.00000E+000	-3.46150E-001	9.77092E-004	5	..........a	-327.66
	20	4.2	-3.56075E-001	-2.27503E-008	0.00000E+000	-3.56150E-001	9.54892E-004	5	..........a	-327.66
	21	4.4	-3.66013E-001	-2.37333E-008	0.00000E+000	-3.66150E-001	9.84492E-004	5	..........a	-327.66
	22	4.6	-3.76044E-001	-2.47121E-008	0.00000E+000	-3.76150E-001	9.64092E-004	5	..........a	-327.66
	23	4.8	-3.86003E-001	-2.56781E-008	0.00000E+000	-3.86150E-001	9.78792E-004	5	..........a	-327.66
	24	5	-3.96071E-001	-2.66551E-008	0.00000E+000	-3.96150E-001	9.76092E-004	5	..........a	-327.66
	25	5.2	-4.06075E-001	-2.76065E-008	0.00000E+000	-4.06150E-001	9.72292E-004	5	..........a	-327.66
	26	5.4	-4.16033E-001	-2.86055E-008	0.00000E+000	-4.16150E-001	9.78192E-004	5	..........a	-327.66
	27	5.6	-4.25985E-001	-2.95232E-008	0.00000E+000	-4.26150E-001	9.76592E-004	5	..........a	-327.66
	28	5.8	-4.36048E-001	-3.05169E-008	0.00000E+000	-4.36150E-001	9.68492E-004	5	..........a	-327.66
	29	6	-4.45934E-001	-3.14609E-008	0.00000E+000	-4.46150E-001	9.67092E-004	5	..........a	-327.66
	30	6.2	-4.56047E-001	-3.24208E-008	0.00000E+000	-4.56150E-001	9.67392E-004	5	..........a	-327.66
	31	6.4	-4.65985E-001	-3.33786E-008	0.00000E+000	-4.66150E-001	9.81592E-004	5	..........a	-327.66
	32	6.6	-4.75987E-001	-3.43154E-008	0.00000E+000	-4.76150E-001	9.78392E-004	5	..........a	-327.66
	33	6.8	-4.85996E-001	-3.52860E-008	0.00000E+000	-4.86150E-001	9.78092E-004	5	..........a	-327.66
	34	7	-4.95995E-001	-3.62533E-008	0.00000E+000	-4.96150E-001	9.63492E-004	5	..........a	-327.66
	35	7.2	-5.05976E-001	-3.72327E-008	0.00000E+000	-5.06150E-001	9.70592E-004	5	..........a	-327.66
	36	7.4	-5.16017E-001	-3.82052E-008	0.00000E+000	-5.16150E-001	9.67192E-004	5	..........a	-327.66
	37	7.6	-5.25992E-001	-3.91951E-008	0.00000E+000	-5.26150E-001	9.82892E-004	5	..........a	-327.66
	38	7.8	-5.36027E-001	-4.02419E-008	0.00000E+000	-5.36150E-001	9.84992E-004	5	..........a	-327.66
	39	8	-5.45978E-001	-4.13530E-008	0.00000E+000	-5.46150E-001	9.76892E-004	5	..........a	-327.66
	40	8.2	-5.56018E-001	-4.24137E-008	0.00000E+000	-5.56150E-001	9.66592E-004	5	..........a	-327.66
	41	8.4	-5.66040E-001	-4.35172E-008	0.00000E+000	-5.66150E-001	9.71792E-004	5	..........a	-327.66
	42	8.6	-5.76018E-001	-4.47293E-008	0.00000E+000	-5.76150E-001	9.72892E-004	5	..........a	-327.66
	43	8.8	-5.85965E-001	-4.59764E-008	0.00000E+000	-5.86150E-001	9.88792E-004	5	..........a	-327.66
	44	9	-5.96015E-001	-4.73491E-008	0.00000E+000	-5.96150E-001	9.60892E-004	5	..........a	-327.66
	45	9.2	-5.85984E-001	-4.04748E-008	0.00000E+000	-5.86150E-001	9.92092E-004	5	..........a	-327.66
	46	9.4	-5.76016E-001	-3.63306E-008	0.00000E+000	-5.76150E-001	9.75392E-004	5	..........a	-327.66
	47	9.6	-5.66078E-001	-3.32232E-008	0.00000E+000	-5.66150E-001	9.71592E-004	5	..........a	-327.66
	48	9.8	-5.56025E-001	-3.06854E-008	0.00000E+000	-5.56150E-001	9.61292E-004	5	..........a	-327.66
	49	10	-5.46013E-001	-2.84439E-008	0.00000E+000	-5.46150E-001	9.74692E-004	5	..........a	-327.66
	50	10.2	-5.36047E-001	-2.64685E-008	0.00000E+000	-5.36150E-001	9.83092E-004	5	..........a	-327.66
	51	10.4	-5.25993E-001	-2.47012E-008	0.00000E+000	-5.26150E-001	9.85692E-004	5	..........a	-327.66
	52	10.6	-5.16047E-001	-2.30494E-008	0.00000E+000	-5.16150E-001	9.82292E-004	5	..........a	-327.66
	53	10.8	-5.05976E-001	-2.14903E-008	0.00000E+000	-5.06150E-001	9.87492E-004	5	..........a	-327.66
	54	11	-4.95935E-001	-2.00211E-008	0.00000E+000	-4.96150E-001	9.73292E-004	5	..........a	-327.66
	55	11.2	-4.86006E-001	-1.86542E-008	0.00000E+000	-4.86150E-001	9.69192E-004	5	..........a	-327.66
	56	11.4	-4.76013E-001	-1.73241E-008	0.00000E+000	-4.76150E-001	9.77692E-004	5	..........a	-327.66
	57	11.6	-4.65960E-001	-1.60504E-008	0.00000E+000	-4.66150E-001	9.83592E-004	5	..........a	-327.66
	58	11.8	-4.56005E-001	-1.47878E-008	0.00000E+000	-4.56150E-001	9.68392E-004	5	..........a	-327.66
	59	12	-4.45961E-001	-1.35973E-008	0.00000E+000	-4.46150E-001	9.61592E-004	5	..........a	-327.66
	60	12.2	-4.36038E-001	-1.24253E-008	0.00000E+000	-4.36150E-001	9.74792E-004	5	..........a	-327.66
	61	12.4	-4.25989E-001	-1.12756E-008	0.00000E+000	-4.26150E-001	9.76492E-004	5	..........a	-327.66
	62	12.6	-4.16023E-001	-1.01890E-008	0.00000E+000	-4.16150E-001	9.65492E-004	5	..........a	-327.66
	63	12.8	-4.06133E-001	-9.07367E-009	0.00000E+000	-4.06150E-001	9.82792E-004	5	..........a	-327.66
	64	13	-3.96038E-001	-8.03952E-009	0.00000E+000	-3.96150E-001	9.48892E-004	5	..........a	-327.66
	65	13.2	-3.86021E-001	-6.93767E-009	0.00000E+000	-3.86150E-001	9.71792E-004	5	..........a	-327.66
	66	13.4	-3.76074E-001	-5.92037E-009	0.00000E+000	-3.76150E-001	9.70592E-004	5	..........a	-327.66
	67	13.6	-3.66007E-001	-4.89624E-009	0.00000E+000	-3.66150E-001	9.79492E-004	5	..........a	-327.66
	68	13.8	-3.56105E-001	-3.90587E-009	0.00000E+000	-3.56150E-001	9.75892E-004	5	..........a	-327.66
	69	14	-3.46079E-001	-2.93435E-009	0.00000E+000	-3.46150E-001	9.66592E-004	5	..........a	-327.66
	70	14.2	-3.36104E-001	-1.95740E-009	0.00000E+000	-3.36150E-001	9.74092E-004	5	..........a	-327.66
	71	14.4	-3.26091E-001	-9.92081E-010	0.00000E+000	-3.26150E-001	9.92892E-004	5	..........a	-327.66
	72	14.6	-3.16074E-001	-1.06667E-010	0.00000E+000	-3.16150E-001	9.62692E-004	5	..........a	-327.66
	73	14.8	-3.06009E-001	8.51768E-010	0.00000E+000	-3.06150E-001	9.83592E-004	5	..........a	-327.66
	74	15	-2.96077E-001	1.77514E-009	0.00000E+000	-2.96150E-001	9.78292E-004	5	..........a	-327.66
	75	15.2	-2.86131E-001	2.67684E-009	0.00000E+000	-2.86150E-001	9.60192E-004	5	..........a	-327.66
	76	15.4	-2.76085E-001	3.56950E-009	0.00000E+000	-2.76150E-001	9.81092E-004	5	..........a	-327.66
	77	15.6	-2.65990E-001	4.45816E-009	0.00000E+000	-2.66150E-001	9.79892E-004	5	..........a	-327.66
	78	15.8	-2.56106E-001	5.28819E-009	0.00000E+000	-2.56150E-001	9.82892E-004	5	..........a	-327.66
	79	16	-2.46084E-001	6.15647E-009	0.00000E+000	-2.46150E-001	9.90292E-004	5	..........a	-327.66
	80	16.2	-2.36060E-001	7.00706E-009	0.00000E+000	-2.36150E-001	9.56292E-004	5	..........a	-327.66
	81	16.4	-2.26048E-001	7.82935E-009	0.00000E+000	-2.26150E-001	9.68992E-004	5	..........a	-327.66
	82	16.6	-2.16036E-001	8.67451E-009	0.00000E+000	-2.16150E-001	9.90392E-004	5	..........a	-327.66
	83	16.8	-2.06073E-001	9.49559E-009	0.00000E+000	-2.06150E-001	9.85792E-004	5	..........a	-327.66
	84	17	-1.96128E-001	1.02637E-008	0.00000E+000	-1.96150E-001	9.73692E-004	5	..........a	-327.66
	85	17.2	-1.86027E-001	1.11162E-008	0.00000E+000	-1.86150E-001	9.79292E-004	5	..........a	-327.66
	86	17.4	-1.76105E-001	1.19189E-008	0.00000E+000	-1.76150E-001	9.70292E-004	5	..........a	-327.66
	87	17.6	-1.66182E-001	1.27125E-008	0.00000E+000	-1.66150E-001	9.73992E-004	5	..........a	-327.66
	88	17.8	-1.56116E-001	1.35220E-008	0.00000E+000	-1.56150E-001	9.70992E-004	5	..........a	-327.66
	89	18	-1.46078E-001	1.43403E-008	0.00000E+000	-1.46150E-001	9.74892E-004	5	..........a	-327.66
	90	18.2	-1.36126E-001	1.51038E-008	0.00000E+000	-1.36150E-001	9.96792E-004	5	..........a	-327.66
	91	18.4	-1.26129E-001	1.59144E-008	0.00000E+000	-1.26150E-001	9.88292E-004	5	..........a	-327.66
	92	18.6	-1.16139E-001	1.67176E-008	0.00000E+000	-1.16150E-001	9.70992E-004	5	..........a	-327.66
	93	18.8	-1.06050E-001	1.74998E-008	0.00000E+000	-1.06150E-001	9.77792E-004	5	..........a	-327.66
	94	19	-9.61282E-002	1.83247E-008	0.00000E+000	-9.61500E-002	9.78392E-004	5	..........a	-327.66
	95	19.2	-8.61128E-002	1.91514E-008	0.00000E+000	-8.61500E-002	9.71492E-004	5	..........a	-327.66
	96	19.4	-7.61398E-002	1.99526E-008	0.00000E+000	-7.61500E-002	9.83092E-004	5	..........a	-327.66
	97	19.6	-6.61012E-002	2.07910E-008	0.00000E+000	-6.61500E-002	9.63092E-004	5	..........a	-327.66
	98	19.8	-5.61187E-002	2.16392E-008	0.00000E+000	-5.61500E-002	9.85092E-004	5	..........a	-327.66
	99	20	-4.61306E-002	2.24930E-008	0.00000E+000	-4.61500E-002	9.65992E-004	5	..........a	-327.66
	100	20.2	-3.61439E-002	2.33326E-008	0.00000E+000	-3.61500E-002	9.68092E-004	5	..........a	-327.66
	101	20.4	-2.60587E-002	2.42402E-008	0.00000E+000	-2.61500E-002	9.74792E-004	5	..........a	-327.66
	102	20.6	-1.61529E-002	2.51303E-008	0.00000E+000	-1.61500E-002	9.74492E-004	5	..........a	-327.66
	103	20.8	-6.09876E-003	2.60096E-008	0.00000E+000	-6.14999E-003	9.75992E-004	5	..........a	-327.66
	104	21	3.88214E-003	2.69351E-008	0.00000E+000	3.85001E-003	9.47292E-004	5	..........a	-327.66
	105	21.2	1.39602E-002	2.78664E-008	0.00000E+000	1.38500E-002	9.87092E-004	5	..........a	-327.66
	106	21.4	2.38568E-002	2.88214E-008	0.00000E+000	2.38500E-002	9.89592E-004	5	..........a	-327.66
	107	21.6	3.38920E-002	2.97841E-008	0.00000E+000	3.38500E-002	9.74992E-004	5	..........a	-327.66
	108	21.8	4.38816E-002	3.07144E-008	0.00000E+000	4.38500E-002	9.78392E-004	5	..........a	-327.66
	109	22	5.39503E-002	3.17498E-008	0.00000E+000	5.38500E-002	1.00089E-003	5	..........a	-327.66
	110	22.2	6.38737E-002	3.27650E-008	0.00000E+000	6.38500E-002	9.84192E-004	5	..........a	-327.66
	111	22.4	7.38322E-002	3.38358E-008	0.00000E+000	7.38500E-002	9.79192E-004	5	..........a	-327.66
	112	22.6	8.38956E-002	3.49148E-008	0.00000E+000	8.38500E-002	9.58892E-004	5	..........a	-327.66
	113	22.8	9.39608E-002	3.60042E-008	0.00000E+000	9.38500E-002	9.83792E-004	5	..........a	-327.66
	114	23	1.03891E-001	3.71860E-008	0.00000E+000	1.03850E-001	9.77192E-004	5	..........a	-327.66
	115	23.2	1.13828E-001	3.84161E-008	0.00000E+000	1.13850E-001	9.64692E-004	5	..........a	-327.66
	116	23.4	1.23903E-001	3.97104E-008	0.00000E+000	1.23850E-001	9.78092E-004	5	..........a	-327.66
	117	23.6	1.33962E-001	4.10612E-008	0.00000E+000	1.33850E-001	9.75792E-004	5	..........a	-327.66
	118	23.8	1.43891E-001	4.25250E-008	0.00000E+000	1.43850E-001	9.76592E-004	5	..........a	-327.66
	119	24	1.53835E-001	4.40045E-008	0.00000E+000	1.53850E-001	9.98992E-004	5	..........a	-327.66
	120	24.2	1.63887E-001	4.55854E-008	0.00000E+000	1.63850E-001	9.73792E-004	5	..........a	-327.66
	121	24.4	1.73960E-001	4.72660E-008	0.00000E+000	1.73850E-001	9.85392E-004	5	..........a	-327.66
	122	24.6	1.83863E-001	4.92599E-008	0.00000E+000	1.83850E-001	9.90192E-004	5	..........a	-327.66
	123	24.8	1.93869E-001	5.15979E-008	0.00000E+000	1.93850E-001	9.61292E-004	5	..........a	-327.66
	124	25	2.03860E-001	5.40242E-008	0.00000E+000	2.03850E-001	9.76192E-004	5	..........a	-327.66
	125	25.2	2.13904E-001	5.59571E-008	0.00000E+000	2.13850E-001	9.70592E-004	5	..........a	-327.66
	126	25.4	2.23844E-001	5.75210E-008	0.00000E+000	2.23850E-001	9.98292E-004	5	..........a	-327.66
	127	25.6	2.33814E-001	5.89355E-008	0.00000E+000	2.33850E-001	9.80092E-004	5	..........a	-327.66
	128	25.8	2.43850E-001	6.03677E-008	0.00000E+000	2.43850E-001	9.56592E-004	5	..........a	-327.66
	129	26	2.53936E-001	6.18750E-008	0.00000E+000	2.53850E-001	9.78492E-004	5	..........a	-327.66
	130	26.2	2.63836E-001	6.34934E-008	0.00000E+000	2.63850E-001	9.69092E-004	5	..........a	-327.66
	131	26.4	2.73830E-001	6.52163E-008	0.00000E+000	2.73850E-001	9.79692E-004	5	..........a	-327.66
	132	26.6	2.83828E-001	6.69014E-008	0.00000E+000	2.83850E-001	9.71092E-004	5	..........a	-327.66
	133	26.8	2.93877E-001	6.86664E-008	0.00000E+000	2.93850E-001	9.79492E-004	5	..........a	-327.66
	134	27	3.03840E-001	7.04639E-008	0.00000E+000	3.03850E-001	9.79192E-004	5	..........a	-327.66
	135	27.2	3.13844E-001	7.22667E-008	0.00000E+000	3.13850E-001	9.65592E-004	5	..........a	-327.66
	136	27.4	3.23864E-001	7.41245E-008	0.00000E+000	3.23850E-001	9.66392E-004	5	..........a	-327.66
	137	27.6	3.33947E-001	7.60320E-008	0.00000E+000	3.33850E-001	9.91892E-004	5	..........a	-327.66
	138	27.8	3.43837E-001	7.80110E-008	0.00000E+000	3.43850E-001	9.80892E-004	5	..........a	-327.66
	139	28	3.53849E-001	8.00551E-008	0.00000E+000	3.53850E-001	9.74392E-004	5	..........a	-327.66
	140	28.2	3.63827E-001	8.21742E-008	0.00000E+000	3.63850E-001	9.85692E-004	5	..........a	-327.66
	141	28.4	3.73826E-001	8.44245E-008	0.00000E+000	3.73850E-001	9.82992E-004	5	..........a	-327.66
	142	28.6	3.83826E-001	8.67200E-008	0.00000E+000	3.83850E-001	9.83992E-004	5	..........a	-327.66
	143	28.8	3.93814E-001	8.91047E-008	0.00000E+000	3.93850E-001	9.82592E-004	5	..........a	-327.66
	144	29	4.03823E-001	9.15029E-008	0.00000E+000	4.03850E-001	9.61492E-004	5	..........a	-327.66
	145	29.2	4.13887E-001	9.40464E-008	0.00000E+000	4.13850E-001	9.93692E-004	5	..........a	-327.66
	146	29.4	4.23795E-001	9.66017E-008	0.00000E+000	4.23850E-001	9.74492E-004	5	..........a	-327.66
	147	29.6	4.33767E-001	9.92860E-008	0.00000E+000	4.33850E-001	9.74692E-004	5	..........a	-327.66
	148	29.8	4.43803E-001	1.02037E-007	0.00000E+000	4.43850E-001	9.74892E-004	5	..........a	-327.66
	149	30	4.53905E-001	1.04788E-007	0.00000E+000	4.53850E-001	9.85392E-004	5	..........a	-327.66
	150	30.2	4.63778E-001	1.07466E-007	0.00000E+000	4.63850E-001	9.88892E-004	5	..........a	-327.66
	151	30.4	4.73796E-001	1.10059E-007	0.00000E+000	4.73850E-001	9.68492E-004	5	..........a	-327.66
	152	30.6	4.83787E-001	1.12583E-007	0.00000E+000	4.83850E-001	9.67692E-004	5	..........a	-327.66
	153	30.8	4.93856E-001	1.15118E-007	0.00000E+000	4.93850E-001	9.56592E-004	5	..........a	-327.66
	154	31	5.03777E-001	1.17574E-007	0.00000E+000	5.03850E-001	9.74992E-004	5	..........a	-327.66
	155	31.2	5.13776E-001	1.20006E-007	0.00000E+000	5.13850E-001	9.88592E-004	5	..........a	-327.66
	156	31.4	5.23787E-001	1.22502E-007	0.00000E+000	5.23850E-001	9.73592E-004	5	..........a	-327.66
	157	31.6	5.33899E-001	1.25046E-007	0.00000E+000	5.33850E-001	9.77992E-004	5	..........a	-327.66
	158	31.8	5.43788E-001	1.27488E-007	0.00000E+000	5.43850E-001	9.72492E-004	5	..........a	-327.66
	159	32	5.53815E-001	1.29991E-007	0.00000E+000	5.53850E-001	9.64592E-004	5	..........a	-327.66
	160	32.2	5.63760E-001	1.32415E-007	0.00000E+000	5.63850E-001	9.69492E-004	5	..........a	-327.66
	161	32.4	5.73811E-001	1.34921E-007	0.00000E+000	5.73850E-001	9.75792E-004	5	..........a	-327.66
	162	32.6	5.83762E-001	1.37455E-007	0.00000E+000	5.83850E-001	9.82992E-004	5	..........a	-327.66
	163	32.8	5.93766E-001	1.39942E-007	0.00000E+000	5.93850E-001	9.75992E-004	5	..........a	-327.66
	164	33	6.03764E-001	1.42429E-007	0.00000E+000	6.03850E-001	9.69692E-004	5	..........a	-327.66
	165	33.2	6.13863E-001	1.44975E-007	0.00000E+000	6.13850E-001	9.71692E-004	5	..........a	-327.66
	166	33.4	6.23756E-001	1.47530E-007	0.00000E+000	6.23850E-001	9.68192E-004	5	..........a	-327.66
	167	33.6	6.33704E-001	1.50120E-007	0.00000E+000	6.33850E-001	9.71192E-004	5	..........a	-327.66
	168	33.8	6.43731E-001	1.52764E-007	0.00000E+000	6.43850E-001	9.78592E-004	5	..........a	-327.66
	169	34	6.53829E-001	1.55412E-007	0.00000E+000	6.53850E-001	9.76992E-004	5	..........a	-327.66
	170	34.2	6.63726E-001	1.58036E-007	0.00000E+000	6.63850E-001	9.72292E-004	5	..........a	-327.66
	171	34.4	6.73735E-001	1.60782E-007	0.00000E+000	6.73850E-001	9.70992E-004	5	..........a	-327.66
	172	34.6	6.83704E-001	1.63565E-007	0.00000E+000	6.83850E-001	9.82992E-004	5	..........a	-327.66
	173	34.8	6.93784E-001	1.66537E-007	0.00000E+000	6.93850E-001	9.68092E-004	5	..........a	-327.66
	174	35	7.03747E-001	1.69610E-007	0.00000E+000	7.03850E-001	9.67792E-004	5	..........a	-327.66
	175	35.2	7.13677E-001	1.72771E-007	0.00000E+000	7.13850E-001	9.83992E-004	5	..........a	-327.66
	176	35.4	7.23721E-001	1.76071E-007	0.00000E+000	7.23850E-001	9.80392E-004	5	..........a	-327.66
	177	35.6	7.33832E-001	1.79612E-007	0.00000E+000	7.33850E-001	9.74192E-004	5	..........a	-327.66
	178	35.8	7.43718E-001	1.83394E-007	0.00000E+000	7.43850E-001	9.76392E-004	5	..........a	-327.66
	179	36	7.53728E-001	1.87438E-007	0.00000E+000	7.53850E-001	9.81492E-004	5	..........a	-327.66
	180	36.2	7.63722E-001	1.91779E-007	0.00000E+000	7.63850E-001	9.77492E-004	5	..........a	-327.66
	181	36.4	7.73763E-001	1.96405E-007	0.00000E+000	7.73850E-001	9.72792E-004	5	..........a	-327.66
	182	36.6	7.83733E-001	2.01299E-007	0.00000E+000	7.83850E-001	9.74992E-004	5	..........a	-327.66
	183	36.8	7.93652E-001	2.06545E-007	0.00000E+000	7.93850E-001	9.81792E-004	5	..........a	-327.66
	184	37	8.03720E-001	2.12104E-007	0.00000E+000	8.03850E-001	9.66092E-004	5	..........a	-327.66
CURVE2	TABLE
	Pt	T	Vf	Im	Vu	Sig	Ach	IERange	Over	Temp
	#	s	V vs. Ref.	A	V	V	V	#	bits	deg C
	185	37.2	7.89945E-001	1.64832E-007	0.00000E+000	7.90000E-001	9.85592E-004	5	..........a	-327.66
	186	37.4	7.79865E-001	1.41814E-007	0.00000E+000	7.80000E-001	9.80992E-004	5	..........a	-327.66
	187	37.6	7.69913E-001	1.24902E-007	0.00000E+000	7.70000E-001	9.71592E-004	5	..........a	-327.66
	188	37.8	7.59907E-001	1.11839E-007	0.00000E+000	7.60000E-001	9.89492E-004	5	..........a	-327.66
	189	38	7.49975E-001	1.01449E-007	0.00000E+000	7.50000E-001	9.87392E-004	5	..........a	-327.66
	190	38.2	7.39914E-001	9.29322E-008	0.00000E+000	7.40000E-001	9.72592E-004	5	..........a	-327.66
	191	38.4	7.29904E-001	8.57846E-008	0.00000E+000	7.30000E-001	9.87892E-004	5	..........a	-327.66
	192	38.6	7.19896E-001	7.97219E-008	0.00000E+000	7.20000E-001	9.77992E-004	5	..........a	-327.66
	193	38.8	7.09950E-001	7.44517E-008	0.00000E+000	7.10000E-001	9.83392E-004	5	..........a	-327.66
	194	39	6.99916E-001	6.97482E-008	0.00000E+000	7.00000E-001	9.62492E-004	5	..........a	-327.66
	195	39.2	6.89921E-001	6.55387E-008	0.00000E+000	6.90000E-001	9.76192E-004	5	..........a	-327.66
	196	39.4	6.79927E-001	6.17271E-008	0.00000E+000	6.80000E-001	9.84692E-004	5	..........a	-327.66
	197	39.6	6.69966E-001	5.82228E-008	0.00000E+000	6.70000E-001	9.81192E-004	5	..........a	-327.66
	198	39.8	6.59934E-001	5.49788E-008	0.00000E+000	6.60000E-001	9.83392E-004	5	..........a	-327.66
	199	40	6.49928E-001	5.19369E-008	0.00000E+000	6.50000E-001	9.85392E-004	5	..........a	-327.66
	200	40.2	6.39883E-001	4.90391E-008	0.00000E+000	6.40000E-001	9.99892E-004	5	..........a	-327.66
	201	40.4	6.30036E-001	4.63292E-008	0.00000E+000	6.30000E-001	9.79092E-004	5	..........a	-327.66
	202	40.6	6.19925E-001	4.37561E-008	0.00000E+000	6.20000E-001	9.80092E-004	5	..........a	-327.66
	203	40.8	6.09949E-001	4.12391E-008	0.00000E+000	6.10000E-001	9.86192E-004	5	..........a	-327.66
	204	41	5.99951E-001	3.89314E-008	0.00000E+000	6.00000E-001	9.84692E-004	5	..........a	-327.66
	205	41.2	5.90031E-001	3.67403E-008	0.00000E+000	5.90000E-001	9.87192E-004	5	..........a	-327.66
	206	41.4	5.79992E-001	3.47414E-008	0.00000E+000	5.80000E-001	9.82392E-004	5	..........a	-327.66
	207	41.6	5.69935E-001	3.28471E-008	0.00000E+000	5.70000E-001	9.86492E-004	5	..........a	-327.66
	208	41.8	5.59959E-001	3.09915E-008	0.00000E+000	5.60000E-001	9.83492E-004	5	..........a	-327.66
	209	42	5.50023E-001	2.91628E-008	0.00000E+000	5.50000E-001	9.75892E-004	5	..........a	-327.66
	210	42.2	5.40011E-001	2.73833E-008	0.00000E+000	5.40000E-001	9.92892E-004	5	..........a	-327.66
	211	42.4	5.29965E-001	2.56283E-008	0.00000E+000	5.30000E-001	9.79392E-004	5	..........a	-327.66
	212	42.6	5.19961E-001	2.39392E-008	0.00000E+000	5.20000E-001	9.71992E-004	5	..........a	-327.66
	213	42.8	5.09956E-001	2.23701E-008	0.00000E+000	5.10000E-001	9.96992E-004	5	..........a	-327.66
	214	43	5.00060E-001	2.09385E-008	0.00000E+000	5.00000E-001	9.50492E-004	5	..........a	-327.66
	215	43.2	4.89948E-001	1.95906E-008	0.00000E+000	4.90000E-001	9.73392E-004	5	..........a	-327.66
	216	43.4	4.79908E-001	1.83016E-008	0.00000E+000	4.80000E-001	9.85992E-004	5	..........a	-327.66
	217	43.6	4.70020E-001	1.70011E-008	0.00000E+000	4.70000E-001	9.80492E-004	5	..........a	-327.66
	218	43.8	4.60001E-001	1.56098E-008	0.00000E+000	4.60000E-001	9.75892E-004	5	..........a	-327.66
	219	44	4.50052E-001	1.42064E-008	0.00000E+000	4.50000E-001	9.80592E-004	5	..........a	-327.66
	220	44.2	4.39935E-001	1.28081E-008	0.00000E+000	4.40000E-001	9.87192E-004	5	..........a	-327.66
	221	44.4	4.29995E-001	1.13715E-008	0.00000E+000	4.30000E-001	9.70592E-004	5	..........a	-327.66
	222	44.6	4.20020E-001	9.93932E-009	0.00000E+000	4.20000E-001	9.70392E-004	5	..........a	-327.66
	223	44.8	4.09947E-001	8.48220E-009	0.00000E+000	4.10000E-001	9.66192E-004	5	..........a	-327.66
	224	45	3.99968E-001	7.04868E-009	0.00000E+000	4.00000E-001	9.89092E-004	5	..........a	-327.66
	225	45.2	3.90037E-001	5.62371E-009	0.00000E+000	3.90000E-001	9.81592E-004	5	..........a	-327.66
	226	45.4	3.80072E-001	4.20989E-009	0.00000E+000	3.80000E-001	9.79792E-004	5	..........a	-327.66
	227	45.6	3.70013E-001	2.72515E-009	0.00000E+000	3.70000E-001	9.85292E-004	5	..........a	-327.66
	228	45.8	3.59992E-001	1.28915E-009	0.00000E+000	3.60000E-001	9.85792E-004	5	..........a	-327.66
	229	46	3.50007E-001	-2.60353E-010	0.00000E+000	3.50000E-001	9.72592E-004	5	..........a	-327.66
	230	46.2	3.40052E-001	-1.70223E-009	0.00000E+000	3.40000E-001	9.77392E-004	5	..........a	-327.66
	231	46.4	3.30052E-001	-3.14242E-009	0.00000E+000	3.30000E-001	9.89692E-004	5	..........a	-327.66
	232	46.6	3.20050E-001	-4.59571E-009	0.00000E+000	3.20000E-001	9.80392E-004	5	..........a	-327.66
	233	46.8	3.10064E-001	-6.00531E-009	0.00000E+000	3.10000E-001	9.89192E-004	5	..........a	-327.66
	234	47	3.00072E-001	-7.48701E-009	0.00000E+000	3.00000E-001	9.63992E-004	5	..........a	-327.66
	235	47.2	2.90063E-001	-8.94288E-009	0.00000E+000	2.90000E-001	9.72392E-004	5	..........a	-327.66
	236	47.4	2.79997E-001	-1.04271E-008	0.00000E+000	2.80000E-001	9.77792E-004	5	..........a	-327.66
	237	47.6	2.70077E-001	-1.18835E-008	0.00000E+000	2.70000E-001	9.79892E-004	5	..........a	-327.66
	238	47.8	2.60060E-001	-1.33378E-008	0.00000E+000	2.60000E-001	9.60192E-004	5	..........a	-327.66
	239	48	2.50005E-001	-1.47817E-008	0.00000E+000	2.50000E-001	9.79392E-004	5	..........a	-327.66
	240	48.2	2.40052E-001	-1.60938E-008	0.00000E+000	2.40000E-001	9.85192E-004	5	..........a	-327.66
	241	48.4	2.29990E-001	-1.73956E-008	0.00000E+000	2.30000E-001	9.71992E-004	5	..........a	-327.66
	242	48.6	2.19899E-001	-1.85436E-008	0.00000E+000	2.20000E-001	9.60092E-004	5	..........a	-327.66
	243	48.8	2.10033E-001	-1.96073E-008	0.00000E+000	2.10000E-001	9.83792E-004	5	..........a	-327.66
	244	49	2.00066E-001	-2.05269E-008	0.00000E+000	2.00000E-001	9.81992E-004	5	..........a	-327.66
	245	49.2	1.90113E-001	-2.12992E-008	0.00000E+000	1.90000E-001	9.58192E-004	5	..........a	-327.66
	246	49.4	1.80107E-001	-2.18730E-008	0.00000E+000	1.80000E-001	9.71892E-004	5	..........a	-327.66
	247	49.6	1.70082E-001	-2.21971E-008	0.00000E+000	1.70000E-001	9.67492E-004	5	..........a	-327.66
	248	49.8	1.60045E-001	-2.24195E-008	0.00000E+000	1.60000E-001	9.97092E-004	5	..........a	-327.66
	249	50	1.50053E-001	-2.25047E-008	0.00000E+000	1.50000E-001	9.81492E-004	5	..........a	-327.66
	250	50.2	1.40115E-001	-2.24372E-008	0.00000E+000	1.40000E-001	9.58692E-004	5	..........a	-327.66
	251	50.4	1.30047E-001	-2.22815E-008	0.00000E+000	1.30000E-001	9.74792E-004	5	..........a	-327.66
	252	50.6	1.20055E-001	-2.20676E-008	0.00000E+000	1.20000E-001	9.76692E-004	5	..........a	-327.66
	253	50.8	1.10098E-001	-2.18157E-008	0.00000E+000	1.10000E-001	9.73592E-004	5	..........a	-327.66
	254	51	1.00105E-001	-2.15607E-008	0.00000E+000	1.00000E-001	9.72092E-004	5	..........a	-327.66
	255	51.2	9.00989E-002	-2.13343E-008	0.00000E+000	9.00000E-002	9.67892E-004	5	..........a	-327.66
	256	51.4	8.00434E-002	-2.10953E-008	0.00000E+000	8.00000E-002	9.86392E-004	5	..........a	-327.66
	257	51.6	7.00514E-002	-2.08546E-008	0.00000E+000	7.00000E-002	9.81092E-004	5	..........a	-327.66
	258	51.8	6.01066E-002	-2.07075E-008	0.00000E+000	6.00000E-002	9.65592E-004	5	..........a	-327.66
	259	52	5.00693E-002	-2.06410E-008	0.00000E+000	5.00000E-002	9.66092E-004	5	..........a	-327.66
	260	52.2	4.01167E-002	-2.06992E-008	0.00000E+000	4.00000E-002	9.76892E-004	5	..........a	-327.66
	261	52.4	3.00814E-002	-2.07631E-008	0.00000E+000	3.00000E-002	9.69192E-004	5	..........a	-327.66
	262	52.6	2.01541E-002	-2.09918E-008	0.00000E+000	2.00000E-002	9.81692E-004	5	..........a	-327.66
	263	52.8	1.01038E-002	-2.11873E-008	0.00000E+000	1.00000E-002	9.63692E-004	5	..........a	-327.66
	264	53	4.92917E-005	-2.15064E-008	0.00000E+000	7.45058E-009	9.78692E-004	5	..........a	-327.66
	265	53.2	-9.89556E-003	-2.25098E-008	0.00000E+000	-1.00000E-002	9.76092E-004	5	..........a	-327.66
	266	53.4	-1.99171E-002	-2.28815E-008	0.00000E+000	-2.00000E-002	9.70192E-004	5	..........a	-327.66
	267	53.6	-2.99372E-002	-2.30317E-008	0.00000E+000	-3.00000E-002	9.76992E-004	5	..........a	-327.66
	268	53.8	-3.99243E-002	-2.30524E-008	0.00000E+000	-4.00000E-002	9.67792E-004	5	..........a	-327.66
	269	54	-4.99073E-002	-2.32697E-008	0.00000E+000	-5.00000E-002	9.63792E-004	5	..........a	-327.66
	270	54.2	-5.98874E-002	-2.39306E-008	0.00000E+000	-6.00000E-002	9.61392E-004	5	..........a	-327.66
	271	54.4	-6.98997E-002	-2.42808E-008	0.00000E+000	-7.00000E-002	9.76992E-004	5	..........a	-327.66
	272	54.6	-7.99244E-002	-2.49011E-008	0.00000E+000	-8.00000E-002	9.59092E-004	5	..........a	-327.66
	273	54.8	-8.99112E-002	-2.54080E-008	0.00000E+000	-9.00000E-002	9.78592E-004	5	..........a	-327.66
	274	55	-9.99123E-002	-2.63370E-008	0.00000E+000	-1.00000E-001	9.73492E-004	5	..........a	-327.66
	275	55.2	-1.09936E-001	-2.65692E-008	0.00000E+000	-1.10000E-001	9.80792E-004	5	..........a	-327.66
	276	55.4	-1.19941E-001	-2.71581E-008	0.00000E+000	-1.20000E-001	9.72592E-004	5	..........a	-327.66
	277	55.6	-1.29937E-001	-2.82678E-008	0.00000E+000	-1.30000E-001	9.74792E-004	5	..........a	-327.66
	278	55.8	-1.39897E-001	-2.86403E-008	0.00000E+000	-1.40000E-001	9.67692E-004	5	..........a	-327.66
	279	56	-1.49927E-001	-2.97755E-008	0.00000E+000	-1.50000E-001	9.71692E-004	5	..........a	-327.66
	280	56.2	-1.59916E-001	-3.01440E-008	0.00000E+000	-1.60000E-001	9.79892E-004	5	..........a	-327.66
	281	56.4	-1.69883E-001	-3.07931E-008	0.00000E+000	-1.70000E-001	9.71992E-004	5	..........a	-327.66
	282	56.6	-1.79901E-001	-3.15115E-008	0.00000E+000	-1.80000E-001	9.60292E-004	5	..........a	-327.66
	283	56.8	-1.89929E-001	-3.22692E-008	0.00000E+000	-1.90000E-001	9.72792E-004	5	..........a	-327.66
	284	57	-1.99946E-001	-3.38784E-008	0.00000E+000	-2.00000E-001	9.80392E-004	5	..........a	-327.66
	285	57.2	-2.09878E-001	-3.37733E-008	0.00000E+000	-2.10000E-001	9.74292E-004	5	..........a	-327.66
	286	57.4	-2.19856E-001	-3.45369E-008	0.00000E+000	-2.20000E-001	9.78592E-004	5	..........a	-327.66
	287	57.6	-2.29905E-001	-3.52770E-008	0.00000E+000	-2.30000E-001	9.87492E-004	5	..........a	-327.66
	288	57.8	-2.39879E-001	-3.61701E-008	0.00000E+000	-2.40000E-001	9.62992E-004	5	..........a	-327.66
	289	58	-2.49873E-001	-3.69481E-008	0.00000E+000	-2.50000E-001	9.72192E-004	5	..........a	-327.66
	290	58.2	-2.59818E-001	-3.78347E-008	0.00000E+000	-2.60000E-001	9.68892E-004	5	..........a	-327.66
	291	58.4	-2.69869E-001	-3.89053E-008	0.00000E+000	-2.70000E-001	9.73792E-004	5	..........a	-327.66
	292	58.6	-2.79888E-001	-3.92405E-008	0.00000E+000	-2.80000E-001	9.73492E-004	5	..........a	-327.66
	293	58.8	-2.89874E-001	-4.00923E-008	0.00000E+000	-2.90000E-001	9.69592E-004	5	..........a	-327.66
	294	59	-2.99845E-001	-4.09642E-008	0.00000E+000	-3.00000E-001	9.70892E-004	5	..........a	-327.66
	295	59.2	-3.09887E-001	-4.17660E-008	0.00000E+000	-3.10000E-001	9.76492E-004	5	..........a	-327.66
	296	59.4	-3.19862E-001	-4.25784E-008	0.00000E+000	-3.20000E-001	9.87992E-004	5	..........a	-327.66
	297	59.6	-3.29901E-001	-4.33729E-008	0.00000E+000	-3.30000E-001	9.80592E-004	5	..........a	-327.66
	298	59.8	-3.39831E-001	-4.46418E-008	0.00000E+000	-3.40000E-001	9.61792E-004	5	..........a	-327.66
	299	60	-3.49859E-001	-4.56263E-008	0.00000E+000	-3.50000E-001	9.69192E-004	5	..........a	-327.66
	300	60.2	-3.59872E-001	-4.60935E-008	0.00000E+000	-3.60000E-001	9.73292E-004	5	..........a	-327.66
	301	60.4	-3.69838E-001	-4.69418E-008	0.00000E+000	-3.70000E-001	9.88192E-004	5	..........a	-327.66
	302	60.6	-3.79836E-001	-4.77475E-008	0.00000E+000	-3.80000E-001	9.66592E-004	5	..........a	-327.66
	303	60.8	-3.89931E-001	-4.86053E-008	0.00000E+000	-3.90000E-001	9.79392E-004	5	..........a	-327.66
	304	61	-3.99847E-001	-4.94280E-008	0.00000E+000	-4.00000E-001	9.83192E-004	5	..........a	-327.66
	305	61.2	-4.09854E-001	-5.04465E-008	0.00000E+000	-4.10000E-001	9.86992E-004	5	..........a	-327.66
	306	61.4	-4.19812E-001	-5.15545E-008	0.00000E+000	-4.20000E-001	9.60692E-004	5	..........a	-327.66
	307	61.6	-4.29852E-001	-5.23434E-008	0.00000E+000	-4.30000E-001	9.64892E-004	5	..........a	-327.66
	308	61.8	-4.39866E-001	-5.30003E-008	0.00000E+000	-4.40000E-001	9.90792E-004	5	..........a	-327.66
	309	62	-4.49842E-001	-5.38842E-008	0.00000E+000	-4.50000E-001	9.69092E-004	5	..........a	-327.66
	310	62.2	-4.59814E-001	-5.47641E-008	0.00000E+000	-4.60000E-001	9.66292E-004	5	..........a	-327.66
	311	62.4	-4.69846E-001	-5.66410E-008	0.00000E+000	-4.70000E-001	9.82492E-004	5	..........a	-327.66
	312	62.6	-4.79839E-001	-5.68790E-008	0.00000E+000	-4.80000E-001	9.84592E-004	5	..........a	-327.66
	313	62.8	-4.89852E-001	-5.84038E-008	0.00000E+000	-4.90000E-001	9.92192E-004	5	..........a	-327.66
	314	63	-4.99827E-001	-5.86146E-008	0.00000E+000	-5.00000E-001	9.66692E-004	5	..........a	-327.66
	315	63.2	-5.09850E-001	-5.95993E-008	0.00000E+000	-5.10000E-001	9.69092E-004	5	..........a	-327.66
	316	63.4	-5.19845E-001	-6.07802E-008	0.00000E+000	-5.20000E-001	9.78392E-004	5	..........a	-327.66
	317	63.6	-5.29839E-001	-6.17024E-008	0.00000E+000	-5.30000E-001	9.84992E-004	5	..........a	-327.66
	318	63.8	-5.39787E-001	-6.27730E-008	0.00000E+000	-5.40000E-001	9.66492E-004	5	..........a	-327.66
	319	64	-5.49857E-001	-6.38559E-008	0.00000E+000	-5.50000E-001	9.75892E-004	5	..........a	-327.66
	320	64.2	-5.59858E-001	-6.58208E-008	0.00000E+000	-5.60000E-001	9.80092E-004	5	..........a	-327.66
	321	64.4	-5.69850E-001	-6.69949E-008	0.00000E+000	-5.70000E-001	9.79992E-004	5	..........a	-327.66
	322	64.6	-5.79810E-001	-6.83235E-008	0.00000E+000	-5.80000E-001	9.73592E-004	5	..........a	-327.66
	323	64.8	-5.89864E-001	-6.93754E-008	0.00000E+000	-5.90000E-001	9.82992E-004	5	..........a	-327.66
	324	65	-5.99870E-001	-7.09702E-008	0.00000E+000	-6.00000E-001	9.75692E-004	5	..........a	-327.66
	325	65.2	-5.89855E-001	-5.97523E-008	0.00000E+000	-5.90000E-001	9.85392E-004	5	..........a	-327.66
	326	65.4	-5.79822E-001	-5.36790E-008	0.00000E+000	-5.80000E-001	9.78092E-004	5	..........a	-327.66
	327	65.6	-5.69874E-001	-4.89715E-008	0.00000E+000	-5.70000E-001	9.97692E-004	5	..........a	-327.66
	328	65.8	-5.59834E-001	-4.43478E-008	0.00000E+000	-5.60000E-001	9.94392E-004	5	..........a	-327.66
	329	66	-5.49872E-001	-4.14678E-008	0.00000E+000	-5.50000E-001	9.76492E-004	5	..........a	-327.66
	330	66.2	-5.39810E-001	-3.84189E-008	0.00000E+000	-5.40000E-001	9.91092E-004	5	..........a	-327.66
	331	66.4	-5.29850E-001	-3.51963E-008	0.00000E+000	-5.30000E-001	9.71392E-004	5	..........a	-327.66
	332	66.6	-5.19916E-001	-3.27415E-008	0.00000E+000	-5.20000E-001	9.82892E-004	5	..........a	-327.66
	333	66.8	-5.09884E-001	-3.07796E-008	0.00000E+000	-5.10000E-001	9.59992E-004	5	..........a	-327.66
	334	67	-4.99836E-001	-2.87423E-008	0.00000E+000	-5.00000E-001	9.67092E-004	5	..........a	-327.66
	335	67.2	-4.89852E-001	-2.65278E-008	0.00000E+000	-4.90000E-001	9.82692E-004	5	..........a	-327.66
	336	67.4	-4.79833E-001	-2.47863E-008	0.00000E+000	-4.80000E-001	9.70692E-004	5	..........a	-327.66
	337	67.6	-4.69888E-001	-2.32252E-008	0.00000E+000	-4.70000E-001	9.89792E-004	5	..........a	-327.66
	338	67.8	-4.59831E-001	-2.14112E-008	0.00000E+000	-4.60000E-001	9.72392E-004	5	..........a	-327.66
	339	68	-4.49847E-001	-1.98919E-008	0.00000E+000	-4.50000E-001	9.78292E-004	5	..........a	-327.66
	340	68.2	-4.39818E-001	-1.83710E-008	0.00000E+000	-4.40000E-001	9.82892E-004	5	..........a	-327.66
	341	68.4	-4.29869E-001	-1.69355E-008	0.00000E+000	-4.30000E-001	9.78192E-004	5	..........a	-327.66
	342	68.6	-4.19851E-001	-1.55137E-008	0.00000E+000	-4.20000E-001	9.77692E-004	5	..........a	-327.66
	343	68.8	-4.09854E-001	-1.41402E-008	0.00000E+000	-4.10000E-001	9.92892E-004	5	..........a	-327.66
	344	69	-3.99878E-001	-1.28639E-008	0.00000E+000	-4.00000E-001	9.84292E-004	5	..........a	-327.66
	345	69.2	-3.89955E-001	-1.15945E-008	0.00000E+000	-3.90000E-001	9.90192E-004	5	..........a	-327.66
	346	69.4	-3.79853E-001	-1.03342E-008	0.00000E+000	-3.80000E-001	9.56892E-004	5	..........a	-327.66
	347	69.6	-3.69833E-001	-9.06316E-009	0.00000E+000	-3.70000E-001	9.69492E-004	5	..........a	-327.66
	348	69.8	-3.59876E-001	-7.97507E-009	0.00000E+000	-3.60000E-001	9.82692E-004	5	..........a	-327.66
	349	70	-3.49881E-001	-6.64744E-009	0.00000E+000	-3.50000E-001	9.63292E-004	5	..........a	-327.66
	350	70.2	-3.39856E-001	-5.49386E-009	0.00000E+000	-3.40000E-001	9.59392E-004	5	..........a	-327.66
	351	70.4	-3.29874E-001	-4.40609E-009	0.00000E+000	-3.30000E-001	9.88892E-004	5	..........a	-327.66
	352	70.6	-3.19896E-001	-3.25283E-009	0.00000E+000	-3.20000E-001	9.66092E-004	5	..........a	-327.66
[...]
	920	184.2	-2.39965E-001	4.26438E-009	0.00000E+000	-2.40000E-001	9.67292E-004	5	..........a	-327.66
	921	184.4	-2.29966E-001	5.25254E-009	0.00000E+000	-2.30000E-001	9.79892E-004	5	..........a	-327.66
	922	184.6	-2.19884E-001	6.31565E-009	0.00000E+000	-2.20000E-001	9.80992E-004	5	..........a	-327.66
	923	184.8	-2.09931E-001	7.31625E-009	0.00000E+000	-2.10000E-001	9.87492E-004	5	..........a	-327.66
	924	185	-1.99998E-001	8.35335E-009	0.00000E+000	-2.00000E-001	9.82592E-004	5	..........a	-327.66
	925	185.2	-1.89907E-001	9.34858E-009	0.00000E+000	-1.90000E-001	9.71292E-004	5	..........a	-327.66
	926	185.4	-1.79935E-001	1.03299E-008	0.00000E+000	-1.80000E-001	9.78492E-004	5	..........a	-327.66
	927	185.6	-1.69920E-001	1.13498E-008	0.00000E+000	-1.70000E-001	9.69092E-004	5	..........a	-327.66
	928	185.8	-1.59973E-001	1.23425E-008	0.00000E+000	-1.60000E-001	9.96092E-004	5	..........a	-327.66
	929	186	-1.49998E-001	1.33140E-008	0.00000E+000	-1.50000E-001	9.95492E-004	5	..........a	-327.66
	930	186.2	-1.39956E-001	1.42727E-008	0.00000E+000	-1.40000E-001	9.88292E-004	5	..........a	-327.66
	931	186.4	-1.29970E-001	1.52308E-008	0.00000E+000	-1.30000E-001	9.92692E-004	5	..........a	-327.66
	932	186.6	-1.19948E-001	1.61976E-008	0.00000E+000	-1.20000E-001	9.84492E-004	5	..........a	-327.66
	933	186.8	-1.09961E-001	1.71753E-008	0.00000E+000	-1.10000E-001	9.78592E-004	5	..........a	-327.66
	934	187	-9.99457E-002	1.81104E-008	0.00000E+000	-1.00000E-001	9.74092E-004	5	..........a	-327.66
	935	187.2	-8.99183E-002	1.90938E-008	0.00000E+000	-9.00000E-002	9.77692E-004	5	..........a	-327.66
	936	187.4	-7.99769E-002	2.00416E-008	0.00000E+000	-8.00000E-002	9.90492E-004	5	..........a	-327.66
	937	187.6	-6.99220E-002	2.10145E-008	0.00000E+000	-7.00000E-002	9.80692E-004	5	..........a	-327.66
	938	187.8	-5.99104E-002	2.19848E-008	0.00000E+000	-6.00000E-002	9.80492E-004	5	..........a	-327.66
	939	188	-4.99731E-002	2.29493E-008	0.00000E+000	-5.00000E-002	9.76192E-004	5	..........a	-327.66
	940	188.2	-3.99562E-002	2.39233E-008	0.00000E+000	-4.00000E-002	9.78392E-004	5	..........a	-327.66
	941	188.4	-2.99477E-002	2.49020E-008	0.00000E+000	-3.00000E-002	9.79892E-004	5	..........a	-327.66
	942	188.6	-1.99514E-002	2.58167E-008	0.00000E+000	-2.00000E-002	9.83492E-004	5	..........a	-327.66
	943	188.8	-9.89321E-003	2.68167E-008	0.00000E+000	-1.00000E-002	9.90292E-004	5	..........a	-327.66
	944	189	9.41669E-007	2.77703E-008	0.00000E+000	7.45058E-009	9.90692E-004	5	..........a	-327.66
	945	189.2	1.00634E-002	2.87455E-008	0.00000E+000	1.00000E-002	9.75392E-004	5	..........a	-327.66
	946	189.4	2.01367E-002	2.97324E-008	0.00000E+000	2.00000E-002	9.83392E-004	5	..........a	-327.66
	947	189.6	3.00240E-002	3.06646E-008	0.00000E+000	3.00000E-002	9.84592E-004	5	..........a	-327.66
	948	189.8	3.99815E-002	3.16543E-008	0.00000E+000	4.00000E-002	9.79892E-004	5	..........a	-327.66
	949	190	5.00508E-002	3.26272E-008	0.00000E+000	5.00000E-002	9.78492E-004	5	..........a	-327.66
	950	190.2	6.00461E-002	3.36097E-008	0.00000E+000	6.00000E-002	9.90192E-004	5	..........a	-327.66
	951	190.4	6.99892E-002	3.45702E-008	0.00000E+000	7.00000E-002	9.97692E-004	5	..........a	-327.66
	952	190.6	8.00075E-002	3.55923E-008	0.00000E+000	8.00000E-002	9.82092E-004	5	..........a	-327.66
	953	190.8	9.00841E-002	3.65581E-008	0.00000E+000	9.00000E-002	9.67692E-004	5	..........a	-327.66
	954	191	1.00062E-001	3.76347E-008	0.00000E+000	1.00000E-001	9.77892E-004	5	..........a	-327.66
	955	191.2	1.10045E-001	3.86829E-008	0.00000E+000	1.10000E-001	1.00709E-003	5	..........a	-327.66
	956	191.4	1.20007E-001	3.96453E-008	0.00000E+000	1.20000E-001	9.89292E-004	5	..........a	-327.66
	957	191.6	1.30035E-001	4.05459E-008	0.00000E+000	1.30000E-001	9.87592E-004	5	..........a	-327.66
	958	191.8	1.40089E-001	4.15863E-008	0.00000E+000	1.40000E-001	9.76792E-004	5	..........a	-327.66
	959	192	1.50043E-001	4.26082E-008	0.00000E+000	1.50000E-001	9.87492E-004	5	..........a	-327.66
	960	192.2	1.59952E-001	4.36048E-008	0.00000E+000	1.60000E-001	9.87492E-004	5	..........a	-327.66
	961	192.4	1.70028E-001	4.46806E-008	0.00000E+000	1.70000E-001	9.80192E-004	5	..........a	-327.66
	962	192.6	1.80047E-001	4.57206E-008	0.00000E+000	1.80000E-001	9.78692E-004	5	..........a	-327.66
	963	192.8	1.90091E-001	4.67146E-008	0.00000E+000	1.90000E-001	9.76892E-004	5	..........a	-327.66
	964	193	1.99989E-001	4.77635E-008	0.00000E+000	2.00000E-001	9.78692E-004	5	..........a	-327.66
	965	193.2	2.09943E-001	4.87332E-008	0.00000E+000	2.10000E-001	9.83892E-004	5	..........a	-327.66
	966	193.4	2.20033E-001	4.96565E-008	0.00000E+000	2.20000E-001	9.65392E-004	5	..........a	-327.66
	967	193.6	2.29988E-001	5.05273E-008	0.00000E+000	2.30000E-001	9.90892E-004	5	..........a	-327.66
	968	193.8	2.40010E-001	5.12786E-008	0.00000E+000	2.40000E-001	1.02149E-003	5	..........a	-327.66
	969	194	2.49976E-001	5.20882E-008	0.00000E+000	2.50000E-001	1.00199E-003	5	..........a	-327.66
	970	194.2	2.60021E-001	5.29113E-008	0.00000E+000	2.60000E-001	9.89492E-004	5	..........a	-327.66
	971	194.4	2.70005E-001	5.36989E-008	0.00000E+000	2.70000E-001	9.82992E-004	5	..........a	-327.66
	972	194.6	2.79937E-001	5.45714E-008	0.00000E+000	2.80000E-001	1.00269E-003	5	..........a	-327.66
	973	194.8	2.90004E-001	5.54439E-008	0.00000E+000	2.90000E-001	9.99992E-004	5	..........a	-327.66
	974	195	3.00007E-001	5.62886E-008	0.00000E+000	3.00000E-001	9.72692E-004	5	..........a	-327.66
	975	195.2	3.10013E-001	5.72329E-008	0.00000E+000	3.10000E-001	9.92392E-004	5	..........a	-327.66
	976	195.4	3.20007E-001	5.81718E-008	0.00000E+000	3.20000E-001	9.91092E-004	5	..........a	-327.66
	977	195.6	3.29950E-001	5.91142E-008	0.00000E+000	3.30000E-001	9.79292E-004	5	..........a	-327.66
	978	195.8	3.40026E-001	6.00948E-008	0.00000E+000	3.40000E-001	1.00419E-003	5	..........a	-327.66
	979	196	3.50011E-001	6.10751E-008	0.00000E+000	3.50000E-001	1.00739E-003	5	..........a	-327.66
	980	196.2	3.59970E-001	6.21289E-008	0.00000E+000	3.60000E-001	9.96892E-004	5	..........a	-327.66
	981	196.4	3.70018E-001	6.31943E-008	0.00000E+000	3.70000E-001	9.84892E-004	5	..........a	-327.66
	982	196.6	3.80000E-001	6.42727E-008	0.00000E+000	3.80000E-001	9.75692E-004	5	..........a	-327.66
	983	196.8	3.90015E-001	6.54532E-008	0.00000E+000	3.90000E-001	9.91092E-004	5	..........a	-327.66
	984	197	3.99967E-001	6.66563E-008	0.00000E+000	4.00000E-001	9.77992E-004	5	..........a	-327.66
	985	197.2	4.09966E-001	6.79521E-008	0.00000E+000	4.10000E-001	1.00029E-003	5	..........a	-327.66
	986	197.4	4.19973E-001	6.92044E-008	0.00000E+000	4.20000E-001	9.88592E-004	5	..........a	-327.66
	987	197.6	4.29977E-001	7.05472E-008	0.00000E+000	4.30000E-001	9.93392E-004	5	..........a	-327.66
	988	197.8	4.39946E-001	7.19555E-008	0.00000E+000	4.40000E-001	9.95592E-004	5	..........a	-327.66
	989	198	4.49808E-001	7.33796E-008	0.00000E+000	4.50000E-001	9.79792E-004	5	..........a	-327.66
	990	198.2	4.59943E-001	7.48711E-008	0.00000E+000	4.60000E-001	9.95992E-004	5	..........a	-327.66
	991	198.4	4.69994E-001	7.63223E-008	0.00000E+000	4.70000E-001	9.90492E-004	5	..........a	-327.66
	992	198.6	4.79933E-001	7.78801E-008	0.00000E+000	4.80000E-001	9.79992E-004	5	..........a	-327.66
	993	198.8	4.89903E-001	7.94389E-008	0.00000E+000	4.90000E-001	9.97692E-004	5	..........a	-327.66
	994	199	4.99939E-001	8.10530E-008	0.00000E+000	5.00000E-001	9.73192E-004	5	..........a	-327.66
	995	199.2	5.09971E-001	8.27767E-008	0.00000E+000	5.10000E-001	9.88192E-004	5	..........a	-327.66
	996	199.4	5.19926E-001	8.46011E-008	0.00000E+000	5.20000E-001	9.85592E-004	5	..........a	-327.66
	997	199.6	5.29954E-001	8.64234E-008	0.00000E+000	5.30000E-001	9.89292E-004	5	..........a	-327.66
	998	199.8	5.39957E-001	8.83477E-008	0.00000E+000	5.40000E-001	9.62692E-004	5	..........a	-327.66
	999	200	5.49998E-001	9.03686E-008	0.00000E+000	5.50000E-001	9.67292E-004	5	..........a	-327.66
	1000	200.2	5.59924E-001	9.24192E-008	0.00000E+000	5.60000E-001	9.76792E-004	5	..........a	-327.66
	1001	200.4	5.69901E-001	9.45485E-008	0.00000E+000	5.70000E-001	9.72492E-004	5	..........a	-327.66
	1002	200.6	5.79961E-001	9.67227E-008	0.00000E+000	5.80000E-001	9.67692E-004	5	..........a	-327.66
	1003	200.8	5.89996E-001	9.89698E-008	0.00000E+000	5.90000E-001	9.88092E-004	5	..........a	-327.66
	1004	201	5.99923E-001	1.01292E-007	0.00000E+000	6.00000E-001	9.78792E-004	5	..........a	-327.66
	1005	201.2	6.09947E-001	1.03656E-007	0.00000E+000	6.10000E-001	9.81392E-004	5	..........a	-327.66
	1006	201.4	6.19900E-001	1.06154E-007	0.00000E+000	6.20000E-001	9.73992E-004	5	..........a	-327.66
	1007	201.6	6.30009E-001	1.08714E-007	0.00000E+000	6.30000E-001	9.70192E-004	5	..........a	-327.66
	1008	201.8	6.39870E-001	1.11387E-007	0.00000E+000	6.40000E-001	9.77992E-004	5	..........a	-327.66
	1009	202	6.49917E-001	1.14206E-007	0.00000E+000	6.50000E-001	9.74992E-004	5	..........a	-327.66
	1010	202.2	6.59893E-001	1.17145E-007	0.00000E+000	6.60000E-001	9.77992E-004	5	..........a	-327.66
	1011	202.4	6.69950E-001	1.20219E-007	0.00000E+000	6.70000E-001	9.73792E-004	5	..........a	-327.66
	1012	202.6	6.79909E-001	1.23424E-007	0.00000E+000	6.80000E-001	9.91192E-004	5	..........a	-327.66
	1013	202.8	6.89890E-001	1.26758E-007	0.00000E+000	6.90000E-001	9.87692E-004	5	..........a	-327.66
	1014	203	6.99876E-001	1.30237E-007	0.00000E+000	7.00000E-001	9.71492E-004	5	..........a	-327.66
	1015	203.2	7.09968E-001	1.33889E-007	0.00000E+000	7.10000E-001	9.85892E-004	5	..........a	-327.66
	1016	203.4	7.19884E-001	1.37803E-007	0.00000E+000	7.20000E-001	1.00129E-003	5	..........a	-327.66
	1017	203.6	7.29897E-001	1.41881E-007	0.00000E+000	7.30000E-001	9.90292E-004	5	..........a	-327.66
	1018	203.8	7.39890E-001	1.46218E-007	0.00000E+000	7.40000E-001	9.64792E-004	5	..........a	-327.66
	1019	204	7.49951E-001	1.50887E-007	0.00000E+000	7.50000E-001	9.78392E-004	5	..........a	-327.66
	1020	204.2	7.59882E-001	1.55858E-007	0.00000E+000	7.60000E-001	9.90092E-004	5	..........a	-327.66
	1021	204.4	7.69888E-001	1.60975E-007	0.00000E+000	7.70000E-001	9.77192E-004	5	..........a	-327.66
	1022	204.6	7.79861E-001	1.66372E-007	0.00000E+000	7.80000E-001	9.81192E-004	5	..........a	-327.66
	1023	204.8	7.89949E-001	1.72205E-007	0.00000E+000	7.90000E-001	9.88192E-004	5	..........a	-327.66
	1024	205	7.99852E-001	1.78318E-007	0.00000E+000	8.00000E-001	9.85092E-004	5	..........a	-327.66
CURVE5	TABLE
	Pt	T	Vf	Im	Vu	Sig	Ach	IERange	Over	Temp
	#	s	V vs. Ref.	A	V	V	V	#	bits	deg C
	1025	205.2	7.89970E-001	1.44153E-007	0.00000E+000	7.90000E-001	9.82892E-004	5	..........a	-327.66
	1026	205.4	7.79879E-001	1.22397E-007	0.00000E+000	7.80000E-001	9.56092E-004	5	..........a	-327.66
	1027	205.6	7.69941E-001	1.06950E-007	0.00000E+000	7.70000E-001	9.73892E-004	5	..........a	-327.66
	1028	205.8	7.59875E-001	9.52313E-008	0.00000E+000	7.60000E-001	9.82792E-004	5	..........a	-327.66
	1029	206	7.49986E-001	8.60637E-008	0.00000E+000	7.50000E-001	9.84692E-004	5	..........a	-327.66
	1030	206.2	7.39919E-001	7.86439E-008	0.00000E+000	7.40000E-001	9.79892E-004	5	..........a	-327.66
	1031	206.4	7.29957E-001	7.24381E-008	0.00000E+000	7.30000E-001	9.75892E-004	5	..........a	-327.66
	1032	206.6	7.19921E-001	6.71342E-008	0.00000E+000	7.20000E-001	9.82492E-004	5	..........a	-327.66
	1033	206.8	7.09973E-001	6.25819E-008	0.00000E+000	7.10000E-001	9.77092E-004	5	..........a	-327.66
	1034	207	6.99937E-001	5.85204E-008	0.00000E+000	7.00000E-001	9.62492E-004	5	..........a	-327.66
	1035	207.2	6.89914E-001	5.48571E-008	0.00000E+000	6.90000E-001	9.80292E-004	5	..........a	-327.66
	1036	207.4	6.79922E-001	5.15115E-008	0.00000E+000	6.80000E-001	9.74492E-004	5	..........a	-327.66
	1037	207.6	6.69956E-001	4.84239E-008	0.00000E+000	6.70000E-001	9.93792E-004	5	..........a	-327.66
	1038	207.8	6.59948E-001	4.54734E-008	0.00000E+000	6.60000E-001	9.71692E-004	5	..........a	-327.66
	1039	208	6.49932E-001	4.27190E-008	0.00000E+000	6.50000E-001	9.70292E-004	5	..........a	-327.66
	1040	208.2	6.39908E-001	4.00787E-008	0.00000E+000	6.40000E-001	9.92792E-004	5	..........a	-327.66
	1041	208.4	6.30025E-001	3.76077E-008	0.00000E+000	6.30000E-001	9.82692E-004	5	..........a	-327.66
	1042	208.6	6.19949E-001	3.51864E-008	0.00000E+000	6.20000E-001	9.80692E-004	5	..........a	-327.66
	1043	208.8	6.09945E-001	3.28556E-008	0.00000E+000	6.10000E-001	9.88592E-004	5	..........a	-327.66
	1044	209	5.99982E-001	3.07040E-008	0.00000E+000	6.00000E-001	9.92392E-004	5	..........a	-327.66
	1045	209.2	5.89987E-001	2.87415E-008	0.00000E+000	5.90000E-001	9.94392E-004	5	..........a	-327.66
	1046	209.4	5.80016E-001	2.70170E-008	0.00000E+000	5.80000E-001	9.70792E-004	5	..........a	-327.66
	1047	209.6	5.69970E-001	2.53161E-008	0.00000E+000	5.70000E-001	9.87092E-004	5	..........a	-327.66
	1048	209.8	5.59928E-001	2.36428E-008	0.00000E+000	5.60000E-001	9.92292E-004	5	..........a	-327.66
	1049	210	5.50029E-001	2.19499E-008	0.00000E+000	5.50000E-001	9.73192E-004	5	..........a	-327.66
	1050	210.2	5.39996E-001	2.02315E-008	0.00000E+000	5.40000E-001	9.78892E-004	5	..........a	-327.66
	1051	210.4	5.29944E-001	1.86102E-008	0.00000E+000	5.30000E-001	9.83692E-004	5	..........a	-327.66
	1052	210.6	5.19974E-001	1.70803E-008	0.00000E+000	5.20000E-001	9.92092E-004	5	..........a	-327.66
	1053	210.8	5.09998E-001	1.57253E-008	0.00000E+000	5.10000E-001	9.77192E-004	5	..........a	-327.66
	1054	211	5.00050E-001	1.45518E-008	0.00000E+000	5.00000E-001	9.71492E-004	5	..........a	-327.66
	1055	211.2	4.89925E-001	1.34590E-008	0.00000E+000	4.90000E-001	9.80292E-004	5	..........a	-327.66
	1056	211.4	4.79932E-001	1.23523E-008	0.00000E+000	4.80000E-001	9.99992E-004	5	..........a	-327.66
	1057	211.6	4.70033E-001	1.12026E-008	0.00000E+000	4.70000E-001	9.87392E-004	5	..........a	-327.66
	1058	211.8	4.60004E-001	1.00015E-008	0.00000E+000	4.60000E-001	9.68192E-004	5	..........a	-327.66
	1059	212	4.50061E-001	8.72348E-009	0.00000E+000	4.50000E-001	9.81492E-004	5	..........a	-327.66
	1060	212.2	4.39939E-001	7.44233E-009	0.00000E+000	4.40000E-001	9.89992E-004	5	..........a	-327.66
	1061	212.4	4.30007E-001	6.15726E-009	0.00000E+000	4.30000E-001	9.93692E-004	5	..........a	-327.66
	1062	212.6	4.20018E-001	4.83881E-009	0.00000E+000	4.20000E-001	9.66292E-004	5	..........a	-327.66
	1063	212.8	4.09963E-001	3.50863E-009	0.00000E+000	4.10000E-001	9.76392E-004	5	..........a	-327.66
	1064	213	3.99998E-001	2.18491E-009	0.00000E+000	4.00000E-001	9.73192E-004	5	..........a	-327.66
	1065	213.2	3.90044E-001	8.39298E-010	0.00000E+000	3.90000E-001	9.81692E-004	5	..........a	-327.66
	1066	213.4	3.80064E-001	-6.00286E-010	0.00000E+000	3.80000E-001	9.64092E-004	5	..........a	-327.66
	1067	213.6	3.70021E-001	-1.95791E-009	0.00000E+000	3.70000E-001	9.79292E-004	5	..........a	-327.66
	1068	213.8	3.60057E-001	-3.31115E-009	0.00000E+000	3.60000E-001	9.91692E-004	5	..........a	-327.66
	1069	214	3.50087E-001	-4.72154E-009	0.00000E+000	3.50000E-001	9.76592E-004	5	..........a	-327.66
	1070	214.2	3.40089E-001	-6.15957E-009	0.00000E+000	3.40000E-001	9.70992E-004	5	..........a	-327.66
	1071	214.4	3.30031E-001	-7.55226E-009	0.00000E+000	3.30000E-001	9.81492E-004	5	..........a	-327.66
	1072	214.6	3.20075E-001	-8.97787E-009	0.00000E+000	3.20000E-001	9.92092E-004	5	..........a	-327.66
	1073	214.8	3.10074E-001	-1.04414E-008	0.00000E+000	3.10000E-001	9.76792E-004	5	..........a	-327.66
	1074	215	3.00066E-001	-1.19081E-008	0.00000E+000	3.00000E-001	9.71392E-004	5	..........a	-327.66
	1075	215.2	2.90046E-001	-1.34011E-008	0.00000E+000	2.90000E-001	9.83992E-004	5	..........a	-327.66
	1076	215.4	2.80020E-001	-1.49007E-008	0.00000E+000	2.80000E-001	9.72292E-004	5	..........a	-327.66
	1077	215.6	2.70096E-001	-1.63854E-008	0.00000E+000	2.70000E-001	9.82892E-004	5	..........a	-327.66
	1078	215.8	2.60050E-001	-1.78632E-008	0.00000E+000	2.60000E-001	9.78892E-004	5	..........a	-327.66
	1079	216	2.50054E-001	-1.92497E-008	0.00000E+000	2.50000E-001	9.96592E-004	5	..........a	-327.66
	1080	216.2	2.40075E-001	-2.05666E-008	0.00000E+000	2.40000E-001	9.89892E-004	5	..........a	-327.66
	1081	216.4	2.30029E-001	-2.17997E-008	0.00000E+000	2.30000E-001	9.81492E-004	5	..........a	-327.66
	1082	216.6	2.20029E-001	-2.28373E-008	0.00000E+000	2.20000E-001	9.65092E-004	5	..........a	-327.66
	1083	216.8	2.10037E-001	-2.37557E-008	0.00000E+000	2.10000E-001	9.81892E-004	5	..........a	-327.66
	1084	217	2.00074E-001	-2.44381E-008	0.00000E+000	2.00000E-001	9.82592E-004	5	..........a	-327.66
	1085	217.2	1.90116E-001	-2.49946E-008	0.00000E+000	1.90000E-001	9.79892E-004	5	..........a	-327.66
	1086	217.4	1.80119E-001	-2.53137E-008	0.00000E+000	1.80000E-001	9.54992E-004	5	..........a	-327.66
	1087	217.6	1.70099E-001	-2.54783E-008	0.00000E+000	1.70000E-001	9.82292E-004	5	..........a	-327.66
	1088	217.8	1.60089E-001	-2.54612E-008	0.00000E+000	1.60000E-001	9.65292E-004	5	..........a	-327.66
	1089	218	1.50100E-001	-2.52896E-008	0.00000E+000	1.50000E-001	9.86592E-004	5	..........a	-327.66
	1090	218.2	1.40128E-001	-2.49819E-008	0.00000E+000	1.40000E-001	9.70592E-004	5	..........a	-327.66
	1091	218.4	1.30098E-001	-2.45758E-008	0.00000E+000	1.30000E-001	9.83192E-004	5	..........a	-327.66
	1092	218.6	1.20098E-001	-2.41166E-008	0.00000E+000	1.20000E-001	9.82292E-004	5	..........a	-327.66
	1093	218.8	1.10114E-001	-2.35813E-008	0.00000E+000	1.10000E-001	9.76192E-004	5	..........a	-327.66
	1094	219	1.00125E-001	-2.31104E-008	0.00000E+000	1.00000E-001	9.69892E-004	5	..........a	-327.66
	1095	219.2	9.00856E-002	-2.26222E-008	0.00000E+000	9.00000E-002	9.70392E-004	5	..........a	-327.66
	1096	219.4	8.00395E-002	-2.22266E-008	0.00000E+000	8.00000E-002	9.92192E-004	5	..........a	-327.66
	1097	219.6	7.00352E-002	-2.19891E-008	0.00000E+000	7.00000E-002	9.86792E-004	5	..........a	-327.66
	1098	219.8	6.01083E-002	-2.18373E-008	0.00000E+000	6.00000E-002	9.62292E-004	5	..........a	-327.66
	1099	220	5.00706E-002	-2.17753E-008	0.00000E+000	5.00000E-002	9.80592E-004	5	..........a	-327.66
	1100	220.2	4.01560E-002	-2.17631E-008	0.00000E+000	4.00000E-002	9.80792E-004	5	..........a	-327.66
	1101	220.4	3.00833E-002	-2.18323E-008	0.00000E+000	3.00000E-002	9.93192E-004	5	..........a	-327.66
	1102	220.6	2.01790E-002	-2.19607E-008	0.00000E+000	2.00000E-002	9.69092E-004	5	..........a	-327.66
	1103	220.8	1.01067E-002	-2.21666E-008	0.00000E+000	1.00000E-002	9.60392E-004	5	..........a	-327.66
	1104	221	1.46916E-005	-2.24791E-008	0.00000E+000	7.45058E-009	9.89792E-004	5	..........a	-327.66
	1105	221.2	-9.88701E-003	-2.27818E-008	0.00000E+000	-1.00000E-002	9.79292E-004	5	..........a	-327.66
	1106	221.4	-1.99020E-002	-2.30801E-008	0.00000E+000	-2.00000E-002	9.65492E-004	5	..........a	-327.66
	1107	221.6	-2.99290E-002	-2.35448E-008	0.00000E+000	-3.00000E-002	9.65592E-004	5	..........a	-327.66
	1108	221.8	-3.99041E-002	-2.40376E-008	0.00000E+000	-4.00000E-002	9.78292E-004	5	..........a	-327.66
	1109	222	-4.98794E-002	-2.45315E-008	0.00000E+000	-5.00000E-002	9.74992E-004	5	..........a	-327.66
	1110	222.2	-5.98943E-002	-2.49247E-008	0.00000E+000	-6.00000E-002	9.59792E-004	5	..........a	-327.66
	1111	222.4	-6.98913E-002	-2.57550E-008	0.00000E+000	-7.00000E-002	9.80292E-004	5	..........a	-327.66
	1112	222.6	-7.99257E-002	-2.61900E-008	0.00000E+000	-8.00000E-002	9.86492E-004	5	..........a	-327.66
	1113	222.8	-8.99049E-002	-2.68297E-008	0.00000E+000	-9.00000E-002	9.71292E-004	5	..........a	-327.66
	1114	223	-9.98976E-002	-2.77131E-008	0.00000E+000	-1.00000E-001	9.58092E-004	5	..........a	-327.66
	1115	223.2	-1.09954E-001	-2.84135E-008	0.00000E+000	-1.10000E-001	9.91392E-004	5	..........a	-327.66
	1116	223.4	-1.19911E-001	-2.89451E-008	0.00000E+000	-1.20000E-001	9.70292E-004	5	..........a	-327.66
	1117	223.6	-1.29908E-001	-2.98050E-008	0.00000E+000	-1.30000E-001	9.74492E-004	5	..........a	-327.66
	1118	223.8	-1.39939E-001	-3.04257E-008	0.00000E+000	-1.40000E-001	9.56392E-004	5	..........a	-327.66
	1119	224	-1.49924E-001	-3.11725E-008	0.00000E+000	-1.50000E-001	9.83192E-004	5	..........a	-327.66
	1120	224.2	-1.59938E-001	-3.19862E-008	0.00000E+000	-1.60000E-001	9.84092E-004	5	..........a	-327.66