File: example_project/raw_outputs/20240509_O_GM0016_HL03_E04_CV50.DTA
EXPLAIN
TAG	CV
TITLE	LABEL	Cyclic Voltammetry	Test &Identifier
DATE	LABEL	5/9/2024	Date
TIME	LABEL	13:11:10	Time
NOTES	NOTES	1	&Notes...

PSTAT	PSTAT	REF600P-43058	Potentiostat
VINIT	POTEN	0.00000E+000	T	Initial &E (V)
VLIMIT1	POTEN	8.00000E-001	F	Scan Limit &1 (V)
VLIMIT2	POTEN	-6.00000E-001	F	Scan Limit &2 (V)
VFINAL	POTEN	0.00000E+000	T	Final &E (V)
SCANRATE	QUANT	4.99999E+001	&Scan Rate (mV/s)
STEPSIZE	QUANT	1.00000E+001	St&ep Size (mV)
CYCLES	IQUANT	4	C&ycles (#)
IMODE	SELECTOR	0	I/E Range &Mode
IRANGE	QUANT	1.00000E-005	&Max Current (mA)
AREA	QUANT	1.00000E+000	Electrode &Area (cm^2)
ELECTRODETYPE	SELECTOR	0	Electrode Type
STRIPPING	TOGGLE	F	Used for Stripping
POLARITY	TOGGLE	F	Signal Polarity
CONDIT	TWOPARAM	F	1.50000E+001	0.00000E+000	Conditionin&g	Time(s)	E(V)
DELAY	TWOPARAM	T	1.00000E+001	0.00000E+000	Init. De&lay	Time(s)	Stab.(mV/s)
EQDELAY	QUANT	1.00000E+001	Equil. &Time (s)
IRCOMP	SELECTOR	0	IRCom&p
PFCOR	QUANT	5.00000E+001	PF Corr. (ohm)
SAMPLINGMODE	SELECTOR	1	Sampling &Mode
OCVCURVE	TABLE	39
	Pt	T	Vf	Vm	Ach	Over	Temp
	#	s	V vs. Ref.	V	V	bits	deg C
	0	0.258333	-9.21808E-002	-9.21808E-002	2.51859E-004	..........a	-327.66
	1	0.516667	-9.21858E-002	-9.24426E-002	2.39059E-004	..........a	-327.66
	2	0.775	-9.22165E-002	-9.26895E-002	2.28659E-004	..........a	-327.66
	3	1.03333	-9.23036E-002	-9.29457E-002	2.42059E-004	..........a	-327.66
	4	1.29167	-9.24608E-002	-9.31889E-002	2.38659E-004	..........a	-327.66
	5	1.55	-9.26732E-002	-9.34347E-002	2.44126E-004	..........a	-327.66
	6	1.80833	-9.29139E-002	-9.36626E-002	2.29792E-004	..........a	-327.66
	7	2.06667	-9.31616E-002	-9.38985E-002	2.29059E-004	..........a	-327.66
	8	2.325	-9.34059E-002	-9.41288E-002	2.31526E-004	..........a	-327.66
	9	2.58333	-9.36445E-002	-9.43574E-002	2.49392E-004	..........a	-327.66
	10	2.84167	-9.38785E-002	-9.45817E-002	2.47859E-004	..........a	-327.66
	11	3.1	-9.41094E-002	-9.48117E-002	2.37392E-004	..........a	-327.66
	12	3.35833	-9.43380E-002	-9.50247E-002	2.33792E-004	..........a	-327.66
	13	3.61667	-9.45639E-002	-9.52287E-002	2.40459E-004	..........a	-327.66
	14	3.875	-9.47857E-002	-9.54381E-002	2.37526E-004	..........a	-327.66
	15	4.13333	-9.50018E-002	-9.56370E-002	2.41326E-004	..........a	-327.66
	16	4.39167	-9.52124E-002	-9.58462E-002	2.45059E-004	..........a	-327.66
	17	4.65	-9.54194E-002	-9.60510E-002	2.36859E-004	..........a	-327.66
	18	4.90833	-9.56249E-002	-9.62644E-002	2.39726E-004	..........a	-327.66
	19	5.16667	-9.58308E-002	-9.64733E-002	2.40992E-004	..........a	-327.66
	20	5.425	-9.60380E-002	-9.66702E-002	2.35992E-004	..........a	-327.66
	21	5.68333	-9.62455E-002	-9.68719E-002	2.29859E-004	..........a	-327.66
	22	5.94167	-9.64512E-002	-9.70669E-002	2.38592E-004	..........a	-327.66
	23	6.2	-9.66541E-002	-9.72706E-002	2.32326E-004	..........a	-327.66
	24	6.45833	-9.68546E-002	-9.74561E-002	2.43659E-004	..........a	-327.66
	25	6.71667	-9.70525E-002	-9.76316E-002	2.35392E-004	..........a	-327.66
	26	6.975	-9.72464E-002	-9.78128E-002	2.32126E-004	..........a	-327.66
	27	7.23333	-9.74350E-002	-9.80002E-002	2.35192E-004	..........a	-327.66
	28	7.49167	-9.76193E-002	-9.81732E-002	2.35126E-004	..........a	-327.66
	29	7.75	-9.78008E-002	-9.83413E-002	2.53392E-004	..........a	-327.66
	30	8.00833	-9.79800E-002	-9.85186E-002	2.20592E-004	..........a	-327.66
	31	8.26667	-9.81563E-002	-9.86831E-002	2.37192E-004	..........a	-327.66
	32	8.525	-9.83298E-002	-9.88502E-002	2.45326E-004	..........a	-327.66
	33	8.78333	-9.85008E-002	-9.90137E-002	2.32792E-004	..........a	-327.66
	34	9.04167	-9.86693E-002	-9.91764E-002	2.28859E-004	..........a	-327.66
	35	9.3	-9.88356E-002	-9.93369E-002	2.38192E-004	..........a	-327.66
	36	9.5583	-9.90000E-002	-9.94982E-002	2.29659E-004	..........a	-327.66
	37	9.8167	-9.91627E-002	-9.96568E-002	2.26259E-004	..........a	-327.66
	38	10.075	-9.93241E-002	-9.98083E-002	2.46659E-004	..........a	-327.66
EOC	QUANT	-0.0993241	Open Circuit (V)
PSTATMODEL	IQUANT	7	Pstat Model
PSTATSECTION	LABEL	REF600P-43058	Pstat Section
PSTATSERIALNO	LABEL	43058	Pstat Serial Number
CTRLMODE	IQUANT	1	Control Mode
ELECTROMETER	IQUANT	0	RE=0 or CS=1
IESTAB	IQUANT	2	I/E Stability
CASPEED	IQUANT	4	Control Amp Speed
CONVENTION	IQUANT	1	Current Convention
ICHRANGE	IQUANT	2	Ich Range
ICHRANGEMODE	TOGGLE	F	Ich Auto Range
ICHOFFSETENABLE	TOGGLE	F	Ich Offset Enable
ICHOFFSET	QUANT	0	Ich Offset (V)
ICHFILTER	IQUANT	2	Ich Filter
VCHRANGE	IQUANT	2	Vch Range
VCHRANGEMODE	TOGGLE	F	Vch Auto Range
VCHOFFSETENABLE	TOGGLE	F	Vch Offset Enable
VCHOFFSET	QUANT	0	Vch Offset (V)
VCHFILTER	IQUANT	2	Vch Filter
ACHRANGE	IQUANT	2	Ach Range
ACHOFFSETENABLE	TOGGLE	F	Ach Offset Enable
ACHOFFSET	QUANT	0	Ach Offset (V)
ACHFILTER	IQUANT	1	Ach Filter
IERANGELOWERLIMIT	IQUANT	1	I/E Range Lower Limit
IERANGEMODE	TOGGLE	T	I/E AutoRange
IERANGE	IQUANT	4	I/E Range
POSFEEDENABLE	TOGGLE	F	Positive Feedback IR Comp
POSFEEDRESISTANCE	QUANT	0	Positive Feedback Resistance (ohm)
ACHSELECT	IQUANT	4	Ach Select
SENSECABLEID	IQUANT	7	Sense Cable ID
PWRCABLEID	IQUANT	7	Power Cable ID
DCCALDATE	LABEL	3/22/2024	DC Calibration Date
ACCALDATE	LABEL	3/22/2024	AC Calibration Date
THERMOSELECT	IQUANT	1	Thermo Select
FRAMEWORKVERSION	LABEL	7.8.4	Framework Version
INSTRUMENTVERSION	LABEL	4.42	Instrument Version
CURVE1	TABLE
	Pt	T	Vf	Im	Vu	Sig	Ach	IERange	Over	Temp
	#	s	V vs. Ref.	A	V	V	V	#	bits	deg C
	0	0.2	-9.92782E-002	1.02492E-009	0.00000E+000	-9.93000E-002	1.01869E-003	5	..........a	-327.66
	1	0.4	-8.92456E-002	4.44369E-009	0.00000E+000	-8.93000E-002	1.00679E-003	5	..........a	-327.66
	2	0.6	-7.92879E-002	6.72144E-009	0.00000E+000	-7.93000E-002	9.91092E-004	5	..........a	-327.66
	3	0.8	-6.92085E-002	8.47902E-009	0.00000E+000	-6.93000E-002	1.01479E-003	5	..........a	-327.66
	4	1	-5.92632E-002	9.94343E-009	0.00000E+000	-5.93000E-002	1.02339E-003	5	..........a	-327.66
	5	1.2	-4.92694E-002	1.12207E-008	0.00000E+000	-4.93000E-002	1.01099E-003	5	..........a	-327.66
	6	1.4	-3.92463E-002	1.23764E-008	0.00000E+000	-3.93000E-002	1.00059E-003	5	..........a	-327.66
	7	1.6	-2.92336E-002	1.34569E-008	0.00000E+000	-2.93000E-002	1.03369E-003	5	..........a	-327.66
	8	1.8	-1.92746E-002	1.44838E-008	0.00000E+000	-1.93000E-002	1.02049E-003	5	..........a	-327.66
	9	2	-9.23896E-003	1.54539E-008	0.00000E+000	-9.29999E-003	1.02799E-003	5	..........a	-327.66
	10	2.2	7.49992E-004	1.64412E-008	0.00000E+000	7.00004E-004	1.00319E-003	5	..........a	-327.66
	11	2.4	1.08147E-002	1.74545E-008	0.00000E+000	1.07000E-002	1.01299E-003	5	..........a	-327.66
	12	2.6	2.07101E-002	1.84718E-008	0.00000E+000	2.07000E-002	1.00919E-003	5	..........a	-327.66
	13	2.8	3.07397E-002	1.95191E-008	0.00000E+000	3.07000E-002	1.00369E-003	5	..........a	-327.66
	14	3	4.04976E-002	2.05561E-008	0.00000E+000	4.07000E-002	1.01679E-003	5	..........a	-327.66
	15	3.2	5.07568E-002	2.17554E-008	0.00000E+000	5.07000E-002	1.00629E-003	5	..........a	-327.66
	16	3.4	6.07223E-002	2.29719E-008	0.00000E+000	6.07000E-002	1.00229E-003	5	..........a	-327.66
	17	3.6	7.07007E-002	2.43166E-008	0.00000E+000	7.07000E-002	1.00769E-003	5	..........a	-327.66
	18	3.8	8.07744E-002	2.57065E-008	0.00000E+000	8.07000E-002	1.02349E-003	5	..........a	-327.66
	19	4	9.07945E-002	2.73510E-008	0.00000E+000	9.07000E-002	1.01369E-003	5	..........a	-327.66
	20	4.2	1.00705E-001	2.91067E-008	0.00000E+000	1.00700E-001	1.01159E-003	5	..........a	-327.66
	21	4.4	1.10772E-001	3.10769E-008	0.00000E+000	1.10700E-001	1.01289E-003	5	..........a	-327.66
	22	4.6	1.20805E-001	3.32505E-008	0.00000E+000	1.20700E-001	1.01029E-003	5	..........a	-327.66
	23	4.8	1.30799E-001	3.56605E-008	0.00000E+000	1.30700E-001	1.01769E-003	5	..........a	-327.66
	24	5	1.40752E-001	3.84487E-008	0.00000E+000	1.40700E-001	9.98692E-004	5	..........a	-327.66
	25	5.2	1.50720E-001	4.22570E-008	0.00000E+000	1.50700E-001	1.01879E-003	5	..........a	-327.66
	26	5.4	1.60759E-001	5.77836E-008	0.00000E+000	1.60700E-001	1.01189E-003	5	..........a	-327.66
	27	5.6	1.70745E-001	1.06626E-007	0.00000E+000	1.70700E-001	9.97792E-004	5	..........a	-327.66
	28	5.8	1.80714E-001	7.26545E-008	0.00000E+000	1.80700E-001	1.01159E-003	5	..........a	-327.66
	29	6	1.90737E-001	5.48684E-008	0.00000E+000	1.90700E-001	9.99392E-004	5	..........a	-327.66
	30	6.2	2.00755E-001	5.41330E-008	0.00000E+000	2.00700E-001	1.00389E-003	5	..........a	-327.66
	31	6.4	2.10772E-001	5.56776E-008	0.00000E+000	2.10700E-001	1.00569E-003	5	..........a	-327.66
	32	6.6	2.20719E-001	5.78662E-008	0.00000E+000	2.20700E-001	1.01329E-003	5	..........a	-327.66
	33	6.8	2.30675E-001	6.02365E-008	0.00000E+000	2.30700E-001	1.00439E-003	5	..........a	-327.66
	34	7	2.40715E-001	6.27669E-008	0.00000E+000	2.40700E-001	9.92492E-004	5	..........a	-327.66
	35	7.2	2.50769E-001	6.52639E-008	0.00000E+000	2.50700E-001	1.01279E-003	5	..........a	-327.66
	36	7.4	2.60691E-001	6.77485E-008	0.00000E+000	2.60700E-001	1.02789E-003	5	..........a	-327.66
	37	7.6	2.70734E-001	7.02157E-008	0.00000E+000	2.70700E-001	1.01629E-003	5	..........a	-327.66
	38	7.8	2.80668E-001	7.26050E-008	0.00000E+000	2.80700E-001	9.98392E-004	5	..........a	-327.66
	39	8	2.90760E-001	7.49640E-008	0.00000E+000	2.90700E-001	1.02619E-003	5	..........a	-327.66
	40	8.2	3.00681E-001	7.72025E-008	0.00000E+000	3.00700E-001	1.01949E-003	5	..........a	-327.66
	41	8.4	3.10666E-001	7.94472E-008	0.00000E+000	3.10700E-001	1.00239E-003	5	..........a	-327.66
	42	8.6	3.20730E-001	8.17296E-008	0.00000E+000	3.20700E-001	1.01099E-003	5	..........a	-327.66
	43	8.8	3.30731E-001	8.41706E-008	0.00000E+000	3.30700E-001	1.02349E-003	5	..........a	-327.66
	44	9	3.40701E-001	8.67168E-008	0.00000E+000	3.40700E-001	1.00349E-003	5	..........a	-327.66
	45	9.2	3.50659E-001	8.94245E-008	0.00000E+000	3.50700E-001	1.01729E-003	5	..........a	-327.66
	46	9.4	3.60690E-001	9.22665E-008	0.00000E+000	3.60700E-001	1.01299E-003	5	..........a	-327.66
	47	9.6	3.70740E-001	9.52105E-008	0.00000E+000	3.70700E-001	1.02039E-003	5	..........a	-327.66
	48	9.8	3.80676E-001	9.83045E-008	0.00000E+000	3.80700E-001	1.01029E-003	5	..........a	-327.66
	49	10	3.90684E-001	1.01552E-007	0.00000E+000	3.90700E-001	1.01209E-003	5	..........a	-327.66
	50	10.2	4.00714E-001	1.04923E-007	0.00000E+000	4.00700E-001	1.00789E-003	5	..........a	-327.66
	51	10.4	4.10754E-001	1.08328E-007	0.00000E+000	4.10700E-001	1.01459E-003	5	..........a	-327.66
	52	10.6	4.20644E-001	1.11813E-007	0.00000E+000	4.20700E-001	9.97192E-004	5	..........a	-327.66
	53	10.8	4.30629E-001	1.15195E-007	0.00000E+000	4.30700E-001	1.00939E-003	5	..........a	-327.66
	54	11	4.40659E-001	1.18477E-007	0.00000E+000	4.40700E-001	9.98892E-004	5	..........a	-327.66
	55	11.2	4.50746E-001	1.21817E-007	0.00000E+000	4.50700E-001	1.00949E-003	5	..........a	-327.66
	56	11.4	4.60629E-001	1.25187E-007	0.00000E+000	4.60700E-001	1.01039E-003	5	..........a	-327.66
	57	11.6	4.70640E-001	1.28568E-007	0.00000E+000	4.70700E-001	1.01489E-003	5	..........a	-327.66
	58	11.8	4.80632E-001	1.32030E-007	0.00000E+000	4.80700E-001	9.91292E-004	5	..........a	-327.66
	59	12	4.90718E-001	1.35590E-007	0.00000E+000	4.90700E-001	9.93192E-004	5	..........a	-327.66
	60	12.2	5.00627E-001	1.39234E-007	0.00000E+000	5.00700E-001	1.00229E-003	5	..........a	-327.66
	61	12.4	5.10616E-001	1.42988E-007	0.00000E+000	5.10700E-001	1.00799E-003	5	..........a	-327.66
	62	12.6	5.20637E-001	1.46917E-007	0.00000E+000	5.20700E-001	1.02099E-003	5	..........a	-327.66
	63	12.8	5.30733E-001	1.50991E-007	0.00000E+000	5.30700E-001	1.02049E-003	5	..........a	-327.66
	64	13	5.40635E-001	1.55240E-007	0.00000E+000	5.40700E-001	1.00909E-003	5	..........a	-327.66
	65	13.2	5.50707E-001	1.59607E-007	0.00000E+000	5.50700E-001	9.98092E-004	5	..........a	-327.66
	66	13.4	5.60640E-001	1.64106E-007	0.00000E+000	5.60700E-001	9.98792E-004	5	..........a	-327.66
	67	13.6	5.70690E-001	1.68705E-007	0.00000E+000	5.70700E-001	1.00139E-003	5	..........a	-327.66
	68	13.8	5.80603E-001	1.73343E-007	0.00000E+000	5.80700E-001	1.01849E-003	5	..........a	-327.66
	69	14	5.90584E-001	1.77980E-007	0.00000E+000	5.90700E-001	1.01309E-003	5	..........a	-327.66
	70	14.2	6.00608E-001	1.82674E-007	0.00000E+000	6.00700E-001	9.83992E-004	5	..........a	-327.66
	71	14.4	6.10712E-001	1.87440E-007	0.00000E+000	6.10700E-001	1.00779E-003	5	..........a	-327.66
	72	14.6	6.20559E-001	1.92250E-007	0.00000E+000	6.20700E-001	1.00679E-003	5	..........a	-327.66
	73	14.8	6.30554E-001	1.97045E-007	0.00000E+000	6.30700E-001	1.01719E-003	5	..........a	-327.66
	74	15	6.40543E-001	2.01899E-007	0.00000E+000	6.40700E-001	1.01409E-003	5	..........a	-327.66
	75	15.2	6.50629E-001	2.06917E-007	0.00000E+000	6.50700E-001	9.82392E-004	5	..........a	-327.66
	76	15.4	6.60564E-001	2.12020E-007	0.00000E+000	6.60700E-001	1.00279E-003	5	..........a	-327.66
	77	15.6	6.70516E-001	2.17244E-007	0.00000E+000	6.70700E-001	9.85592E-004	5	..........a	-327.66
	78	15.8	6.80475E-001	2.22695E-007	0.00000E+000	6.80700E-001	1.00119E-003	5	..........a	-327.66
	79	16	6.90648E-001	2.28344E-007	0.00000E+000	6.90700E-001	1.00239E-003	5	..........a	-327.66
	80	16.2	7.00562E-001	2.34149E-007	0.00000E+000	7.00700E-001	9.87392E-004	5	..........a	-327.66
	81	16.4	7.10541E-001	2.40186E-007	0.00000E+000	7.10700E-001	1.00189E-003	5	..........a	-327.66
	82	16.6	7.20549E-001	2.46492E-007	0.00000E+000	7.20700E-001	1.01079E-003	5	..........a	-327.66
	83	16.8	7.30652E-001	2.53035E-007	0.00000E+000	7.30700E-001	1.00469E-003	5	..........a	-327.66
	84	17	7.40513E-001	2.59906E-007	0.00000E+000	7.40700E-001	1.00739E-003	5	..........a	-327.66
	85	17.2	7.50540E-001	2.67250E-007	0.00000E+000	7.50700E-001	1.01659E-003	5	..........a	-327.66
	86	17.4	7.60524E-001	2.74945E-007	0.00000E+000	7.60700E-001	1.00699E-003	5	..........a	-327.66
	87	17.6	7.70606E-001	2.82857E-007	0.00000E+000	7.70700E-001	1.01019E-003	5	..........a	-327.66
	88	17.8	7.80550E-001	2.90632E-007	0.00000E+000	7.80700E-001	1.00379E-003	5	..........a	-327.66
	89	18	7.90491E-001	2.98324E-007	0.00000E+000	7.90700E-001	1.00559E-003	5	..........a	-327.66
	90	18.2	8.00520E-001	3.06068E-007	0.00000E+000	8.00700E-001	1.00089E-003	5	..........a	-327.66
	91	18.4	7.90520E-001	2.56815E-007	0.00000E+000	7.90700E-001	1.00579E-003	5	..........a	-327.66
	92	18.6	7.80568E-001	2.23383E-007	0.00000E+000	7.80700E-001	1.00869E-003	5	..........a	-327.66
	93	18.8	7.70663E-001	1.97840E-007	0.00000E+000	7.70700E-001	9.98792E-004	5	..........a	-327.66
	94	19	7.60580E-001	1.77225E-007	0.00000E+000	7.60700E-001	1.00259E-003	5	..........a	-327.66
	95	19.2	7.50626E-001	1.59997E-007	0.00000E+000	7.50700E-001	1.01009E-003	5	..........a	-327.66
	96	19.4	7.40597E-001	1.45293E-007	0.00000E+000	7.40700E-001	1.01799E-003	5	..........a	-327.66
	97	19.6	7.30716E-001	1.32528E-007	0.00000E+000	7.30700E-001	1.01159E-003	5	..........a	-327.66
	98	19.8	7.20603E-001	1.21333E-007	0.00000E+000	7.20700E-001	1.00519E-003	5	..........a	-327.66
	99	20	7.10585E-001	1.11329E-007	0.00000E+000	7.10700E-001	1.02269E-003	5	..........a	-327.66
	100	20.2	7.00606E-001	1.02377E-007	0.00000E+000	7.00700E-001	9.81692E-004	5	..........a	-327.66
	101	20.4	6.90704E-001	9.43354E-008	0.00000E+000	6.90700E-001	1.01469E-003	5	..........a	-327.66
	102	20.6	6.80457E-001	8.69676E-008	0.00000E+000	6.80700E-001	9.92092E-004	5	..........a	-327.66
	103	20.8	6.70586E-001	8.01963E-008	0.00000E+000	6.70700E-001	1.01569E-003	5	..........a	-327.66
	104	21	6.60637E-001	7.40163E-008	0.00000E+000	6.60700E-001	1.00049E-003	5	..........a	-327.66
	105	21.2	6.50698E-001	6.82946E-008	0.00000E+000	6.50700E-001	1.00829E-003	5	..........a	-327.66
	106	21.4	6.40622E-001	6.29918E-008	0.00000E+000	6.40700E-001	1.01149E-003	5	..........a	-327.66
	107	21.6	6.30668E-001	5.80693E-008	0.00000E+000	6.30700E-001	9.96892E-004	5	..........a	-327.66
	108	21.8	6.20633E-001	5.34784E-008	0.00000E+000	6.20700E-001	1.00749E-003	5	..........a	-327.66
	109	22	6.10734E-001	4.91955E-008	0.00000E+000	6.10700E-001	9.99192E-004	5	..........a	-327.66
	110	22.2	6.00676E-001	4.51907E-008	0.00000E+000	6.00700E-001	1.00849E-003	5	..........a	-327.66
	111	22.4	5.90648E-001	4.13608E-008	0.00000E+000	5.90700E-001	1.02419E-003	5	..........a	-327.66
	112	22.6	5.80682E-001	3.77500E-008	0.00000E+000	5.80700E-001	1.02219E-003	5	..........a	-327.66
	113	22.8	5.70756E-001	3.43652E-008	0.00000E+000	5.70700E-001	1.01079E-003	5	..........a	-327.66
	114	23	5.60708E-001	3.11042E-008	0.00000E+000	5.60700E-001	9.97492E-004	5	..........a	-327.66
	115	23.2	5.50711E-001	2.80002E-008	0.00000E+000	5.50700E-001	1.02139E-003	5	..........a	-327.66
	116	23.4	5.40674E-001	2.50527E-008	0.00000E+000	5.40700E-001	1.00519E-003	5	..........a	-327.66
	117	23.6	5.30734E-001	2.22649E-008	0.00000E+000	5.30700E-001	1.00569E-003	5	..........a	-327.66
	118	23.8	5.20702E-001	1.95325E-008	0.00000E+000	5.20700E-001	1.02579E-003	5	..........a	-327.66
	119	24	5.10678E-001	1.69423E-008	0.00000E+000	5.10700E-001	1.01279E-003	5	..........a	-327.66
	120	24.2	5.00700E-001	1.44512E-008	0.00000E+000	5.00700E-001	9.97892E-004	5	..........a	-327.66
	121	24.4	4.90748E-001	1.20260E-008	0.00000E+000	4.90700E-001	1.03769E-003	5	..........a	-327.66
	122	24.6	4.80711E-001	9.66667E-009	0.00000E+000	4.80700E-001	9.95392E-004	5	..........a	-327.66
	123	24.8	4.70672E-001	7.40621E-009	0.00000E+000	4.70700E-001	1.00499E-003	5	..........a	-327.66
	124	25	4.60681E-001	5.17319E-009	0.00000E+000	4.60700E-001	1.01259E-003	5	..........a	-327.66
	125	25.2	4.50686E-001	3.02319E-009	0.00000E+000	4.50700E-001	1.02289E-003	5	..........a	-327.66
	126	25.4	4.40698E-001	8.44958E-010	0.00000E+000	4.40700E-001	1.00029E-003	5	..........a	-327.66
	127	25.6	4.30680E-001	-1.31007E-009	0.00000E+000	4.30700E-001	1.00909E-003	5	..........a	-327.66
	128	25.8	4.20707E-001	-3.46585E-009	0.00000E+000	4.20700E-001	9.89392E-004	5	..........a	-327.66
	129	26	4.10789E-001	-5.55989E-009	0.00000E+000	4.10700E-001	1.01049E-003	5	..........a	-327.66
	130	26.2	4.00741E-001	-7.65270E-009	0.00000E+000	4.00700E-001	9.93592E-004	5	..........a	-327.66
	131	26.4	3.90738E-001	-9.82919E-009	0.00000E+000	3.90700E-001	1.02289E-003	5	..........a	-327.66
	132	26.6	3.80735E-001	-1.20487E-008	0.00000E+000	3.80700E-001	1.01339E-003	5	..........a	-327.66
	133	26.8	3.70786E-001	-1.42588E-008	0.00000E+000	3.70700E-001	1.00139E-003	5	..........a	-327.66
	134	27	3.60747E-001	-1.65269E-008	0.00000E+000	3.60700E-001	1.01609E-003	5	..........a	-327.66
	135	27.2	3.50734E-001	-1.88538E-008	0.00000E+000	3.50700E-001	1.00269E-003	5	..........a	-327.66
	136	27.4	3.40748E-001	-2.12106E-008	0.00000E+000	3.40700E-001	1.00939E-003	5	..........a	-327.66
	137	27.6	3.30784E-001	-2.35999E-008	0.00000E+000	3.30700E-001	1.01349E-003	5	..........a	-327.66
	138	27.8	3.20818E-001	-2.60832E-008	0.00000E+000	3.20700E-001	1.00379E-003	5	..........a	-327.66
	139	28	3.10713E-001	-2.85715E-008	0.00000E+000	3.10700E-001	1.02629E-003	5	..........a	-327.66
	140	28.2	3.00717E-001	-3.11660E-008	0.00000E+000	3.00700E-001	1.01309E-003	5	..........a	-327.66
	141	28.4	2.90802E-001	-3.37925E-008	0.00000E+000	2.90700E-001	1.00799E-003	5	..........a	-327.66
	142	28.6	2.80752E-001	-3.64953E-008	0.00000E+000	2.80700E-001	1.01709E-003	5	..........a	-327.66
	143	28.8	2.70610E-001	-3.91966E-008	0.00000E+000	2.70700E-001	9.99392E-004	5	..........a	-327.66
	144	29	2.60737E-001	-4.19480E-008	0.00000E+000	2.60700E-001	9.86392E-004	5	..........a	-327.66
	145	29.2	2.50814E-001	-4.46212E-008	0.00000E+000	2.50700E-001	1.00129E-003	5	..........a	-327.66
	146	29.4	2.40788E-001	-4.72144E-008	0.00000E+000	2.40700E-001	1.00999E-003	5	..........a	-327.66
	147	29.6	2.30745E-001	-4.97124E-008	0.00000E+000	2.30700E-001	1.01069E-003	5	..........a	-327.66
	148	29.8	2.20740E-001	-5.20373E-008	0.00000E+000	2.20700E-001	1.00689E-003	5	..........a	-327.66
	149	30	2.10796E-001	-5.41150E-008	0.00000E+000	2.10700E-001	1.00619E-003	5	..........a	-327.66
	150	30.2	2.00835E-001	-5.57885E-008	0.00000E+000	2.00700E-001	9.95792E-004	5	..........a	-327.66
	151	30.4	1.90823E-001	-5.70376E-008	0.00000E+000	1.90700E-001	1.01929E-003	5	..........a	-327.66
	152	30.6	1.80768E-001	-5.77199E-008	0.00000E+000	1.80700E-001	1.01329E-003	5	..........a	-327.66
	153	30.8	1.70771E-001	-5.77667E-008	0.00000E+000	1.70700E-001	1.01769E-003	5	..........a	-327.66
	154	31	1.60818E-001	-5.72460E-008	0.00000E+000	1.60700E-001	1.00759E-003	5	..........a	-327.66
	155	31.2	1.50804E-001	-5.61872E-008	0.00000E+000	1.50700E-001	1.02609E-003	5	..........a	-327.66
	156	31.4	1.40824E-001	-5.47999E-008	0.00000E+000	1.40700E-001	9.85992E-004	5	..........a	-327.66
	157	31.6	1.30793E-001	-5.32340E-008	0.00000E+000	1.30700E-001	1.01999E-003	5	..........a	-327.66
	158	31.8	1.20866E-001	-5.16688E-008	0.00000E+000	1.20700E-001	1.00259E-003	5	..........a	-327.66
	159	32	1.10818E-001	-5.02184E-008	0.00000E+000	1.10700E-001	1.02659E-003	5	..........a	-327.66
	160	32.2	1.00747E-001	-4.89191E-008	0.00000E+000	1.00700E-001	1.02179E-003	5	..........a	-327.66
	161	32.4	9.08446E-002	-4.78068E-008	0.00000E+000	9.07000E-002	1.01509E-003	5	..........a	-327.66
	162	32.6	8.08067E-002	-4.67158E-008	0.00000E+000	8.07000E-002	1.00479E-003	5	..........a	-327.66
	163	32.8	7.07780E-002	-4.57446E-008	0.00000E+000	7.07000E-002	9.98992E-004	5	..........a	-327.66
	164	33	6.08132E-002	-4.48035E-008	0.00000E+000	6.07000E-002	1.00709E-003	5	..........a	-327.66
	165	33.2	5.08013E-002	-4.41073E-008	0.00000E+000	5.07000E-002	1.02859E-003	5	..........a	-327.66
	166	33.4	4.07694E-002	-4.33663E-008	0.00000E+000	4.07000E-002	9.97892E-004	5	..........a	-327.66
	167	33.6	3.07662E-002	-4.18367E-008	0.00000E+000	3.07000E-002	1.02379E-003	5	..........a	-327.66
	168	33.8	2.07476E-002	-3.96341E-008	0.00000E+000	2.07000E-002	1.01239E-003	5	..........a	-327.66
	169	34	1.08363E-002	-3.89705E-008	0.00000E+000	1.07000E-002	9.98792E-004	5	..........a	-327.66
	170	34.2	7.98242E-004	-3.96160E-008	0.00000E+000	7.00004E-004	9.98192E-004	5	..........a	-327.66
	171	34.4	-9.18021E-003	-3.96479E-008	0.00000E+000	-9.29999E-003	1.01069E-003	5	..........a	-327.66
	172	34.6	-1.92295E-002	-3.88694E-008	0.00000E+000	-1.93000E-002	1.01689E-003	5	..........a	-327.66
	173	34.8	-2.91954E-002	-3.89044E-008	0.00000E+000	-2.93000E-002	9.89692E-004	5	..........a	-327.66
	174	35	-3.92087E-002	-3.90346E-008	0.00000E+000	-3.93000E-002	1.02209E-003	5	..........a	-327.66
	175	35.2	-4.92502E-002	-3.91288E-008	0.00000E+000	-4.93000E-002	1.02059E-003	5	..........a	-327.66
	176	35.4	-5.92261E-002	-3.92414E-008	0.00000E+000	-5.93000E-002	1.02409E-003	5	..........a	-327.66
	177	35.6	-6.91587E-002	-3.96628E-008	0.00000E+000	-6.93000E-002	1.01519E-003	5	..........a	-327.66
	178	35.8	-7.92072E-002	-3.99026E-008	0.00000E+000	-7.93000E-002	1.01109E-003	5	..........a	-327.66
	179	36	-8.91983E-002	-4.03113E-008	0.00000E+000	-8.93000E-002	1.01029E-003	5	..........a	-327.66
	180	36.2	-9.92318E-002	-4.08686E-008	0.00000E+000	-9.93000E-002	9.99092E-004	5	..........a	-327.66
	181	36.4	-1.09181E-001	-4.15048E-008	0.00000E+000	-1.09300E-001	1.00799E-003	5	..........a	-327.66
	182	36.6	-1.19220E-001	-4.19297E-008	0.00000E+000	-1.19300E-001	9.90192E-004	5	..........a	-327.66
	183	36.8	-1.29268E-001	-4.28520E-008	0.00000E+000	-1.29300E-001	1.00869E-003	5	..........a	-327.66
	184	37	-1.39183E-001	-4.33739E-008	0.00000E+000	-1.39300E-001	1.00779E-003	5	..........a	-327.66
	185	37.2	-1.49194E-001	-4.41730E-008	0.00000E+000	-1.49300E-001	1.00899E-003	5	..........a	-327.66
	186	37.4	-1.59203E-001	-4.52913E-008	0.00000E+000	-1.59300E-001	9.90092E-004	5	..........a	-327.66
	187	37.6	-1.69187E-001	-4.61634E-008	0.00000E+000	-1.69300E-001	1.00639E-003	5	..........a	-327.66
	188	37.8	-1.79254E-001	-4.68966E-008	0.00000E+000	-1.79300E-001	1.00559E-003	5	..........a	-327.66
	189	38	-1.89148E-001	-4.76330E-008	0.00000E+000	-1.89300E-001	1.00069E-003	5	..........a	-327.66
	190	38.2	-1.99218E-001	-4.83930E-008	0.00000E+000	-1.99300E-001	9.95792E-004	5	..........a	-327.66
	191	38.4	-2.09212E-001	-4.91066E-008	0.00000E+000	-2.09300E-001	1.03369E-003	5	..........a	-327.66
	192	38.6	-2.19149E-001	-5.00944E-008	0.00000E+000	-2.19300E-001	9.93792E-004	5	..........a	-327.66
	193	38.8	-2.29121E-001	-5.05438E-008	0.00000E+000	-2.29300E-001	9.98292E-004	5	..........a	-327.66
	194	39	-2.39150E-001	-5.12486E-008	0.00000E+000	-2.39300E-001	9.89392E-004	5	..........a	-327.66
	195	39.2	-2.49172E-001	-5.20426E-008	0.00000E+000	-2.49300E-001	1.00899E-003	5	..........a	-327.66
	196	39.4	-2.59209E-001	-5.27826E-008	0.00000E+000	-2.59300E-001	1.01719E-003	5	..........a	-327.66
	197	39.6	-2.69133E-001	-5.33885E-008	0.00000E+000	-2.69300E-001	1.01319E-003	5	..........a	-327.66
	198	39.8	-2.79145E-001	-5.41326E-008	0.00000E+000	-2.79300E-001	1.00849E-003	5	..........a	-327.66
	199	40	-2.89154E-001	-5.50631E-008	0.00000E+000	-2.89300E-001	1.01119E-003	5	..........a	-327.66
	200	40.2	-2.99155E-001	-5.58382E-008	0.00000E+000	-2.99300E-001	1.01159E-003	5	..........a	-327.66
	201	40.4	-3.09156E-001	-5.66829E-008	0.00000E+000	-3.09300E-001	1.01299E-003	5	..........a	-327.66
	202	40.6	-3.19149E-001	-5.77808E-008	0.00000E+000	-3.19300E-001	9.79592E-004	5	..........a	-327.66
	203	40.8	-3.29228E-001	-5.86114E-008	0.00000E+000	-3.29300E-001	1.01719E-003	5	..........a	-327.66
	204	41	-3.39219E-001	-5.95594E-008	0.00000E+000	-3.39300E-001	1.01469E-003	5	..........a	-327.66
	205	41.2	-3.49121E-001	-6.03209E-008	0.00000E+000	-3.49300E-001	1.01369E-003	5	..........a	-327.66
	206	41.4	-3.59136E-001	-6.09849E-008	0.00000E+000	-3.59300E-001	9.82692E-004	5	..........a	-327.66
	207	41.6	-3.69146E-001	-6.20108E-008	0.00000E+000	-3.69300E-001	1.00399E-003	5	..........a	-327.66
	208	41.8	-3.79185E-001	-6.24884E-008	0.00000E+000	-3.79300E-001	1.01819E-003	5	..........a	-327.66
	209	42	-3.89196E-001	-6.33734E-008	0.00000E+000	-3.89300E-001	1.00709E-003	5	..........a	-327.66
	210	42.2	-3.99152E-001	-6.41316E-008	0.00000E+000	-3.99300E-001	1.00059E-003	5	..........a	-327.66
	211	42.4	-4.09173E-001	-6.50429E-008	0.00000E+000	-4.09300E-001	9.98092E-004	5	..........a	-327.66
	212	42.6	-4.19133E-001	-6.63721E-008	0.00000E+000	-4.19300E-001	9.97092E-004	5	..........a	-327.66
	213	42.8	-4.29104E-001	-6.71473E-008	0.00000E+000	-4.29300E-001	1.00669E-003	5	..........a	-327.66
	214	43	-4.39101E-001	-6.80453E-008	0.00000E+000	-4.39300E-001	1.01219E-003	5	..........a	-327.66
	215	43.2	-4.49129E-001	-6.92325E-008	0.00000E+000	-4.49300E-001	1.00159E-003	5	..........a	-327.66
	216	43.4	-4.59139E-001	-6.98347E-008	0.00000E+000	-4.59300E-001	1.00369E-003	5	..........a	-327.66
	217	43.6	-4.69135E-001	-7.09364E-008	0.00000E+000	-4.69300E-001	1.03639E-003	5	..........a	-327.66
	218	43.8	-4.79075E-001	-7.18439E-008	0.00000E+000	-4.79300E-001	9.95492E-004	5	..........a	-327.66
	219	44	-4.89143E-001	-7.29009E-008	0.00000E+000	-4.89300E-001	1.00479E-003	5	..........a	-327.66
	220	44.2	-4.99132E-001	-7.38789E-008	0.00000E+000	-4.99300E-001	1.00919E-003	5	..........a	-327.66
	221	44.4	-5.09142E-001	-7.47965E-008	0.00000E+000	-5.09300E-001	1.02469E-003	5	..........a	-327.66
	222	44.6	-5.19089E-001	-7.59606E-008	0.00000E+000	-5.19300E-001	9.82092E-004	5	..........a	-327.66
	223	44.8	-5.29118E-001	-7.68789E-008	0.00000E+000	-5.29300E-001	9.93192E-004	5	..........a	-327.66
	224	45	-5.39189E-001	-7.80522E-008	0.00000E+000	-5.39300E-001	1.01519E-003	5	..........a	-327.66
	225	45.2	-5.49101E-001	-7.93596E-008	0.00000E+000	-5.49300E-001	1.00529E-003	5	..........a	-327.66
	226	45.4	-5.59109E-001	-8.06716E-008	0.00000E+000	-5.59300E-001	1.00409E-003	5	..........a	-327.66
	227	45.6	-5.69162E-001	-8.21353E-008	0.00000E+000	-5.69300E-001	1.00899E-003	5	..........a	-327.66
	228	45.8	-5.79129E-001	-8.37448E-008	0.00000E+000	-5.79300E-001	1.00409E-003	5	..........a	-327.66
	229	46	-5.89125E-001	-8.59689E-008	0.00000E+000	-5.89300E-001	1.01489E-003	5	..........a	-327.66
	230	46.2	-5.99106E-001	-8.73823E-008	0.00000E+000	-5.99300E-001	9.93192E-004	5	..........a	-327.66
CURVE2	TABLE
	Pt	T	Vf	Im	Vu	Sig	Ach	IERange	Over	Temp
	#	s	V vs. Ref.	A	V	V	V	#	bits	deg C
	231	46.4	-5.89880E-001	-7.41042E-008	0.00000E+000	-5.90000E-001	1.00969E-003	5	..........a	-327.66
	232	46.6	-5.79809E-001	-6.43020E-008	0.00000E+000	-5.80000E-001	9.96392E-004	5	..........a	-327.66
	233	46.8	-5.69863E-001	-5.71321E-008	0.00000E+000	-5.70000E-001	1.03659E-003	5	..........a	-327.66
	234	47	-5.59855E-001	-5.11007E-008	0.00000E+000	-5.60000E-001	1.00669E-003	5	..........a	-327.66
	235	47.2	-5.49860E-001	-4.64098E-008	0.00000E+000	-5.50000E-001	9.96992E-004	5	..........a	-327.66
	236	47.4	-5.39812E-001	-4.16633E-008	0.00000E+000	-5.40000E-001	1.01779E-003	5	..........a	-327.66
	237	47.6	-5.29863E-001	-3.78023E-008	0.00000E+000	-5.30000E-001	9.86392E-004	5	..........a	-327.66
	238	47.8	-5.19871E-001	-3.44458E-008	0.00000E+000	-5.20000E-001	1.01719E-003	5	..........a	-327.66
	239	48	-5.09856E-001	-3.12483E-008	0.00000E+000	-5.10000E-001	1.00279E-003	5	..........a	-327.66
	240	48.2	-4.99831E-001	-2.81675E-008	0.00000E+000	-5.00000E-001	1.00559E-003	5	..........a	-327.66
	241	48.4	-4.89869E-001	-2.54735E-008	0.00000E+000	-4.90000E-001	1.00719E-003	5	..........a	-327.66
	242	48.6	-4.79890E-001	-2.29808E-008	0.00000E+000	-4.80000E-001	1.01189E-003	5	..........a	-327.66
	243	48.8	-4.69862E-001	-2.07372E-008	0.00000E+000	-4.70000E-001	1.01349E-003	5	..........a	-327.66
	244	49	-4.59812E-001	-1.84365E-008	0.00000E+000	-4.60000E-001	1.00589E-003	5	..........a	-327.66
	245	49.2	-4.49843E-001	-1.63413E-008	0.00000E+000	-4.50000E-001	9.89592E-004	5	..........a	-327.66
	246	49.4	-4.39829E-001	-1.44531E-008	0.00000E+000	-4.40000E-001	1.01349E-003	5	..........a	-327.66
	247	49.6	-4.29899E-001	-1.27152E-008	0.00000E+000	-4.30000E-001	1.00819E-003	5	..........a	-327.66
	248	49.8	-4.19814E-001	-1.08725E-008	0.00000E+000	-4.20000E-001	9.88392E-004	5	..........a	-327.66
	249	50	-4.09886E-001	-9.31074E-009	0.00000E+000	-4.10000E-001	1.00299E-003	5	..........a	-327.66
	250	50.2	-3.99884E-001	-7.82750E-009	0.00000E+000	-4.00000E-001	1.02079E-003	5	..........a	-327.66
	251	50.4	-3.89927E-001	-6.38483E-009	0.00000E+000	-3.90000E-001	1.00189E-003	5	..........a	-327.66
	252	50.6	-3.79844E-001	-4.90374E-009	0.00000E+000	-3.80000E-001	9.96592E-004	5	..........a	-327.66
	253	50.8	-3.69841E-001	-3.58803E-009	0.00000E+000	-3.70000E-001	1.01829E-003	5	..........a	-327.66
	254	51	-3.59951E-001	-2.29860E-009	0.00000E+000	-3.60000E-001	1.00079E-003	5	..........a	-327.66
	255	51.2	-3.49905E-001	-1.07810E-009	0.00000E+000	-3.50000E-001	1.02009E-003	5	..........a	-327.66
	256	51.4	-3.39830E-001	6.54673E-012	0.00000E+000	-3.40000E-001	9.99692E-004	5	..........a	-327.66
	257	51.6	-3.29932E-001	1.18398E-009	0.00000E+000	-3.30000E-001	1.02069E-003	5	..........a	-327.66
	258	51.8	-3.19903E-001	2.30059E-009	0.00000E+000	-3.20000E-001	9.93692E-004	5	..........a	-327.66
	259	52	-3.09949E-001	3.34475E-009	0.00000E+000	-3.10000E-001	1.01929E-003	5	..........a	-327.66
	260	52.2	-2.99861E-001	4.30929E-009	0.00000E+000	-3.00000E-001	9.96092E-004	5	..........a	-327.66
	261	52.4	-2.89942E-001	5.30808E-009	0.00000E+000	-2.90000E-001	1.02369E-003	5	..........a	-327.66
	262	52.6	-2.79935E-001	6.29761E-009	0.00000E+000	-2.80000E-001	1.03589E-003	5	..........a	-327.66
	263	52.8	-2.69877E-001	7.20981E-009	0.00000E+000	-2.70000E-001	9.92092E-004	5	..........a	-327.66
	264	53	-2.59817E-001	8.17302E-009	0.00000E+000	-2.60000E-001	9.99892E-004	5	..........a	-327.66
	265	53.2	-2.49905E-001	9.06804E-009	0.00000E+000	-2.50000E-001	1.00639E-003	5	..........a	-327.66
	266	53.4	-2.39951E-001	9.94854E-009	0.00000E+000	-2.40000E-001	1.00389E-003	5	..........a	-327.66
	267	53.6	-2.29944E-001	1.08375E-008	0.00000E+000	-2.30000E-001	1.00909E-003	5	..........a	-327.66
	268	53.8	-2.19873E-001	1.17437E-008	0.00000E+000	-2.20000E-001	1.00569E-003	5	..........a	-327.66
	269	54	-2.09916E-001	1.25760E-008	0.00000E+000	-2.10000E-001	1.00009E-003	5	..........a	-327.66
	270	54.2	-2.00006E-001	1.34207E-008	0.00000E+000	-2.00000E-001	1.01259E-003	5	..........a	-327.66
	271	54.4	-1.89953E-001	1.42911E-008	0.00000E+000	-1.90000E-001	9.87292E-004	5	..........a	-327.66
	272	54.6	-1.79917E-001	1.51555E-008	0.00000E+000	-1.80000E-001	1.00989E-003	5	..........a	-327.66
	273	54.8	-1.69903E-001	1.59829E-008	0.00000E+000	-1.70000E-001	1.00929E-003	5	..........a	-327.66
	274	55	-1.60007E-001	1.68601E-008	0.00000E+000	-1.60000E-001	1.03639E-003	5	..........a	-327.66
	275	55.2	-1.50038E-001	1.77199E-008	0.00000E+000	-1.50000E-001	1.00479E-003	5	..........a	-327.66
	276	55.4	-1.39893E-001	1.85764E-008	0.00000E+000	-1.40000E-001	1.00399E-003	5	..........a	-327.66
	277	55.6	-1.29978E-001	1.94506E-008	0.00000E+000	-1.30000E-001	1.02269E-003	5	..........a	-327.66
	278	55.8	-1.19959E-001	2.02982E-008	0.00000E+000	-1.20000E-001	1.01689E-003	5	..........a	-327.66
	279	56	-1.09961E-001	2.11853E-008	0.00000E+000	-1.10000E-001	1.00929E-003	5	..........a	-327.66
	280	56.2	-9.99163E-002	2.20732E-008	0.00000E+000	-1.00000E-001	1.00749E-003	5	..........a	-327.66
	281	56.4	-8.99408E-002	2.29944E-008	0.00000E+000	-9.00000E-002	1.01289E-003	5	..........a	-327.66
	282	56.6	-7.99964E-002	2.39384E-008	0.00000E+000	-8.00000E-002	1.01199E-003	5	..........a	-327.66
	283	56.8	-6.99277E-002	2.48773E-008	0.00000E+000	-7.00000E-002	9.99592E-004	5	..........a	-327.66
	284	57	-5.98931E-002	2.58012E-008	0.00000E+000	-6.00000E-002	9.90192E-004	5	..........a	-327.66
	285	57.2	-4.99159E-002	2.67504E-008	0.00000E+000	-5.00000E-002	1.00009E-003	5	..........a	-327.66
	286	57.4	-3.99319E-002	2.77312E-008	0.00000E+000	-4.00000E-002	1.01229E-003	5	..........a	-327.66
	287	57.6	-2.99900E-002	2.87459E-008	0.00000E+000	-3.00000E-002	1.00729E-003	5	..........a	-327.66
	288	57.8	-1.99304E-002	2.97763E-008	0.00000E+000	-2.00000E-002	9.94292E-004	5	..........a	-327.66
	289	58	-9.90266E-003	3.08389E-008	0.00000E+000	-1.00000E-002	9.95492E-004	5	..........a	-327.66
	290	58.2	-1.00083E-005	3.19260E-008	0.00000E+000	7.45058E-009	1.00709E-003	5	..........a	-327.66
	291	58.4	1.00571E-002	3.30281E-008	0.00000E+000	1.00000E-002	1.01129E-003	5	..........a	-327.66
	292	58.6	2.01204E-002	3.41680E-008	0.00000E+000	2.00000E-002	1.02049E-003	5	..........a	-327.66
	293	58.8	3.00456E-002	3.52011E-008	0.00000E+000	3.00000E-002	1.00259E-003	5	..........a	-327.66
	294	59	3.99812E-002	3.62569E-008	0.00000E+000	4.00000E-002	1.03229E-003	5	..........a	-327.66
	295	59.2	5.00453E-002	3.73674E-008	0.00000E+000	5.00000E-002	1.02519E-003	5	..........a	-327.66
	296	59.4	6.00639E-002	3.84972E-008	0.00000E+000	6.00000E-002	9.84792E-004	5	..........a	-327.66
	297	59.6	6.99874E-002	3.97505E-008	0.00000E+000	7.00000E-002	1.03319E-003	5	..........a	-327.66
	298	59.8	7.99862E-002	4.10533E-008	0.00000E+000	8.00000E-002	1.02359E-003	5	..........a	-327.66
	299	60	9.00728E-002	4.25091E-008	0.00000E+000	9.00000E-002	1.01359E-003	5	..........a	-327.66
	300	60.2	1.00062E-001	4.39666E-008	0.00000E+000	1.00000E-001	1.00479E-003	5	..........a	-327.66
	301	60.4	1.10071E-001	4.57413E-008	0.00000E+000	1.10000E-001	1.00159E-003	5	..........a	-327.66
	302	60.6	1.19983E-001	4.83595E-008	0.00000E+000	1.20000E-001	1.00989E-003	5	..........a	-327.66
	303	60.8	1.30017E-001	5.32723E-008	0.00000E+000	1.30000E-001	1.01859E-003	5	..........a	-327.66
	304	61	1.40075E-001	5.99494E-008	0.00000E+000	1.40000E-001	1.00759E-003	5	..........a	-327.66
	305	61.2	1.50000E-001	6.44681E-008	0.00000E+000	1.50000E-001	1.01569E-003	5	..........a	-327.66
	306	61.4	1.60002E-001	6.32417E-008	0.00000E+000	1.60000E-001	1.01119E-003	5	..........a	-327.66
	307	61.6	1.70040E-001	6.11857E-008	0.00000E+000	1.70000E-001	1.01449E-003	5	..........a	-327.66
	308	61.8	1.80076E-001	5.99312E-008	0.00000E+000	1.80000E-001	1.01259E-003	5	..........a	-327.66
	309	62	1.90077E-001	5.98751E-008	0.00000E+000	1.90000E-001	9.97292E-004	5	..........a	-327.66
	310	62.2	1.99995E-001	6.04936E-008	0.00000E+000	2.00000E-001	1.02299E-003	5	..........a	-327.66
	311	62.4	2.09983E-001	6.13678E-008	0.00000E+000	2.10000E-001	9.94692E-004	5	..........a	-327.66
	312	62.6	2.19848E-001	6.22561E-008	0.00000E+000	2.20000E-001	1.01399E-003	5	..........a	-327.66
	313	62.8	2.29975E-001	6.30894E-008	0.00000E+000	2.30000E-001	1.03339E-003	5	..........a	-327.66
	314	63	2.39992E-001	6.39243E-008	0.00000E+000	2.40000E-001	1.01789E-003	5	..........a	-327.66
	315	63.2	2.49945E-001	6.47393E-008	0.00000E+000	2.50000E-001	9.99892E-004	5	..........a	-327.66
	316	63.4	2.60010E-001	6.56192E-008	0.00000E+000	2.60000E-001	1.00599E-003	5	..........a	-327.66
	317	63.6	2.70041E-001	6.65326E-008	0.00000E+000	2.70000E-001	1.01009E-003	5	..........a	-327.66
	318	63.8	2.79962E-001	6.75697E-008	0.00000E+000	2.80000E-001	1.02849E-003	5	..........a	-327.66
	319	64	2.89994E-001	6.86917E-008	0.00000E+000	2.90000E-001	1.01789E-003	5	..........a	-327.66
	320	64.2	3.00027E-001	6.99202E-008	0.00000E+000	3.00000E-001	9.94692E-004	5	..........a	-327.66
	321	64.4	3.10018E-001	7.11694E-008	0.00000E+000	3.10000E-001	9.91192E-004	5	..........a	-327.66
	322	64.6	3.20007E-001	7.25260E-008	0.00000E+000	3.20000E-001	1.01129E-003	5	..........a	-327.66
	323	64.8	3.29969E-001	7.39966E-008	0.00000E+000	3.30000E-001	1.02169E-003	5	..........a	-327.66
	324	65	3.40036E-001	7.54805E-008	0.00000E+000	3.40000E-001	9.90292E-004	5	..........a	-327.66
	325	65.2	3.50026E-001	7.70308E-008	0.00000E+000	3.50000E-001	1.02589E-003	5	..........a	-327.66
	326	65.4	3.59984E-001	7.86489E-008	0.00000E+000	3.60000E-001	1.00819E-003	5	..........a	-327.66
	327	65.6	3.69990E-001	8.02710E-008	0.00000E+000	3.70000E-001	1.01009E-003	5	..........a	-327.66
	328	65.8	3.80004E-001	8.19698E-008	0.00000E+000	3.80000E-001	1.01719E-003	5	..........a	-327.66
	329	66	3.89997E-001	8.37313E-008	0.00000E+000	3.90000E-001	1.02389E-003	5	..........a	-327.66
	330	66.2	3.99931E-001	8.54861E-008	0.00000E+000	4.00000E-001	9.91192E-004	5	..........a	-327.66
	331	66.4	4.09931E-001	8.72483E-008	0.00000E+000	4.10000E-001	9.97492E-004	5	..........a	-327.66
	332	66.6	4.19983E-001	8.90911E-008	0.00000E+000	4.20000E-001	1.00369E-003	5	..........a	-327.66
	333	66.8	4.29961E-001	9.09370E-008	0.00000E+000	4.30000E-001	1.00319E-003	5	..........a	-327.66
	334	67	4.39924E-001	9.28789E-008	0.00000E+000	4.40000E-001	1.01949E-003	5	..........a	-327.66
	335	67.2	4.49894E-001	9.49414E-008	0.00000E+000	4.50000E-001	1.00879E-003	5	..........a	-327.66
	336	67.4	4.59965E-001	9.70816E-008	0.00000E+000	4.60000E-001	9.92192E-004	5	..........a	-327.66
	337	67.6	4.69991E-001	9.94185E-008	0.00000E+000	4.70000E-001	1.00709E-003	5	..........a	-327.66
	338	67.8	4.79903E-001	1.01900E-007	0.00000E+000	4.80000E-001	9.93992E-004	5	..........a	-327.66
	339	68	4.89892E-001	1.04542E-007	0.00000E+000	4.90000E-001	1.00059E-003	5	..........a	-327.66
	340	68.2	5.00006E-001	1.07447E-007	0.00000E+000	5.00000E-001	9.97092E-004	5	..........a	-327.66
	341	68.4	5.09948E-001	1.10512E-007	0.00000E+000	5.10000E-001	1.02189E-003	5	..........a	-327.66
	342	68.6	5.19942E-001	1.13875E-007	0.00000E+000	5.20000E-001	1.01719E-003	5	..........a	-327.66
	343	68.8	5.29941E-001	1.17455E-007	0.00000E+000	5.30000E-001	1.01539E-003	5	..........a	-327.66
	344	69	5.39933E-001	1.21239E-007	0.00000E+000	5.40000E-001	1.00559E-003	5	..........a	-327.66
	345	69.2	5.49991E-001	1.25206E-007	0.00000E+000	5.50000E-001	1.01679E-003	5	..........a	-327.66
	346	69.4	5.59922E-001	1.29332E-007	0.00000E+000	5.60000E-001	1.00799E-003	5	..........a	-327.66
	347	69.6	5.69926E-001	1.33454E-007	0.00000E+000	5.70000E-001	1.01579E-003	5	..........a	-327.66
	348	69.8	5.79942E-001	1.37685E-007	0.00000E+000	5.80000E-001	1.00699E-003	5	..........a	-327.66
	349	70	5.89976E-001	1.41963E-007	0.00000E+000	5.90000E-001	1.01849E-003	5	..........a	-327.66
	350	70.2	5.99921E-001	1.45680E-007	0.00000E+000	6.00000E-001	1.00839E-003	5	..........a	-327.66
	351	70.4	6.09929E-001	1.50072E-007	0.00000E+000	6.10000E-001	1.01189E-003	5	..........a	-327.66
	352	70.6	6.19883E-001	1.54627E-007	0.00000E+000	6.20000E-001	1.00189E-003	5	..........a	-327.66
	353	70.8	6.29993E-001	1.59306E-007	0.00000E+000	6.30000E-001	9.99492E-004	5	..........a	-327.66
	354	71	6.39854E-001	1.63982E-007	0.00000E+000	6.40000E-001	1.00209E-003	5	..........a	-327.66
[...]
	922	184.6	7.19875E-001	1.90048E-007	0.00000E+000	7.20000E-001	1.00609E-003	5	..........a	-327.66
	923	184.8	7.29894E-001	1.95958E-007	0.00000E+000	7.30000E-001	1.02509E-003	5	..........a	-327.66
	924	185	7.39873E-001	2.02133E-007	0.00000E+000	7.40000E-001	1.00079E-003	5	..........a	-327.66
	925	185.2	7.49949E-001	2.08677E-007	0.00000E+000	7.50000E-001	1.02029E-003	5	..........a	-327.66
	926	185.4	7.59879E-001	2.15461E-007	0.00000E+000	7.60000E-001	1.01799E-003	5	..........a	-327.66
	927	185.6	7.69867E-001	2.22164E-007	0.00000E+000	7.70000E-001	1.00889E-003	5	..........a	-327.66
	928	185.8	7.79849E-001	2.29266E-007	0.00000E+000	7.80000E-001	1.00089E-003	5	..........a	-327.66
	929	186	7.89951E-001	2.36718E-007	0.00000E+000	7.90000E-001	1.01619E-003	5	..........a	-327.66
	930	186.2	7.99832E-001	2.44636E-007	0.00000E+000	8.00000E-001	1.01219E-003	5	..........a	-327.66
	931	186.4	7.89944E-001	2.02303E-007	0.00000E+000	7.90000E-001	1.01299E-003	5	..........a	-327.66
	932	186.6	7.79865E-001	1.74214E-007	0.00000E+000	7.80000E-001	1.00309E-003	5	..........a	-327.66
	933	186.8	7.69923E-001	1.53022E-007	0.00000E+000	7.70000E-001	1.01849E-003	5	..........a	-327.66
	934	187	7.59883E-001	1.36001E-007	0.00000E+000	7.60000E-001	1.01909E-003	5	..........a	-327.66
	935	187.2	7.49977E-001	1.21879E-007	0.00000E+000	7.50000E-001	1.01489E-003	5	..........a	-327.66
	936	187.4	7.39930E-001	1.09931E-007	0.00000E+000	7.40000E-001	1.00379E-003	5	..........a	-327.66
	937	187.6	7.29912E-001	9.95556E-008	0.00000E+000	7.30000E-001	1.02499E-003	5	..........a	-327.66
	938	187.8	7.19900E-001	9.04844E-008	0.00000E+000	7.20000E-001	1.03509E-003	5	..........a	-327.66
	939	188	7.09969E-001	8.24140E-008	0.00000E+000	7.10000E-001	1.02029E-003	5	..........a	-327.66
	940	188.2	6.99926E-001	7.51576E-008	0.00000E+000	7.00000E-001	9.97892E-004	5	..........a	-327.66
	941	188.4	6.89906E-001	6.86215E-008	0.00000E+000	6.90000E-001	1.02679E-003	5	..........a	-327.66
	942	188.6	6.79925E-001	6.27441E-008	0.00000E+000	6.80000E-001	1.00579E-003	5	..........a	-327.66
	943	188.8	6.69989E-001	5.73640E-008	0.00000E+000	6.70000E-001	1.01249E-003	5	..........a	-327.66
	944	189	6.59976E-001	5.24379E-008	0.00000E+000	6.60000E-001	9.90392E-004	5	..........a	-327.66
	945	189.2	6.49944E-001	4.78796E-008	0.00000E+000	6.50000E-001	1.00059E-003	5	..........a	-327.66
	946	189.4	6.39893E-001	4.36679E-008	0.00000E+000	6.40000E-001	1.01359E-003	5	..........a	-327.66
	947	189.6	6.30027E-001	3.97834E-008	0.00000E+000	6.30000E-001	1.00379E-003	5	..........a	-327.66
	948	189.8	6.19960E-001	3.61205E-008	0.00000E+000	6.20000E-001	9.99592E-004	5	..........a	-327.66
	949	190	6.09953E-001	3.27076E-008	0.00000E+000	6.10000E-001	1.01929E-003	5	..........a	-327.66
	950	190.2	5.99989E-001	2.94681E-008	0.00000E+000	6.00000E-001	1.01669E-003	5	..........a	-327.66
	951	190.4	5.90034E-001	2.63613E-008	0.00000E+000	5.90000E-001	9.96992E-004	5	..........a	-327.66
	952	190.6	5.80025E-001	2.34255E-008	0.00000E+000	5.80000E-001	1.00759E-003	5	..........a	-327.66
	953	190.8	5.69999E-001	2.05968E-008	0.00000E+000	5.70000E-001	1.00629E-003	5	..........a	-327.66
	954	191	5.59953E-001	1.78945E-008	0.00000E+000	5.60000E-001	1.03209E-003	5	..........a	-327.66
	955	191.2	5.50060E-001	1.52513E-008	0.00000E+000	5.50000E-001	1.03039E-003	5	..........a	-327.66
	956	191.4	5.40032E-001	1.26886E-008	0.00000E+000	5.40000E-001	1.00789E-003	5	..........a	-327.66
	957	191.6	5.29982E-001	1.01923E-008	0.00000E+000	5.30000E-001	1.01449E-003	5	..........a	-327.66
	958	191.8	5.19995E-001	7.70606E-009	0.00000E+000	5.20000E-001	1.02219E-003	5	..........a	-327.66
	959	192	5.09991E-001	5.32125E-009	0.00000E+000	5.10000E-001	9.94392E-004	5	..........a	-327.66
	960	192.2	5.00103E-001	3.00148E-009	0.00000E+000	5.00000E-001	1.00689E-003	5	..........a	-327.66
	961	192.4	4.89984E-001	7.31474E-010	0.00000E+000	4.90000E-001	1.01419E-003	5	..........a	-327.66
	962	192.6	4.79954E-001	-1.57825E-009	0.00000E+000	4.80000E-001	1.01029E-003	5	..........a	-327.66
	963	192.8	4.70074E-001	-3.73735E-009	0.00000E+000	4.70000E-001	1.01029E-003	5	..........a	-327.66
	964	193	4.60053E-001	-5.90697E-009	0.00000E+000	4.60000E-001	1.01379E-003	5	..........a	-327.66
	965	193.2	4.49991E-001	-7.93849E-009	0.00000E+000	4.50000E-001	1.00609E-003	5	..........a	-327.66
	966	193.4	4.40014E-001	-9.98421E-009	0.00000E+000	4.40000E-001	1.00859E-003	5	..........a	-327.66
	967	193.6	4.30008E-001	-1.20044E-008	0.00000E+000	4.30000E-001	1.01029E-003	5	..........a	-327.66
	968	193.8	4.20063E-001	-1.40141E-008	0.00000E+000	4.20000E-001	1.01699E-003	5	..........a	-327.66
	969	194	4.10028E-001	-1.59853E-008	0.00000E+000	4.10000E-001	1.00369E-003	5	..........a	-327.66
	970	194.2	4.00032E-001	-1.80001E-008	0.00000E+000	4.00000E-001	1.00969E-003	5	..........a	-327.66
	971	194.4	3.90089E-001	-1.99990E-008	0.00000E+000	3.90000E-001	1.00779E-003	5	..........a	-327.66
	972	194.6	3.80126E-001	-2.20894E-008	0.00000E+000	3.80000E-001	9.95792E-004	5	..........a	-327.66
	973	194.8	3.70086E-001	-2.41755E-008	0.00000E+000	3.70000E-001	9.90492E-004	5	..........a	-327.66
	974	195	3.60053E-001	-2.63618E-008	0.00000E+000	3.60000E-001	1.02879E-003	5	..........a	-327.66
	975	195.2	3.50044E-001	-2.86094E-008	0.00000E+000	3.50000E-001	1.01779E-003	5	..........a	-327.66
	976	195.4	3.40131E-001	-3.09187E-008	0.00000E+000	3.40000E-001	1.00399E-003	5	..........a	-327.66
	977	195.6	3.30063E-001	-3.32455E-008	0.00000E+000	3.30000E-001	1.00359E-003	5	..........a	-327.66
	978	195.8	3.20091E-001	-3.57801E-008	0.00000E+000	3.20000E-001	1.01179E-003	5	..........a	-327.66
	979	196	3.10052E-001	-3.83190E-008	0.00000E+000	3.10000E-001	1.02289E-003	5	..........a	-327.66
	980	196.2	3.00121E-001	-4.09533E-008	0.00000E+000	3.00000E-001	9.81692E-004	5	..........a	-327.66
	981	196.4	2.90086E-001	-4.36867E-008	0.00000E+000	2.90000E-001	1.02059E-003	5	..........a	-327.66
	982	196.6	2.80039E-001	-4.64044E-008	0.00000E+000	2.80000E-001	1.01029E-003	5	..........a	-327.66
	983	196.8	2.70090E-001	-4.91262E-008	0.00000E+000	2.70000E-001	1.00869E-003	5	..........a	-327.66
	984	197	2.60108E-001	-5.18099E-008	0.00000E+000	2.60000E-001	1.02239E-003	5	..........a	-327.66
	985	197.2	2.50056E-001	-5.44408E-008	0.00000E+000	2.50000E-001	1.00849E-003	5	..........a	-327.66
	986	197.4	2.40093E-001	-5.68833E-008	0.00000E+000	2.40000E-001	1.00539E-003	5	..........a	-327.66
	987	197.6	2.30018E-001	-5.91703E-008	0.00000E+000	2.30000E-001	1.02349E-003	5	..........a	-327.66
	988	197.8	2.20102E-001	-6.11181E-008	0.00000E+000	2.20000E-001	9.96492E-004	5	..........a	-327.66
	989	198	2.10058E-001	-6.27850E-008	0.00000E+000	2.10000E-001	1.02339E-003	5	..........a	-327.66
	990	198.2	2.00087E-001	-6.39691E-008	0.00000E+000	2.00000E-001	1.01599E-003	5	..........a	-327.66
	991	198.4	1.90145E-001	-6.47648E-008	0.00000E+000	1.90000E-001	1.00209E-003	5	..........a	-327.66
	992	198.6	1.80165E-001	-6.49919E-008	0.00000E+000	1.80000E-001	9.93792E-004	5	..........a	-327.66
	993	198.8	1.70119E-001	-6.48147E-008	0.00000E+000	1.70000E-001	9.94392E-004	5	..........a	-327.66
	994	199	1.60082E-001	-6.41670E-008	0.00000E+000	1.60000E-001	1.02169E-003	5	..........a	-327.66
	995	199.2	1.50097E-001	-6.29958E-008	0.00000E+000	1.50000E-001	1.03219E-003	5	..........a	-327.66
	996	199.4	1.40158E-001	-6.14001E-008	0.00000E+000	1.40000E-001	9.96492E-004	5	..........a	-327.66
	997	199.6	1.30099E-001	-5.93898E-008	0.00000E+000	1.30000E-001	1.01629E-003	5	..........a	-327.66
	998	199.8	1.20084E-001	-5.71744E-008	0.00000E+000	1.20000E-001	9.95492E-004	5	..........a	-327.66
	999	200	1.10127E-001	-5.49252E-008	0.00000E+000	1.10000E-001	1.02909E-003	5	..........a	-327.66
	1000	200.2	1.00161E-001	-5.27287E-008	0.00000E+000	1.00000E-001	1.00629E-003	5	..........a	-327.66
	1001	200.4	9.01206E-002	-5.07207E-008	0.00000E+000	9.00000E-002	9.89492E-004	5	..........a	-327.66
	1002	200.6	8.00636E-002	-4.89451E-008	0.00000E+000	8.00000E-002	1.02049E-003	5	..........a	-327.66
	1003	200.8	7.00373E-002	-4.74260E-008	0.00000E+000	7.00000E-002	1.02089E-003	5	..........a	-327.66
	1004	201	6.01427E-002	-4.61159E-008	0.00000E+000	6.00000E-002	9.96692E-004	5	..........a	-327.66
	1005	201.2	5.01029E-002	-4.50195E-008	0.00000E+000	5.00000E-002	1.01649E-003	5	..........a	-327.66
	1006	201.4	4.01012E-002	-4.40941E-008	0.00000E+000	4.00000E-002	9.96192E-004	5	..........a	-327.66
	1007	201.6	3.00900E-002	-4.33835E-008	0.00000E+000	3.00000E-002	1.01639E-003	5	..........a	-327.66
	1008	201.8	2.02004E-002	-4.31695E-008	0.00000E+000	2.00000E-002	1.01199E-003	5	..........a	-327.66
	1009	202	1.01349E-002	-4.31619E-008	0.00000E+000	1.00000E-002	9.92392E-004	5	..........a	-327.66
	1010	202.2	5.17417E-005	-4.23487E-008	0.00000E+000	7.45058E-009	1.02969E-003	5	..........a	-327.66
	1011	202.4	-9.87146E-003	-4.17524E-008	0.00000E+000	-1.00000E-002	1.00739E-003	5	..........a	-327.66
	1012	202.6	-1.98757E-002	-4.14778E-008	0.00000E+000	-2.00000E-002	1.01009E-003	5	..........a	-327.66
	1013	202.8	-2.99110E-002	-4.14632E-008	0.00000E+000	-3.00000E-002	1.01169E-003	5	..........a	-327.66
	1014	203	-3.98713E-002	-4.12035E-008	0.00000E+000	-4.00000E-002	1.00229E-003	5	..........a	-327.66
	1015	203.2	-4.98770E-002	-4.10984E-008	0.00000E+000	-5.00000E-002	9.89792E-004	5	..........a	-327.66
	1016	203.4	-5.98423E-002	-4.10563E-008	0.00000E+000	-6.00000E-002	1.00019E-003	5	..........a	-327.66
	1017	203.6	-6.98773E-002	-4.11704E-008	0.00000E+000	-7.00000E-002	1.01099E-003	5	..........a	-327.66
	1018	203.8	-7.99173E-002	-4.14734E-008	0.00000E+000	-8.00000E-002	1.00939E-003	5	..........a	-327.66
	1019	204	-8.98794E-002	-4.20761E-008	0.00000E+000	-9.00000E-002	1.01279E-003	5	..........a	-327.66
	1020	204.2	-9.98627E-002	-4.25720E-008	0.00000E+000	-1.00000E-001	1.00629E-003	5	..........a	-327.66
	1021	204.4	-1.09943E-001	-4.28856E-008	0.00000E+000	-1.10000E-001	9.94492E-004	5	..........a	-327.66
	1022	204.6	-1.19883E-001	-4.38179E-008	0.00000E+000	-1.20000E-001	1.01559E-003	5	..........a	-327.66
	1023	204.8	-1.29894E-001	-4.44148E-008	0.00000E+000	-1.30000E-001	1.01429E-003	5	..........a	-327.66
	1024	205	-1.39897E-001	-4.55444E-008	0.00000E+000	-1.40000E-001	9.90392E-004	5	..........a	-327.66
	1025	205.2	-1.49897E-001	-4.62816E-008	0.00000E+000	-1.50000E-001	1.00039E-003	5	..........a	-327.66
	1026	205.4	-1.59901E-001	-4.65618E-008	0.00000E+000	-1.60000E-001	1.02939E-003	5	..........a	-327.66
	1027	205.6	-1.69865E-001	-4.73737E-008	0.00000E+000	-1.70000E-001	1.00649E-003	5	..........a	-327.66
	1028	205.8	-1.79854E-001	-4.86099E-008	0.00000E+000	-1.80000E-001	1.00449E-003	5	..........a	-327.66
	1029	206	-1.90007E-001	-4.89257E-008	0.00000E+000	-1.90000E-001	1.00339E-003	5	..........a	-327.66
	1030	206.2	-1.99893E-001	-4.95205E-008	0.00000E+000	-2.00000E-001	1.00579E-003	5	..........a	-327.66
	1031	206.4	-2.09868E-001	-5.06234E-008	0.00000E+000	-2.10000E-001	1.00709E-003	5	..........a	-327.66
	1032	206.6	-2.19835E-001	-5.09225E-008	0.00000E+000	-2.20000E-001	9.87292E-004	5	..........a	-327.66
	1033	206.8	-2.29886E-001	-5.21755E-008	0.00000E+000	-2.30000E-001	9.92292E-004	5	..........a	-327.66
	1034	207	-2.39931E-001	-5.33493E-008	0.00000E+000	-2.40000E-001	9.85992E-004	5	..........a	-327.66
	1035	207.2	-2.49863E-001	-5.35708E-008	0.00000E+000	-2.50000E-001	9.91092E-004	5	..........a	-327.66
	1036	207.4	-2.59776E-001	-5.43934E-008	0.00000E+000	-2.60000E-001	9.93692E-004	5	..........a	-327.66
	1037	207.6	-2.69842E-001	-5.50939E-008	0.00000E+000	-2.70000E-001	9.96192E-004	5	..........a	-327.66
	1038	207.8	-2.79848E-001	-5.60069E-008	0.00000E+000	-2.80000E-001	1.01749E-003	5	..........a	-327.66
	1039	208	-2.89871E-001	-5.72629E-008	0.00000E+000	-2.90000E-001	1.02189E-003	5	..........a	-327.66
	1040	208.2	-2.99819E-001	-5.78063E-008	0.00000E+000	-3.00000E-001	9.97792E-004	5	..........a	-327.66
	1041	208.4	-3.09876E-001	-5.88163E-008	0.00000E+000	-3.10000E-001	1.02049E-003	5	..........a	-327.66
	1042	208.6	-3.19829E-001	-6.03108E-008	0.00000E+000	-3.20000E-001	1.00149E-003	5	..........a	-327.66
	1043	208.8	-3.29863E-001	-6.10208E-008	0.00000E+000	-3.30000E-001	1.01389E-003	5	..........a	-327.66
	1044	209	-3.39788E-001	-6.20402E-008	0.00000E+000	-3.40000E-001	1.00269E-003	5	..........a	-327.66
	1045	209.2	-3.49855E-001	-6.30910E-008	0.00000E+000	-3.50000E-001	9.99292E-004	5	..........a	-327.66
	1046	209.4	-3.59893E-001	-6.35081E-008	0.00000E+000	-3.60000E-001	1.02939E-003	5	..........a	-327.66
	1047	209.6	-3.69845E-001	-6.42883E-008	0.00000E+000	-3.70000E-001	1.02869E-003	5	..........a	-327.66
	1048	209.8	-3.79799E-001	-6.54694E-008	0.00000E+000	-3.80000E-001	1.01579E-003	5	..........a	-327.66
	1049	210	-3.89876E-001	-6.58853E-008	0.00000E+000	-3.90000E-001	1.00959E-003	5	..........a	-327.66
	1050	210.2	-3.99829E-001	-6.65197E-008	0.00000E+000	-4.00000E-001	9.99692E-004	5	..........a	-327.66
	1051	210.4	-4.09843E-001	-6.74229E-008	0.00000E+000	-4.10000E-001	1.02129E-003	5	..........a	-327.66
	1052	210.6	-4.19738E-001	-6.82482E-008	0.00000E+000	-4.20000E-001	1.01709E-003	5	..........a	-327.66
	1053	210.8	-4.29845E-001	-6.93551E-008	0.00000E+000	-4.30000E-001	1.00919E-003	5	..........a	-327.66
	1054	211	-4.39826E-001	-7.02011E-008	0.00000E+000	-4.40000E-001	1.02239E-003	5	..........a	-327.66
	1055	211.2	-4.49829E-001	-7.13691E-008	0.00000E+000	-4.50000E-001	1.00029E-003	5	..........a	-327.66
	1056	211.4	-4.59795E-001	-7.23261E-008	0.00000E+000	-4.60000E-001	9.94392E-004	5	..........a	-327.66
	1057	211.6	-4.69833E-001	-7.33314E-008	0.00000E+000	-4.70000E-001	9.90092E-004	5	..........a	-327.66
	1058	211.8	-4.79847E-001	-7.44030E-008	0.00000E+000	-4.80000E-001	9.96392E-004	5	..........a	-327.66
	1059	212	-4.89821E-001	-7.53795E-008	0.00000E+000	-4.90000E-001	1.01719E-003	5	..........a	-327.66
	1060	212.2	-4.99806E-001	-7.64235E-008	0.00000E+000	-5.00000E-001	9.97792E-004	5	..........a	-327.66
	1061	212.4	-5.09839E-001	-7.74717E-008	0.00000E+000	-5.10000E-001	1.00079E-003	5	..........a	-327.66
	1062	212.6	-5.19865E-001	-7.82517E-008	0.00000E+000	-5.20000E-001	1.00559E-003	5	..........a	-327.66
	1063	212.8	-5.29834E-001	-7.93160E-008	0.00000E+000	-5.30000E-001	1.00129E-003	5	..........a	-327.66
	1064	213	-5.39754E-001	-8.04274E-008	0.00000E+000	-5.40000E-001	1.00309E-003	5	..........a	-327.66
	1065	213.2	-5.49856E-001	-8.15860E-008	0.00000E+000	-5.50000E-001	1.02229E-003	5	..........a	-327.66
	1066	213.4	-5.59858E-001	-8.27798E-008	0.00000E+000	-5.60000E-001	1.00849E-003	5	..........a	-327.66
	1067	213.6	-5.69845E-001	-8.41684E-008	0.00000E+000	-5.70000E-001	1.01999E-003	5	..........a	-327.66
	1068	213.8	-5.79791E-001	-8.51317E-008	0.00000E+000	-5.80000E-001	1.00349E-003	5	..........a	-327.66
	1069	214	-5.89836E-001	-8.65104E-008	0.00000E+000	-5.90000E-001	1.00779E-003	5	..........a	-327.66
	1070	214.2	-5.99727E-001	-8.76377E-008	0.00000E+000	-6.00000E-001	1.01529E-003	5	..........a	-327.66
CURVE5	TABLE
	Pt	T	Vf	Im	Vu	Sig	Ach	IERange	Over	Temp
	#	s	V vs. Ref.	A	V	V	V	#	bits	deg C
	1071	214.4	-5.89853E-001	-7.33944E-008	0.00000E+000	-5.90000E-001	1.00219E-003	5	..........a	-327.66
	1072	214.6	-5.79793E-001	-6.41969E-008	0.00000E+000	-5.80000E-001	1.00429E-003	5	..........a	-327.66
	1073	214.8	-5.69863E-001	-5.69942E-008	0.00000E+000	-5.70000E-001	1.01169E-003	5	..........a	-327.66
	1074	215	-5.59837E-001	-5.11125E-008	0.00000E+000	-5.60000E-001	1.00949E-003	5	..........a	-327.66
	1075	215.2	-5.49856E-001	-4.60922E-008	0.00000E+000	-5.50000E-001	1.00549E-003	5	..........a	-327.66
	1076	215.4	-5.39805E-001	-4.17098E-008	0.00000E+000	-5.40000E-001	9.86392E-004	5	..........a	-327.66
	1077	215.6	-5.29847E-001	-3.78076E-008	0.00000E+000	-5.30000E-001	9.97092E-004	5	..........a	-327.66
	1078	215.8	-5.19852E-001	-3.42914E-008	0.00000E+000	-5.20000E-001	1.02169E-003	5	..........a	-327.66
	1079	216	-5.09845E-001	-3.11290E-008	0.00000E+000	-5.10000E-001	1.00919E-003	5	..........a	-327.66
	1080	216.2	-4.99818E-001	-2.82822E-008	0.00000E+000	-5.00000E-001	9.96692E-004	5	..........a	-327.66
	1081	216.4	-4.89846E-001	-2.56108E-008	0.00000E+000	-4.90000E-001	1.02309E-003	5	..........a	-327.66
	1082	216.6	-4.79894E-001	-2.31699E-008	0.00000E+000	-4.80000E-001	1.02819E-003	5	..........a	-327.66
	1083	216.8	-4.69845E-001	-2.08756E-008	0.00000E+000	-4.70000E-001	9.97992E-004	5	..........a	-327.66
	1084	217	-4.59810E-001	-1.87035E-008	0.00000E+000	-4.60000E-001	9.86492E-004	5	..........a	-327.66
	1085	217.2	-4.49837E-001	-1.66949E-008	0.00000E+000	-4.50000E-001	9.80692E-004	5	..........a	-327.66
	1086	217.4	-4.39830E-001	-1.48314E-008	0.00000E+000	-4.40000E-001	1.00189E-003	5	..........a	-327.66
	1087	217.6	-4.29865E-001	-1.30608E-008	0.00000E+000	-4.30000E-001	9.94092E-004	5	..........a	-327.66
	1088	217.8	-4.19798E-001	-1.13268E-008	0.00000E+000	-4.20000E-001	9.99592E-004	5	..........a	-327.66
	1089	218	-4.09847E-001	-9.72519E-009	0.00000E+000	-4.10000E-001	9.96992E-004	5	..........a	-327.66
	1090	218.2	-3.99834E-001	-8.15714E-009	0.00000E+000	-4.00000E-001	1.00309E-003	5	..........a	-327.66
	1091	218.4	-3.89914E-001	-6.74071E-009	0.00000E+000	-3.90000E-001	1.02529E-003	5	..........a	-327.66
	1092	218.6	-3.79834E-001	-5.34231E-009	0.00000E+000	-3.80000E-001	9.89792E-004	5	..........a	-327.66
	1093	218.8	-3.69835E-001	-3.97633E-009	0.00000E+000	-3.70000E-001	1.01049E-003	5	..........a	-327.66
	1094	219	-3.59871E-001	-2.74134E-009	0.00000E+000	-3.60000E-001	1.01579E-003	5	..........a	-327.66
	1095	219.2	-3.49906E-001	-1.49714E-009	0.00000E+000	-3.50000E-001	9.97792E-004	5	..........a	-327.66
	1096	219.4	-3.39792E-001	-3.24656E-010	0.00000E+000	-3.40000E-001	9.82192E-004	5	..........a	-327.66
	1097	219.6	-3.29923E-001	8.49918E-010	0.00000E+000	-3.30000E-001	1.01739E-003	5	..........a	-327.66
	1098	219.8	-3.19861E-001	1.99833E-009	0.00000E+000	-3.20000E-001	1.01489E-003	5	..........a	-327.66
	1099	220	-3.09944E-001	3.07382E-009	0.00000E+000	-3.10000E-001	1.01309E-003	5	..........a	-327.66
	1100	220.2	-2.99860E-001	4.10034E-009	0.00000E+000	-3.00000E-001	1.00719E-003	5	..........a	-327.66
	1101	220.4	-2.89925E-001	5.16153E-009	0.00000E+000	-2.90000E-001	1.01059E-003	5	..........a	-327.66
	1102	220.6	-2.79928E-001	6.16464E-009	0.00000E+000	-2.80000E-001	1.00819E-003	5	..........a	-327.66
	1103	220.8	-2.69862E-001	7.15733E-009	0.00000E+000	-2.70000E-001	9.97092E-004	5	..........a	-327.66
	1104	221	-2.59824E-001	8.06778E-009	0.00000E+000	-2.60000E-001	1.00919E-003	5	..........a	-327.66
	1105	221.2	-2.49899E-001	9.05042E-009	0.00000E+000	-2.50000E-001	9.99692E-004	5	..........a	-327.66
	1106	221.4	-2.39920E-001	9.98630E-009	0.00000E+000	-2.40000E-001	1.00789E-003	5	..........a	-327.66
	1107	221.6	-2.29921E-001	1.09058E-008	0.00000E+000	-2.30000E-001	1.01769E-003	5	..........a	-327.66
	1108	221.8	-2.19866E-001	1.18397E-008	0.00000E+000	-2.20000E-001	9.89492E-004	5	..........a	-327.66
	1109	222	-2.09933E-001	1.27182E-008	0.00000E+000	-2.10000E-001	9.90292E-004	5	..........a	-327.66
	1110	222.2	-1.99966E-001	1.36569E-008	0.00000E+000	-2.00000E-001	1.02189E-003	5	..........a	-327.66
	1111	222.4	-1.89902E-001	1.45465E-008	0.00000E+000	-1.90000E-001	1.01659E-003	5	..........a	-327.66
	1112	222.6	-1.79910E-001	1.54474E-008	0.00000E+000	-1.80000E-001	1.01269E-003	5	..........a	-327.66
	1113	222.8	-1.69892E-001	1.63510E-008	0.00000E+000	-1.70000E-001	1.00629E-003	5	..........a	-327.66
	1114	223	-1.59979E-001	1.72621E-008	0.00000E+000	-1.60000E-001	1.02289E-003	5	..........a	-327.66
	1115	223.2	-1.49986E-001	1.81307E-008	0.00000E+000	-1.50000E-001	1.03389E-003	5	..........a	-327.66
	1116	223.4	-1.39907E-001	1.90315E-008	0.00000E+000	-1.40000E-001	1.01119E-003	5	..........a	-327.66
	1117	223.6	-1.29925E-001	1.99121E-008	0.00000E+000	-1.30000E-001	1.01309E-003	5	..........a	-327.66
	1118	223.8	-1.19940E-001	2.07982E-008	0.00000E+000	-1.20000E-001	1.00999E-003	5	..........a	-327.66
	1119	224	-1.09972E-001	2.17354E-008	0.00000E+000	-1.10000E-001	1.00939E-003	5	..........a	-327.66
	1120	224.2	-9.98863E-002	2.26688E-008	0.00000E+000	-1.00000E-001	9.97692E-004	5	..........a	-327.66