File: example_project/raw_outputs/20240321_P_GM0016_HL03_E04_CV50k.DTA
EXPLAIN
TAG	CV
TITLE	LABEL	Cyclic Voltammetry	Test &Identifier
DATE	LABEL	3/21/2024	Date
TIME	LABEL	17:16:28	Time
NOTES	NOTES	1	&Notes...

PSTAT	PSTAT	REF600P-43058	Potentiostat
VINIT	POTEN	0.00000E+000	T	Initial &E (V)
VLIMIT1	POTEN	-6.00000E-001	F	Scan Limit &1 (V)
VLIMIT2	POTEN	8.00000E-001	F	Scan Limit &2 (V)
VFINAL	POTEN	0.00000E+000	T	Final &E (V)
SCANRATE	QUANT	4.99999E+004	&Scan Rate (mV/s)
STEPSIZE	QUANT	1.00000E+001	St&ep Size (mV)
CYCLES	IQUANT	10	C&ycles (#)
IMODE	SELECTOR	1	I/E Range &Mode
IRANGE	QUANT	1.00000E-005	&Max Current (mA)
AREA	QUANT	1.00000E+000	Electrode &Area (cm^2)
ELECTRODETYPE	SELECTOR	0	Electrode Type
STRIPPING	TOGGLE	F	Used for Stripping
POLARITY	TOGGLE	F	Signal Polarity
CONDIT	TWOPARAM	F	1.50000E+001	0.00000E+000	Conditionin&g	Time(s)	E(V)
DELAY	TWOPARAM	T	1.00000E+001	0.00000E+000	Init. De&lay	Time(s)	Stab.(mV/s)
EQDELAY	QUANT	1.00000E+001	Equil. &Time (s)
IRCOMP	SELECTOR	0	IRCom&p
PFCOR	QUANT	5.00000E+001	PF Corr. (ohm)
SAMPLINGMODE	SELECTOR	1	Sampling &Mode
OCVCURVE	TABLE	39
	Pt	T	Vf	Vm	Ach	Over	Temp
	#	s	V vs. Ref.	V	V	bits	deg C
	0	0.258333	5.40427E-001	5.40427E-001	2.51622E-004	..........a	-327.66
	1	0.516667	5.40429E-001	5.40568E-001	2.52156E-004	..........a	-327.66
	2	0.775	5.40446E-001	5.40701E-001	2.57356E-004	..........a	-327.66
	3	1.03333	5.40493E-001	5.40856E-001	2.52489E-004	..........a	-327.66
	4	1.29167	5.40580E-001	5.40993E-001	2.48622E-004	..........a	-327.66
	5	1.55	5.40698E-001	5.41093E-001	2.46022E-004	..........a	-327.66
	6	1.80833	5.40831E-001	5.41249E-001	2.47089E-004	..........a	-327.66
	7	2.06667	5.40968E-001	5.41474E-001	2.41756E-004	..........a	-327.66
	8	2.325	5.41111E-001	5.41611E-001	2.54022E-004	..........a	-327.66
	9	2.58333	5.41264E-001	5.41645E-001	2.56956E-004	..........a	-327.66
	10	2.84167	5.41415E-001	5.41740E-001	2.50022E-004	..........a	-327.66
	11	3.1	5.41545E-001	5.41853E-001	2.36822E-004	..........a	-327.66
	12	3.35833	5.41653E-001	5.41986E-001	2.44222E-004	..........a	-327.66
	13	3.61667	5.41754E-001	5.42119E-001	2.49289E-004	..........a	-327.66
	14	3.875	5.41861E-001	5.42251E-001	2.38822E-004	..........a	-327.66
	15	4.13333	5.41980E-001	5.42376E-001	2.56222E-004	..........a	-327.66
	16	4.39167	5.42107E-001	5.42521E-001	2.49889E-004	..........a	-327.66
	17	4.65	5.42238E-001	5.42638E-001	2.49756E-004	..........a	-327.66
	18	4.90833	5.42370E-001	5.42755E-001	2.42756E-004	..........a	-327.66
	19	5.16667	5.42500E-001	5.42918E-001	2.39956E-004	..........a	-327.66
	20	5.425	5.42631E-001	5.43090E-001	2.31556E-004	..........a	-327.66
	21	5.68333	5.42767E-001	5.43207E-001	2.61889E-004	..........a	-327.66
	22	5.94167	5.42910E-001	5.43312E-001	2.52756E-004	..........a	-327.66
	23	6.2	5.43051E-001	5.43411E-001	2.44356E-004	..........a	-327.66
	24	6.45833	5.43181E-001	5.43506E-001	2.42422E-004	..........a	-327.66
	25	6.71667	5.43297E-001	5.43635E-001	2.49422E-004	..........a	-327.66
	26	6.975	5.43406E-001	5.43761E-001	2.47156E-004	..........a	-327.66
	27	7.23333	5.43515E-001	5.43883E-001	2.46289E-004	..........a	-327.66
	28	7.49167	5.43630E-001	5.44029E-001	2.57689E-004	..........a	-327.66
	29	7.75	5.43753E-001	5.44163E-001	2.43889E-004	..........a	-327.66
	30	8.00833	5.43881E-001	5.44262E-001	2.40822E-004	..........a	-327.66
	31	8.26667	5.44011E-001	5.44391E-001	2.50889E-004	..........a	-327.66
	32	8.525	5.44139E-001	5.44559E-001	2.37422E-004	..........a	-327.66
	33	8.78333	5.44267E-001	5.44720E-001	2.49956E-004	..........a	-327.66
	34	9.04167	5.44402E-001	5.44824E-001	2.49422E-004	..........a	-327.66
	35	9.3	5.44542E-001	5.44889E-001	2.51822E-004	..........a	-327.66
	36	9.5583	5.44675E-001	5.45000E-001	2.48622E-004	..........a	-327.66
	37	9.8167	5.44793E-001	5.45111E-001	2.43356E-004	..........a	-327.66
	38	10.075	5.44898E-001	5.45238E-001	2.42622E-004	..........a	-327.66
EOC	QUANT	0.5448983	Open Circuit (V)
PSTATMODEL	IQUANT	7	Pstat Model
PSTATSECTION	LABEL	REF600P-43058	Pstat Section
PSTATSERIALNO	LABEL	43058	Pstat Serial Number
CTRLMODE	IQUANT	1	Control Mode
ELECTROMETER	IQUANT	0	RE=0 or CS=1
IESTAB	IQUANT	2	I/E Stability
CASPEED	IQUANT	4	Control Amp Speed
CONVENTION	IQUANT	1	Current Convention
ICHRANGE	IQUANT	2	Ich Range
ICHRANGEMODE	TOGGLE	F	Ich Auto Range
ICHOFFSETENABLE	TOGGLE	F	Ich Offset Enable
ICHOFFSET	QUANT	0	Ich Offset (V)
ICHFILTER	IQUANT	1	Ich Filter
VCHRANGE	IQUANT	2	Vch Range
VCHRANGEMODE	TOGGLE	F	Vch Auto Range
VCHOFFSETENABLE	TOGGLE	F	Vch Offset Enable
VCHOFFSET	QUANT	0	Vch Offset (V)
VCHFILTER	IQUANT	1	Vch Filter
ACHRANGE	IQUANT	2	Ach Range
ACHOFFSETENABLE	TOGGLE	F	Ach Offset Enable
ACHOFFSET	QUANT	0	Ach Offset (V)
ACHFILTER	IQUANT	1	Ach Filter
IERANGELOWERLIMIT	IQUANT	1	I/E Range Lower Limit
IERANGEMODE	TOGGLE	F	I/E AutoRange
IERANGE	IQUANT	4	I/E Range
POSFEEDENABLE	TOGGLE	F	Positive Feedback IR Comp
POSFEEDRESISTANCE	QUANT	0	Positive Feedback Resistance (ohm)
ACHSELECT	IQUANT	4	Ach Select
SENSECABLEID	IQUANT	7	Sense Cable ID
PWRCABLEID	IQUANT	7	Power Cable ID
DCCALDATE	LABEL	12/18/2023	DC Calibration Date
ACCALDATE	LABEL	12/18/2023	AC Calibration Date
THERMOSELECT	IQUANT	1	Thermo Select
FRAMEWORKVERSION	LABEL	7.8.4	Framework Version
INSTRUMENTVERSION	LABEL	4.42	Instrument Version
CURVE1	TABLE
	Pt	T	Vf	Im	Vu	Sig	Ach	IERange	Over	Temp
	#	s	V vs. Ref.	A	V	V	V	#	bits	deg C
	0	0.0002	5.44869E-001	1.67883E-011	0.00000E+000	5.44900E-001	8.00223E-005	4	..........a	-327.66
	1	0.0004	5.34869E-001	-2.22132E-011	0.00000E+000	5.34900E-001	8.00223E-005	4	..........a	-327.66
	2	0.0006	5.24669E-001	-5.82146E-011	0.00000E+000	5.24900E-001	8.00223E-005	4	..........a	-327.66
	3	0.0008	5.14870E-001	-1.06216E-010	0.00000E+000	5.14900E-001	8.00223E-005	4	..........a	-327.66
	4	0.001	5.05069E-001	-1.53218E-010	0.00000E+000	5.04900E-001	8.00223E-005	4	..........a	-327.66
	5	0.0012	4.94770E-001	-1.97220E-010	0.00000E+000	4.94900E-001	8.00223E-005	4	..........a	-327.66
	6	0.0014	4.84870E-001	-2.47222E-010	0.00000E+000	4.84900E-001	8.00223E-005	4	..........a	-327.66
	7	0.0016	4.74870E-001	-2.95224E-010	0.00000E+000	4.74900E-001	8.00223E-005	4	..........a	-327.66
	8	0.0018	4.64870E-001	-3.54226E-010	0.00000E+000	4.64900E-001	8.00223E-005	4	..........a	-327.66
	9	0.002	4.54920E-001	-4.07228E-010	0.00000E+000	4.54900E-001	8.00223E-005	4	..........a	-327.66
	10	0.0022	4.44870E-001	-4.66230E-010	0.00000E+000	4.44900E-001	8.00223E-005	4	..........a	-327.66
	11	0.0024	4.34870E-001	-5.27233E-010	0.00000E+000	4.34900E-001	8.00223E-005	4	..........a	-327.66
	12	0.0026	4.25070E-001	-5.86235E-010	0.00000E+000	4.24900E-001	8.00223E-005	4	..........a	-327.66
	13	0.0028	4.14870E-001	-6.51237E-010	0.00000E+000	4.14900E-001	-1.19978E-004	4	..........a	-327.66
	14	0.003	4.04670E-001	-7.18240E-010	0.00000E+000	4.04900E-001	8.00223E-005	4	..........a	-327.66
	15	0.0032	3.94870E-001	-7.94243E-010	0.00000E+000	3.94900E-001	8.00223E-005	4	..........a	-327.66
	16	0.0034	3.84770E-001	-8.61245E-010	0.00000E+000	3.84900E-001	8.00223E-005	4	..........a	-327.66
	17	0.0036	3.74870E-001	-9.42249E-010	0.00000E+000	3.74900E-001	8.00223E-005	4	..........a	-327.66
	18	0.0038	3.64770E-001	-1.02225E-009	0.00000E+000	3.64900E-001	8.00223E-005	4	..........a	-327.66
	19	0.004	3.54870E-001	-1.10625E-009	0.00000E+000	3.54900E-001	8.00223E-005	4	..........a	-327.66
	20	0.0042	3.44970E-001	-1.19526E-009	0.00000E+000	3.44900E-001	8.00223E-005	4	..........a	-327.66
	21	0.0044	3.34970E-001	-1.28726E-009	0.00000E+000	3.34900E-001	8.00223E-005	4	..........a	-327.66
	22	0.0046	3.24870E-001	-1.38427E-009	0.00000E+000	3.24900E-001	8.00223E-005	4	..........a	-327.66
	23	0.0048	3.14970E-001	-1.48827E-009	0.00000E+000	3.14900E-001	8.00223E-005	4	..........a	-327.66
	24	0.005	3.04970E-001	-1.59727E-009	0.00000E+000	3.04900E-001	8.00223E-005	4	..........a	-327.66
	25	0.0052	2.94870E-001	-1.71028E-009	0.00000E+000	2.94900E-001	8.00223E-005	4	..........a	-327.66
	26	0.0054	2.84870E-001	-1.83128E-009	0.00000E+000	2.84900E-001	8.00223E-005	4	..........a	-327.66
	27	0.0056	2.74870E-001	-1.96229E-009	0.00000E+000	2.74900E-001	8.00223E-005	4	..........a	-327.66
	28	0.0058	2.64870E-001	-2.09629E-009	0.00000E+000	2.64900E-001	8.00223E-005	4	..........a	-327.66
	29	0.006	2.54970E-001	-2.23330E-009	0.00000E+000	2.54900E-001	8.00223E-005	4	..........a	-327.66
	30	0.0062	2.44870E-001	-2.38630E-009	0.00000E+000	2.44900E-001	8.00223E-005	4	..........a	-327.66
	31	0.0064	2.34970E-001	-2.54331E-009	0.00000E+000	2.34900E-001	8.00223E-005	4	..........a	-327.66
	32	0.0066	2.25070E-001	-2.70832E-009	0.00000E+000	2.24900E-001	8.00223E-005	4	..........a	-327.66
	33	0.0068	2.14870E-001	-2.88032E-009	0.00000E+000	2.14900E-001	8.00223E-005	4	..........a	-327.66
	34	0.007	2.04970E-001	-3.06933E-009	0.00000E+000	2.04900E-001	-3.19978E-004	4	..........a	-327.66
	35	0.0072	1.94970E-001	-3.25934E-009	0.00000E+000	1.94900E-001	8.00223E-005	4	..........a	-327.66
	36	0.0074	1.84970E-001	-3.46235E-009	0.00000E+000	1.84900E-001	8.00223E-005	4	..........a	-327.66
	37	0.0076	1.74970E-001	-3.66835E-009	0.00000E+000	1.74900E-001	8.00223E-005	4	..........a	-327.66
	38	0.0078	1.64970E-001	-3.89136E-009	0.00000E+000	1.64900E-001	8.00223E-005	4	..........a	-327.66
	39	0.008	1.54970E-001	-4.12137E-009	0.00000E+000	1.54900E-001	8.00223E-005	4	..........a	-327.66
	40	0.0082	1.45070E-001	-4.36238E-009	0.00000E+000	1.44900E-001	8.00223E-005	4	..........a	-327.66
	41	0.0084	1.34970E-001	-4.60439E-009	0.00000E+000	1.34900E-001	8.00223E-005	4	..........a	-327.66
	42	0.0086	1.24970E-001	-4.85640E-009	0.00000E+000	1.24900E-001	8.00223E-005	4	..........a	-327.66
	43	0.0088	1.14870E-001	-5.11841E-009	0.00000E+000	1.14900E-001	8.00223E-005	4	..........a	-327.66
	44	0.009	1.04970E-001	-5.39742E-009	0.00000E+000	1.04900E-001	8.00223E-005	4	..........a	-327.66
	45	0.0092	9.49695E-002	-5.67443E-009	0.00000E+000	9.49000E-002	-4.19978E-004	4	..........a	-327.66
	46	0.0094	8.48695E-002	-5.95744E-009	0.00000E+000	8.49000E-002	8.00223E-005	4	..........a	-327.66
	47	0.0096	7.48695E-002	-6.25545E-009	0.00000E+000	7.49000E-002	8.00223E-005	4	..........a	-327.66
	48	0.0098	6.50695E-002	-6.55446E-009	0.00000E+000	6.49000E-002	8.00223E-005	4	..........a	-327.66
	49	0.01	5.49195E-002	-6.86348E-009	0.00000E+000	5.49000E-002	8.00223E-005	4	..........a	-327.66
	50	0.0102	4.50195E-002	-7.18049E-009	0.00000E+000	4.49000E-002	8.00223E-005	4	..........a	-327.66
	51	0.0104	3.48695E-002	-7.50350E-009	0.00000E+000	3.49000E-002	8.00223E-005	4	..........a	-327.66
	52	0.0106	2.50195E-002	-7.83151E-009	0.00000E+000	2.49000E-002	8.00223E-005	4	..........a	-327.66
	53	0.0108	1.44695E-002	-8.16453E-009	0.00000E+000	1.49000E-002	8.00223E-005	4	..........a	-327.66
	54	0.011	4.96952E-003	-8.50254E-009	0.00000E+000	4.90000E-003	8.00223E-005	4	..........a	-327.66
	55	0.0112	-5.13048E-003	-8.83555E-009	0.00000E+000	-5.10000E-003	8.00223E-005	4	..........a	-327.66
	56	0.0114	-1.50305E-002	-9.17056E-009	0.00000E+000	-1.51000E-002	8.00223E-005	4	..........a	-327.66
	57	0.0116	-2.51305E-002	-9.50258E-009	0.00000E+000	-2.51000E-002	8.00223E-005	4	..........a	-327.66
	58	0.0118	-3.49305E-002	-9.83059E-009	0.00000E+000	-3.51000E-002	8.00223E-005	4	..........a	-327.66
	59	0.012	-4.51305E-002	-1.01606E-008	0.00000E+000	-4.51000E-002	8.00223E-005	4	..........a	-327.66
	60	0.0122	-5.49305E-002	-1.04796E-008	0.00000E+000	-5.51000E-002	-3.19978E-004	4	..........a	-327.66
	61	0.0124	-6.51305E-002	-1.08026E-008	0.00000E+000	-6.51000E-002	8.00223E-005	4	..........a	-327.66
	62	0.0126	-7.50305E-002	-1.11136E-008	0.00000E+000	-7.51000E-002	8.00223E-005	4	..........a	-327.66
	63	0.0128	-8.50305E-002	-1.14247E-008	0.00000E+000	-8.51000E-002	8.00223E-005	4	..........a	-327.66
	64	0.013	-9.49305E-002	-1.17307E-008	0.00000E+000	-9.51000E-002	8.00223E-005	4	..........a	-327.66
	65	0.0132	-1.04830E-001	-1.20337E-008	0.00000E+000	-1.05100E-001	8.00223E-005	4	..........a	-327.66
	66	0.0134	-1.15030E-001	-1.23387E-008	0.00000E+000	-1.15100E-001	8.00223E-005	4	..........a	-327.66
	67	0.0136	-1.24930E-001	-1.26387E-008	0.00000E+000	-1.25100E-001	8.00223E-005	4	..........a	-327.66
	68	0.0138	-1.34930E-001	-1.29357E-008	0.00000E+000	-1.35100E-001	8.00223E-005	4	..........a	-327.66
	69	0.014	-1.45130E-001	-1.32337E-008	0.00000E+000	-1.45100E-001	8.00223E-005	4	..........a	-327.66
	70	0.0142	-1.54930E-001	-1.35247E-008	0.00000E+000	-1.55100E-001	8.00223E-005	4	..........a	-327.66
	71	0.0144	-1.64830E-001	-1.38227E-008	0.00000E+000	-1.65100E-001	8.00223E-005	4	..........a	-327.66
	72	0.0146	-1.74930E-001	-1.41088E-008	0.00000E+000	-1.75100E-001	-2.19978E-004	4	..........a	-327.66
	73	0.0148	-1.84930E-001	-1.43948E-008	0.00000E+000	-1.85100E-001	8.00223E-005	4	..........a	-327.66
	74	0.015	-1.94930E-001	-1.46788E-008	0.00000E+000	-1.95100E-001	8.00223E-005	4	..........a	-327.66
	75	0.0152	-2.04930E-001	-1.49588E-008	0.00000E+000	-2.05100E-001	8.00223E-005	4	..........a	-327.66
	76	0.0154	-2.14930E-001	-1.52408E-008	0.00000E+000	-2.15100E-001	8.00223E-005	4	..........a	-327.66
	77	0.0156	-2.25030E-001	-1.55098E-008	0.00000E+000	-2.25100E-001	8.00223E-005	4	..........a	-327.66
	78	0.0158	-2.34830E-001	-1.57848E-008	0.00000E+000	-2.35100E-001	-3.19978E-004	4	..........a	-327.66
	79	0.016	-2.45030E-001	-1.60448E-008	0.00000E+000	-2.45100E-001	8.00223E-005	4	..........a	-327.66
	80	0.0162	-2.54930E-001	-1.63068E-008	0.00000E+000	-2.55100E-001	8.00223E-005	4	..........a	-327.66
	81	0.0164	-2.64730E-001	-1.65588E-008	0.00000E+000	-2.65100E-001	8.00223E-005	4	..........a	-327.66
	82	0.0166	-2.75030E-001	-1.68149E-008	0.00000E+000	-2.75100E-001	8.00223E-005	4	..........a	-327.66
	83	0.0168	-2.85030E-001	-1.70549E-008	0.00000E+000	-2.85100E-001	8.00223E-005	4	..........a	-327.66
	84	0.017	-2.94830E-001	-1.73049E-008	0.00000E+000	-2.95100E-001	8.00223E-005	4	..........a	-327.66
	85	0.0172	-3.05030E-001	-1.75419E-008	0.00000E+000	-3.05100E-001	8.00223E-005	4	..........a	-327.66
	86	0.0174	-3.15030E-001	-1.77749E-008	0.00000E+000	-3.15100E-001	8.00223E-005	4	..........a	-327.66
	87	0.0176	-3.24830E-001	-1.80089E-008	0.00000E+000	-3.25100E-001	8.00223E-005	4	..........a	-327.66
	88	0.0178	-3.34930E-001	-1.82389E-008	0.00000E+000	-3.35100E-001	8.00223E-005	4	..........a	-327.66
	89	0.018	-3.44930E-001	-1.84649E-008	0.00000E+000	-3.45100E-001	8.00223E-005	4	..........a	-327.66
	90	0.0182	-3.55130E-001	-1.86869E-008	0.00000E+000	-3.55100E-001	-3.19978E-004	4	..........a	-327.66
	91	0.0184	-3.64930E-001	-1.89109E-008	0.00000E+000	-3.65100E-001	-2.19978E-004	4	..........a	-327.66
	92	0.0186	-3.74930E-001	-1.91309E-008	0.00000E+000	-3.75100E-001	1.80022E-004	4	..........a	-327.66
	93	0.0188	-3.85030E-001	-1.93460E-008	0.00000E+000	-3.85100E-001	8.00223E-005	4	..........a	-327.66
	94	0.019	-3.94830E-001	-1.95650E-008	0.00000E+000	-3.95100E-001	8.00223E-005	4	..........a	-327.66
	95	0.0192	-4.04830E-001	-1.97800E-008	0.00000E+000	-4.05100E-001	-2.19978E-004	4	..........a	-327.66
	96	0.0194	-4.14930E-001	-1.99930E-008	0.00000E+000	-4.15100E-001	8.00223E-005	4	..........a	-327.66
	97	0.0196	-4.24930E-001	-2.02040E-008	0.00000E+000	-4.25100E-001	8.00223E-005	4	..........a	-327.66
	98	0.0198	-4.35030E-001	-2.04150E-008	0.00000E+000	-4.35100E-001	8.00223E-005	4	..........a	-327.66
	99	0.02	-4.45030E-001	-2.06260E-008	0.00000E+000	-4.45100E-001	8.00223E-005	4	..........a	-327.66
	100	0.0202	-4.54930E-001	-2.08410E-008	0.00000E+000	-4.55100E-001	8.00223E-005	4	..........a	-327.66
	101	0.0204	-4.64830E-001	-2.10510E-008	0.00000E+000	-4.65100E-001	8.00223E-005	4	..........a	-327.66
	102	0.0206	-4.75030E-001	-2.12630E-008	0.00000E+000	-4.75100E-001	8.00223E-005	4	..........a	-327.66
	103	0.0208	-4.84830E-001	-2.14750E-008	0.00000E+000	-4.85100E-001	8.00223E-005	4	..........a	-327.66
	104	0.021	-4.94830E-001	-2.16870E-008	0.00000E+000	-4.95100E-001	8.00223E-005	4	..........a	-327.66
	105	0.0212	-5.04730E-001	-2.18991E-008	0.00000E+000	-5.05100E-001	8.00223E-005	4	..........a	-327.66
	106	0.0214	-5.14830E-001	-2.21121E-008	0.00000E+000	-5.15100E-001	8.00223E-005	4	..........a	-327.66
	107	0.0216	-5.24930E-001	-2.23291E-008	0.00000E+000	-5.25100E-001	8.00223E-005	4	..........a	-327.66
	108	0.0218	-5.34831E-001	-2.25461E-008	0.00000E+000	-5.35100E-001	8.00223E-005	4	..........a	-327.66
	109	0.022	-5.44630E-001	-2.27661E-008	0.00000E+000	-5.45100E-001	8.00223E-005	4	..........a	-327.66
	110	0.0222	-5.54931E-001	-2.29891E-008	0.00000E+000	-5.55100E-001	8.00223E-005	4	..........a	-327.66
	111	0.0224	-5.65031E-001	-2.32171E-008	0.00000E+000	-5.65100E-001	8.00223E-005	4	..........a	-327.66
	112	0.0226	-5.74930E-001	-2.34461E-008	0.00000E+000	-5.75100E-001	8.00223E-005	4	..........a	-327.66
	113	0.0228	-5.84830E-001	-2.36781E-008	0.00000E+000	-5.85100E-001	8.00223E-005	4	..........a	-327.66
	114	0.023	-5.94831E-001	-2.39151E-008	0.00000E+000	-5.95100E-001	8.00223E-005	4	..........a	-327.66
	115	0.0232	-5.84731E-001	-2.39871E-008	0.00000E+000	-5.85100E-001	8.00223E-005	4	..........a	-327.66
	116	0.0234	-5.74830E-001	-2.40181E-008	0.00000E+000	-5.75100E-001	8.00223E-005	4	..........a	-327.66
	117	0.0236	-5.65130E-001	-2.40271E-008	0.00000E+000	-5.65100E-001	8.00223E-005	4	..........a	-327.66
	118	0.0238	-5.54830E-001	-2.40201E-008	0.00000E+000	-5.55100E-001	8.00223E-005	4	..........a	-327.66
	119	0.024	-5.44831E-001	-2.39911E-008	0.00000E+000	-5.45100E-001	8.00223E-005	4	..........a	-327.66
	120	0.0242	-5.34880E-001	-2.39561E-008	0.00000E+000	-5.35100E-001	8.00223E-005	4	..........a	-327.66
	121	0.0244	-5.24781E-001	-2.39041E-008	0.00000E+000	-5.25100E-001	8.00223E-005	4	..........a	-327.66
	122	0.0246	-5.15031E-001	-2.38481E-008	0.00000E+000	-5.15100E-001	8.00223E-005	4	..........a	-327.66
	123	0.0248	-5.04930E-001	-2.37921E-008	0.00000E+000	-5.05100E-001	8.00223E-005	4	..........a	-327.66
	124	0.025	-4.94830E-001	-2.37231E-008	0.00000E+000	-4.95100E-001	8.00223E-005	4	..........a	-327.66
	125	0.0252	-4.84930E-001	-2.36521E-008	0.00000E+000	-4.85100E-001	8.00223E-005	4	..........a	-327.66
	126	0.0254	-4.74930E-001	-2.35751E-008	0.00000E+000	-4.75100E-001	8.00223E-005	4	..........a	-327.66
	127	0.0256	-4.64630E-001	-2.34891E-008	0.00000E+000	-4.65100E-001	8.00223E-005	4	..........a	-327.66
	128	0.0258	-4.54930E-001	-2.34041E-008	0.00000E+000	-4.55100E-001	8.00223E-005	4	..........a	-327.66
	129	0.026	-4.44730E-001	-2.33171E-008	0.00000E+000	-4.45100E-001	8.00223E-005	4	..........a	-327.66
	130	0.0262	-4.34930E-001	-2.32211E-008	0.00000E+000	-4.35100E-001	8.00223E-005	4	..........a	-327.66
	131	0.0264	-4.24930E-001	-2.31291E-008	0.00000E+000	-4.25100E-001	8.00223E-005	4	..........a	-327.66
	132	0.0266	-4.14830E-001	-2.30311E-008	0.00000E+000	-4.15100E-001	-3.19978E-004	4	..........a	-327.66
	133	0.0268	-4.04830E-001	-2.29341E-008	0.00000E+000	-4.05100E-001	8.00223E-005	4	..........a	-327.66
	134	0.027	-3.94930E-001	-2.28361E-008	0.00000E+000	-3.95100E-001	8.00223E-005	4	..........a	-327.66
	135	0.0272	-3.85130E-001	-2.27341E-008	0.00000E+000	-3.85100E-001	8.00223E-005	4	..........a	-327.66
	136	0.0274	-3.74930E-001	-2.26231E-008	0.00000E+000	-3.75100E-001	8.00223E-005	4	..........a	-327.66
	137	0.0276	-3.64980E-001	-2.25181E-008	0.00000E+000	-3.65100E-001	8.00223E-005	4	..........a	-327.66
	138	0.0278	-3.55130E-001	-2.24091E-008	0.00000E+000	-3.55100E-001	8.00223E-005	4	..........a	-327.66
	139	0.028	-3.44730E-001	-2.23011E-008	0.00000E+000	-3.45100E-001	8.00223E-005	4	..........a	-327.66
	140	0.0282	-3.34930E-001	-2.21911E-008	0.00000E+000	-3.35100E-001	-3.19978E-004	4	..........a	-327.66
	141	0.0284	-3.24930E-001	-2.20731E-008	0.00000E+000	-3.25100E-001	8.00223E-005	4	..........a	-327.66
	142	0.0286	-3.15030E-001	-2.19591E-008	0.00000E+000	-3.15100E-001	8.00223E-005	4	..........a	-327.66
	143	0.0288	-3.04830E-001	-2.18471E-008	0.00000E+000	-3.05100E-001	8.00223E-005	4	..........a	-327.66
	144	0.029	-2.94930E-001	-2.17290E-008	0.00000E+000	-2.95100E-001	8.00223E-005	4	..........a	-327.66
	145	0.0292	-2.84930E-001	-2.16110E-008	0.00000E+000	-2.85100E-001	8.00223E-005	4	..........a	-327.66
	146	0.0294	-2.74830E-001	-2.14960E-008	0.00000E+000	-2.75100E-001	8.00223E-005	4	..........a	-327.66
	147	0.0296	-2.65130E-001	-2.13770E-008	0.00000E+000	-2.65100E-001	8.00223E-005	4	..........a	-327.66
	148	0.0298	-2.54980E-001	-2.12540E-008	0.00000E+000	-2.55100E-001	8.00223E-005	4	..........a	-327.66
	149	0.03	-2.44930E-001	-2.11290E-008	0.00000E+000	-2.45100E-001	8.00223E-005	4	..........a	-327.66
	150	0.0302	-2.34830E-001	-2.10130E-008	0.00000E+000	-2.35100E-001	8.00223E-005	4	..........a	-327.66
	151	0.0304	-2.24930E-001	-2.08860E-008	0.00000E+000	-2.25100E-001	8.00223E-005	4	..........a	-327.66
	152	0.0306	-2.14780E-001	-2.07610E-008	0.00000E+000	-2.15100E-001	8.00223E-005	4	..........a	-327.66
	153	0.0308	-2.05030E-001	-2.06320E-008	0.00000E+000	-2.05100E-001	8.00223E-005	4	..........a	-327.66
	154	0.031	-1.95030E-001	-2.05080E-008	0.00000E+000	-1.95100E-001	8.00223E-005	4	..........a	-327.66
	155	0.0312	-1.84980E-001	-2.03760E-008	0.00000E+000	-1.85100E-001	8.00223E-005	4	..........a	-327.66
	156	0.0314	-1.74930E-001	-2.02470E-008	0.00000E+000	-1.75100E-001	8.00223E-005	4	..........a	-327.66
	157	0.0316	-1.64830E-001	-2.01170E-008	0.00000E+000	-1.65100E-001	8.00223E-005	4	..........a	-327.66
	158	0.0318	-1.55130E-001	-1.99870E-008	0.00000E+000	-1.55100E-001	8.00223E-005	4	..........a	-327.66
	159	0.032	-1.45030E-001	-1.98550E-008	0.00000E+000	-1.45100E-001	8.00223E-005	4	..........a	-327.66
	160	0.0322	-1.34930E-001	-1.97200E-008	0.00000E+000	-1.35100E-001	8.00223E-005	4	..........a	-327.66
	161	0.0324	-1.24930E-001	-1.95890E-008	0.00000E+000	-1.25100E-001	8.00223E-005	4	..........a	-327.66
	162	0.0326	-1.15030E-001	-1.94500E-008	0.00000E+000	-1.15100E-001	8.00223E-005	4	..........a	-327.66
	163	0.0328	-1.04930E-001	-1.93170E-008	0.00000E+000	-1.05100E-001	8.00223E-005	4	..........a	-327.66
	164	0.033	-9.50305E-002	-1.91779E-008	0.00000E+000	-9.51000E-002	8.00223E-005	4	..........a	-327.66
	165	0.0332	-8.50305E-002	-1.90419E-008	0.00000E+000	-8.51000E-002	8.00223E-005	4	..........a	-327.66
	166	0.0334	-7.49305E-002	-1.88989E-008	0.00000E+000	-7.51000E-002	8.00223E-005	4	..........a	-327.66
	167	0.0336	-6.49305E-002	-1.87569E-008	0.00000E+000	-6.51000E-002	8.00223E-005	4	..........a	-327.66
	168	0.0338	-5.49305E-002	-1.86189E-008	0.00000E+000	-5.51000E-002	8.00223E-005	4	..........a	-327.66
	169	0.034	-4.50305E-002	-1.84689E-008	0.00000E+000	-4.51000E-002	8.00223E-005	4	..........a	-327.66
	170	0.0342	-3.50305E-002	-1.83249E-008	0.00000E+000	-3.51000E-002	8.00223E-005	4	..........a	-327.66
	171	0.0344	-2.51805E-002	-1.81779E-008	0.00000E+000	-2.51000E-002	8.00223E-005	4	..........a	-327.66
	172	0.0346	-1.51305E-002	-1.80269E-008	0.00000E+000	-1.51000E-002	8.00223E-005	4	..........a	-327.66
	173	0.0348	-4.93048E-003	-1.78759E-008	0.00000E+000	-5.10000E-003	8.00223E-005	4	..........a	-327.66
	174	0.035	5.06952E-003	-1.77209E-008	0.00000E+000	4.90000E-003	8.00223E-005	4	..........a	-327.66
	175	0.0352	1.52695E-002	-1.75669E-008	0.00000E+000	1.49000E-002	8.00223E-005	4	..........a	-327.66
	176	0.0354	2.50695E-002	-1.74099E-008	0.00000E+000	2.49000E-002	8.00223E-005	4	..........a	-327.66
	177	0.0356	3.49695E-002	-1.72439E-008	0.00000E+000	3.49000E-002	8.00223E-005	4	..........a	-327.66
	178	0.0358	4.49195E-002	-1.70809E-008	0.00000E+000	4.49000E-002	8.00223E-005	4	..........a	-327.66
	179	0.036	5.51695E-002	-1.69139E-008	0.00000E+000	5.49000E-002	8.00223E-005	4	..........a	-327.66
	180	0.0362	6.52695E-002	-1.67439E-008	0.00000E+000	6.49000E-002	8.00223E-005	4	..........a	-327.66
	181	0.0364	7.49695E-002	-1.65718E-008	0.00000E+000	7.49000E-002	8.00223E-005	4	..........a	-327.66
	182	0.0366	8.48695E-002	-1.63968E-008	0.00000E+000	8.49000E-002	8.00223E-005	4	..........a	-327.66
	183	0.0368	9.49695E-002	-1.62118E-008	0.00000E+000	9.49000E-002	8.00223E-005	4	..........a	-327.66
	184	0.037	1.05070E-001	-1.60268E-008	0.00000E+000	1.04900E-001	8.00223E-005	4	..........a	-327.66
	185	0.0372	1.14970E-001	-1.58358E-008	0.00000E+000	1.14900E-001	8.00223E-005	4	..........a	-327.66
	186	0.0374	1.24970E-001	-1.56438E-008	0.00000E+000	1.24900E-001	8.00223E-005	4	..........a	-327.66
	187	0.0376	1.35070E-001	-1.54428E-008	0.00000E+000	1.34900E-001	8.00223E-005	4	..........a	-327.66
	188	0.0378	1.45070E-001	-1.52348E-008	0.00000E+000	1.44900E-001	8.00223E-005	4	..........a	-327.66
	189	0.038	1.54970E-001	-1.50278E-008	0.00000E+000	1.54900E-001	-1.19978E-004	4	..........a	-327.66
	190	0.0382	1.64970E-001	-1.48118E-008	0.00000E+000	1.64900E-001	8.00223E-005	4	..........a	-327.66
	191	0.0384	1.74870E-001	-1.45878E-008	0.00000E+000	1.74900E-001	8.00223E-005	4	..........a	-327.66
	192	0.0386	1.85070E-001	-1.43628E-008	0.00000E+000	1.84900E-001	8.00223E-005	4	..........a	-327.66
	193	0.0388	1.95070E-001	-1.41268E-008	0.00000E+000	1.94900E-001	8.00223E-005	4	..........a	-327.66
	194	0.039	2.05070E-001	-1.38857E-008	0.00000E+000	2.04900E-001	8.00223E-005	4	..........a	-327.66
	195	0.0392	2.14870E-001	-1.36327E-008	0.00000E+000	2.14900E-001	8.00223E-005	4	..........a	-327.66
	196	0.0394	2.25070E-001	-1.33867E-008	0.00000E+000	2.24900E-001	8.00223E-005	4	..........a	-327.66
	197	0.0396	2.34970E-001	-1.31197E-008	0.00000E+000	2.34900E-001	8.00223E-005	4	..........a	-327.66
	198	0.0398	2.45270E-001	-1.28637E-008	0.00000E+000	2.44900E-001	8.00223E-005	4	..........a	-327.66
	199	0.04	2.54970E-001	-1.25917E-008	0.00000E+000	2.54900E-001	8.00223E-005	4	..........a	-327.66
	200	0.0402	2.64970E-001	-1.23167E-008	0.00000E+000	2.64900E-001	8.00223E-005	4	..........a	-327.66
	201	0.0404	2.74870E-001	-1.20347E-008	0.00000E+000	2.74900E-001	8.00223E-005	4	..........a	-327.66
	202	0.0406	2.84870E-001	-1.17437E-008	0.00000E+000	2.84900E-001	8.00223E-005	4	..........a	-327.66
	203	0.0408	2.94870E-001	-1.14507E-008	0.00000E+000	2.94900E-001	8.00223E-005	4	..........a	-327.66
	204	0.041	3.05070E-001	-1.11506E-008	0.00000E+000	3.04900E-001	8.00223E-005	4	..........a	-327.66
	205	0.0412	3.14870E-001	-1.08496E-008	0.00000E+000	3.14900E-001	8.00223E-005	4	..........a	-327.66
	206	0.0414	3.25070E-001	-1.05426E-008	0.00000E+000	3.24900E-001	8.00223E-005	4	..........a	-327.66
	207	0.0416	3.34870E-001	-1.02276E-008	0.00000E+000	3.34900E-001	8.00223E-005	4	..........a	-327.66
	208	0.0418	3.44970E-001	-9.91259E-009	0.00000E+000	3.44900E-001	8.00223E-005	4	..........a	-327.66
	209	0.042	3.54970E-001	-9.58758E-009	0.00000E+000	3.54900E-001	8.00223E-005	4	..........a	-327.66
	210	0.0422	3.64970E-001	-9.27157E-009	0.00000E+000	3.64900E-001	8.00223E-005	4	..........a	-327.66
	211	0.0424	3.74970E-001	-8.94656E-009	0.00000E+000	3.74900E-001	8.00223E-005	4	..........a	-327.66
	212	0.0426	3.84970E-001	-8.62054E-009	0.00000E+000	3.84900E-001	8.00223E-005	4	..........a	-327.66
	213	0.0428	3.94970E-001	-8.28753E-009	0.00000E+000	3.94900E-001	8.00223E-005	4	..........a	-327.66
	214	0.043	4.04920E-001	-7.95752E-009	0.00000E+000	4.04900E-001	8.00223E-005	4	..........a	-327.66
	215	0.0432	4.14970E-001	-7.61951E-009	0.00000E+000	4.14900E-001	8.00223E-005	4	..........a	-327.66
	216	0.0434	4.25020E-001	-7.28749E-009	0.00000E+000	4.24900E-001	8.00223E-005	4	..........a	-327.66
	217	0.0436	4.34870E-001	-6.94648E-009	0.00000E+000	4.34900E-001	8.00223E-005	4	..........a	-327.66
	218	0.0438	4.44970E-001	-6.60847E-009	0.00000E+000	4.44900E-001	8.00223E-005	4	..........a	-327.66
	219	0.044	4.54870E-001	-6.26845E-009	0.00000E+000	4.54900E-001	8.00223E-005	4	..........a	-327.66
	220	0.0442	4.64870E-001	-5.93244E-009	0.00000E+000	4.64900E-001	8.00223E-005	4	..........a	-327.66
	221	0.0444	4.74870E-001	-5.58743E-009	0.00000E+000	4.74900E-001	8.00223E-005	4	..........a	-327.66
	222	0.0446	4.84820E-001	-5.24841E-009	0.00000E+000	4.84900E-001	-3.19978E-004	4	..........a	-327.66
	223	0.0448	4.94870E-001	-4.91040E-009	0.00000E+000	4.94900E-001	8.00223E-005	4	..........a	-327.66
	224	0.045	5.04869E-001	-4.57439E-009	0.00000E+000	5.04900E-001	8.00223E-005	4	..........a	-327.66
	225	0.0452	5.14769E-001	-4.23438E-009	0.00000E+000	5.14900E-001	8.00223E-005	4	..........a	-327.66
	226	0.0454	5.24920E-001	-3.89536E-009	0.00000E+000	5.24900E-001	8.00223E-005	4	..........a	-327.66
	227	0.0456	5.34869E-001	-3.55835E-009	0.00000E+000	5.34900E-001	8.00223E-005	4	..........a	-327.66
	228	0.0458	5.45069E-001	-3.22634E-009	0.00000E+000	5.44900E-001	8.00223E-005	4	..........a	-327.66
	229	0.046	5.54869E-001	-2.89032E-009	0.00000E+000	5.54900E-001	8.00223E-005	4	..........a	-327.66
	230	0.0462	5.64869E-001	-2.55731E-009	0.00000E+000	5.64900E-001	8.00223E-005	4	..........a	-327.66
	231	0.0464	5.74969E-001	-2.22830E-009	0.00000E+000	5.74900E-001	8.00223E-005	4	..........a	-327.66
	232	0.0466	5.84870E-001	-1.89629E-009	0.00000E+000	5.84900E-001	8.00223E-005	4	..........a	-327.66
	233	0.0468	5.94869E-001	-1.56827E-009	0.00000E+000	5.94900E-001	8.00223E-005	4	..........a	-327.66
	234	0.047	6.04769E-001	-1.24026E-009	0.00000E+000	6.04900E-001	-3.19978E-004	4	..........a	-327.66
	235	0.0472	6.14569E-001	-9.17248E-010	0.00000E+000	6.14900E-001	8.00223E-005	4	..........a	-327.66
	236	0.0474	6.24770E-001	-5.88235E-010	0.00000E+000	6.24900E-001	8.00223E-005	4	..........a	-327.66
	237	0.0476	6.34769E-001	-2.71223E-010	0.00000E+000	6.34900E-001	8.00223E-005	4	..........a	-327.66
	238	0.0478	6.44769E-001	5.67898E-011	0.00000E+000	6.44900E-001	8.00223E-005	4	..........a	-327.66
	239	0.048	6.54869E-001	3.76802E-010	0.00000E+000	6.54900E-001	8.00223E-005	4	..........a	-327.66
	240	0.0482	6.64970E-001	7.01815E-010	0.00000E+000	6.64900E-001	8.00223E-005	4	..........a	-327.66
	241	0.0484	6.74969E-001	1.02083E-009	0.00000E+000	6.74900E-001	8.00223E-005	4	..........a	-327.66
	242	0.0486	6.84669E-001	1.33884E-009	0.00000E+000	6.84900E-001	8.00223E-005	4	..........a	-327.66
	243	0.0488	6.94669E-001	1.65785E-009	0.00000E+000	6.94900E-001	8.00223E-005	4	..........a	-327.66
	244	0.049	7.04919E-001	1.97686E-009	0.00000E+000	7.04900E-001	8.00223E-005	4	..........a	-327.66
	245	0.0492	7.14619E-001	2.30288E-009	0.00000E+000	7.14900E-001	8.00223E-005	4	..........a	-327.66
	246	0.0494	7.24769E-001	2.62389E-009	0.00000E+000	7.24900E-001	8.00223E-005	4	..........a	-327.66
	247	0.0496	7.34869E-001	2.94090E-009	0.00000E+000	7.34900E-001	8.00223E-005	4	..........a	-327.66
	248	0.0498	7.44669E-001	3.26991E-009	0.00000E+000	7.44900E-001	8.00223E-005	4	..........a	-327.66
	249	0.05	7.54819E-001	3.59293E-009	0.00000E+000	7.54900E-001	8.00223E-005	4	..........a	-327.66
	250	0.0502	7.64569E-001	3.91694E-009	0.00000E+000	7.64900E-001	8.00223E-005	4	..........a	-327.66
	251	0.0504	7.74769E-001	4.24795E-009	0.00000E+000	7.74900E-001	-3.19978E-004	4	..........a	-327.66
	252	0.0506	7.84719E-001	4.57496E-009	0.00000E+000	7.84900E-001	8.00223E-005	4	..........a	-327.66
	253	0.0508	7.94869E-001	4.90698E-009	0.00000E+000	7.94900E-001	8.00223E-005	4	..........a	-327.66
CURVE2	TABLE
	Pt	T	Vf	Im	Vu	Sig	Ach	IERange	Over	Temp
	#	s	V vs. Ref.	A	V	V	V	#	bits	deg C
	254	0.051	7.89970E-001	5.11898E-009	0.00000E+000	7.90000E-001	8.00223E-005	4	..........a	-327.66
	255	0.0512	7.79869E-001	5.25199E-009	0.00000E+000	7.80000E-001	-2.19978E-004	4	..........a	-327.66
	256	0.0514	7.69870E-001	5.33999E-009	0.00000E+000	7.70000E-001	8.00223E-005	4	..........a	-327.66
	257	0.0516	7.59769E-001	5.39399E-009	0.00000E+000	7.60000E-001	8.00223E-005	4	..........a	-327.66
	258	0.0518	7.49869E-001	5.42800E-009	0.00000E+000	7.50000E-001	-1.19978E-004	4	..........a	-327.66
	259	0.052	7.39869E-001	5.43800E-009	0.00000E+000	7.40000E-001	8.00223E-005	4	..........a	-327.66
	260	0.0522	7.29970E-001	5.43200E-009	0.00000E+000	7.30000E-001	8.00223E-005	4	..........a	-327.66
	261	0.0524	7.19969E-001	5.41600E-009	0.00000E+000	7.20000E-001	8.00223E-005	4	..........a	-327.66
	262	0.0526	7.09819E-001	5.38599E-009	0.00000E+000	7.10000E-001	8.00223E-005	4	..........a	-327.66
	263	0.0528	6.99969E-001	5.34199E-009	0.00000E+000	7.00000E-001	8.00223E-005	4	..........a	-327.66
	264	0.053	6.89869E-001	5.29799E-009	0.00000E+000	6.90000E-001	8.00223E-005	4	..........a	-327.66
	265	0.0532	6.79869E-001	5.24399E-009	0.00000E+000	6.80000E-001	8.00223E-005	4	..........a	-327.66
	266	0.0534	6.69869E-001	5.18199E-009	0.00000E+000	6.70000E-001	8.00223E-005	4	..........a	-327.66
	267	0.0536	6.59970E-001	5.11598E-009	0.00000E+000	6.60000E-001	8.00223E-005	4	..........a	-327.66
	268	0.0538	6.49870E-001	5.04198E-009	0.00000E+000	6.50000E-001	8.00223E-005	4	..........a	-327.66
	269	0.054	6.39669E-001	4.96298E-009	0.00000E+000	6.40000E-001	8.00223E-005	4	..........a	-327.66
	270	0.0542	6.29969E-001	4.88197E-009	0.00000E+000	6.30000E-001	8.00223E-005	4	..........a	-327.66
	271	0.0544	6.19869E-001	4.79997E-009	0.00000E+000	6.20000E-001	8.00223E-005	4	..........a	-327.66
	272	0.0546	6.10070E-001	4.69697E-009	0.00000E+000	6.10000E-001	8.00223E-005	4	..........a	-327.66
	273	0.0548	5.99769E-001	4.59996E-009	0.00000E+000	6.00000E-001	8.00223E-005	4	..........a	-327.66
	274	0.055	5.90069E-001	4.50096E-009	0.00000E+000	5.90000E-001	8.00223E-005	4	..........a	-327.66
	275	0.0552	5.79719E-001	4.39796E-009	0.00000E+000	5.80000E-001	-3.19978E-004	4	..........a	-327.66
	276	0.0554	5.69919E-001	4.28895E-009	0.00000E+000	5.70000E-001	8.00223E-005	4	..........a	-327.66
	277	0.0556	5.59770E-001	4.17395E-009	0.00000E+000	5.60000E-001	8.00223E-005	4	..........a	-327.66
	278	0.0558	5.50070E-001	4.05594E-009	0.00000E+000	5.50000E-001	8.00223E-005	4	..........a	-327.66
	279	0.056	5.39869E-001	3.93194E-009	0.00000E+000	5.40000E-001	8.00223E-005	4	..........a	-327.66
	280	0.0562	5.29920E-001	3.80493E-009	0.00000E+000	5.30000E-001	8.00223E-005	4	..........a	-327.66
	281	0.0564	5.19870E-001	3.67793E-009	0.00000E+000	5.20000E-001	8.00223E-005	4	..........a	-327.66
	282	0.0566	5.09969E-001	3.54392E-009	0.00000E+000	5.10000E-001	8.00223E-005	4	..........a	-327.66
	283	0.0568	4.99970E-001	3.40492E-009	0.00000E+000	5.00000E-001	-1.19978E-004	4	..........a	-327.66
	284	0.057	4.89970E-001	3.25891E-009	0.00000E+000	4.90000E-001	8.00223E-005	4	..........a	-327.66
	285	0.0572	4.79870E-001	3.10791E-009	0.00000E+000	4.80000E-001	8.00223E-005	4	..........a	-327.66
	286	0.0574	4.69970E-001	2.94990E-009	0.00000E+000	4.70000E-001	-2.19978E-004	4	..........a	-327.66
	287	0.0576	4.59970E-001	2.78989E-009	0.00000E+000	4.60000E-001	8.00223E-005	4	..........a	-327.66
	288	0.0578	4.49670E-001	2.62489E-009	0.00000E+000	4.50000E-001	-2.19978E-004	4	..........a	-327.66
	289	0.058	4.39970E-001	2.45188E-009	0.00000E+000	4.40000E-001	-1.19978E-004	4	..........a	-327.66
	290	0.0582	4.30070E-001	2.27287E-009	0.00000E+000	4.30000E-001	-3.19978E-004	4	..........a	-327.66
	291	0.0584	4.20070E-001	2.08587E-009	0.00000E+000	4.20000E-001	8.00223E-005	4	..........a	-327.66
	292	0.0586	4.09970E-001	1.89086E-009	0.00000E+000	4.10000E-001	8.00223E-005	4	..........a	-327.66
	293	0.0588	3.99970E-001	1.68785E-009	0.00000E+000	4.00000E-001	8.00223E-005	4	..........a	-327.66
	294	0.059	3.89970E-001	1.47784E-009	0.00000E+000	3.90000E-001	8.00223E-005	4	..........a	-327.66
	295	0.0592	3.80170E-001	1.26184E-009	0.00000E+000	3.80000E-001	8.00223E-005	4	..........a	-327.66
	296	0.0594	3.69970E-001	1.03383E-009	0.00000E+000	3.70000E-001	8.00223E-005	4	..........a	-327.66
	297	0.0596	3.59870E-001	8.05819E-010	0.00000E+000	3.60000E-001	8.00223E-005	4	..........a	-327.66
	298	0.0598	3.50070E-001	5.60809E-010	0.00000E+000	3.50000E-001	8.00223E-005	4	..........a	-327.66
	299	0.06	3.39870E-001	3.08800E-010	0.00000E+000	3.40000E-001	-3.19978E-004	4	..........a	-327.66
	300	0.0602	3.30070E-001	4.47894E-011	0.00000E+000	3.30000E-001	8.00223E-005	4	..........a	-327.66
	301	0.0604	3.19970E-001	-2.19221E-010	0.00000E+000	3.20000E-001	8.00223E-005	4	..........a	-327.66
	302	0.0606	3.09970E-001	-4.94231E-010	0.00000E+000	3.10000E-001	8.00223E-005	4	..........a	-327.66
	303	0.0608	3.00070E-001	-7.82242E-010	0.00000E+000	3.00000E-001	-3.19978E-004	4	..........a	-327.66
	304	0.061	2.89970E-001	-1.06825E-009	0.00000E+000	2.90000E-001	8.00223E-005	4	..........a	-327.66
	305	0.0612	2.80070E-001	-1.36326E-009	0.00000E+000	2.80000E-001	-3.19978E-004	4	..........a	-327.66
	306	0.0614	2.70070E-001	-1.66728E-009	0.00000E+000	2.70000E-001	8.00223E-005	4	..........a	-327.66
	307	0.0616	2.60070E-001	-1.97229E-009	0.00000E+000	2.60000E-001	8.00223E-005	4	..........a	-327.66
	308	0.0618	2.50070E-001	-2.28430E-009	0.00000E+000	2.50000E-001	-2.19978E-004	4	..........a	-327.66
	309	0.062	2.40070E-001	-2.59231E-009	0.00000E+000	2.40000E-001	8.00223E-005	4	..........a	-327.66
	310	0.0622	2.30070E-001	-2.90732E-009	0.00000E+000	2.30000E-001	8.00223E-005	4	..........a	-327.66
	311	0.0624	2.20170E-001	-3.23134E-009	0.00000E+000	2.20000E-001	8.00223E-005	4	..........a	-327.66
	312	0.0626	2.09870E-001	-3.54835E-009	0.00000E+000	2.10000E-001	8.00223E-005	4	..........a	-327.66
	313	0.0628	1.99970E-001	-3.86136E-009	0.00000E+000	2.00000E-001	8.00223E-005	4	..........a	-327.66
	314	0.063	1.90070E-001	-4.18137E-009	0.00000E+000	1.90000E-001	8.00223E-005	4	..........a	-327.66
	315	0.0632	1.80170E-001	-4.49538E-009	0.00000E+000	1.80000E-001	8.00223E-005	4	..........a	-327.66
	316	0.0634	1.70070E-001	-4.80740E-009	0.00000E+000	1.70000E-001	8.00223E-005	4	..........a	-327.66
	317	0.0636	1.59970E-001	-5.11541E-009	0.00000E+000	1.60000E-001	8.00223E-005	4	..........a	-327.66
	318	0.0638	1.50070E-001	-5.42242E-009	0.00000E+000	1.50000E-001	8.00223E-005	4	..........a	-327.66
	319	0.064	1.39970E-001	-5.72043E-009	0.00000E+000	1.40000E-001	8.00223E-005	4	..........a	-327.66
	320	0.0642	1.30170E-001	-6.01544E-009	0.00000E+000	1.30000E-001	8.00223E-005	4	..........a	-327.66
	321	0.0644	1.20170E-001	-6.30245E-009	0.00000E+000	1.20000E-001	8.00223E-005	4	..........a	-327.66
	322	0.0646	1.09970E-001	-6.58747E-009	0.00000E+000	1.10000E-001	8.00223E-005	4	..........a	-327.66
	323	0.0648	1.00170E-001	-6.86148E-009	0.00000E+000	1.00000E-001	8.00223E-005	4	..........a	-327.66
	324	0.065	9.00695E-002	-7.12949E-009	0.00000E+000	9.00000E-002	8.00223E-005	4	..........a	-327.66
	325	0.0652	8.01195E-002	-7.39550E-009	0.00000E+000	8.00000E-002	8.00223E-005	4	..........a	-327.66
	326	0.0654	6.99695E-002	-7.65351E-009	0.00000E+000	7.00000E-002	8.00223E-005	4	..........a	-327.66
	327	0.0656	6.00695E-002	-7.89952E-009	0.00000E+000	6.00000E-002	8.00223E-005	4	..........a	-327.66
	328	0.0658	5.00695E-002	-8.14252E-009	0.00000E+000	5.00000E-002	8.00223E-005	4	..........a	-327.66
	329	0.066	4.00695E-002	-8.38353E-009	0.00000E+000	4.00000E-002	8.00223E-005	4	..........a	-327.66
	330	0.0662	3.00695E-002	-8.61254E-009	0.00000E+000	3.00000E-002	8.00223E-005	4	..........a	-327.66
	331	0.0664	2.01695E-002	-8.83455E-009	0.00000E+000	2.00000E-002	8.00223E-005	4	..........a	-327.66
	332	0.0666	1.00695E-002	-9.05056E-009	0.00000E+000	1.00000E-002	8.00223E-005	4	..........a	-327.66
	333	0.0668	6.95192E-005	-9.26757E-009	0.00000E+000	7.45058E-009	8.00223E-005	4	..........a	-327.66
	334	0.067	-9.83048E-003	-9.47858E-009	0.00000E+000	-1.00000E-002	8.00223E-005	4	..........a	-327.66
	335	0.0672	-1.99305E-002	-9.68258E-009	0.00000E+000	-2.00000E-002	8.00223E-005	4	..........a	-327.66
	336	0.0674	-3.00305E-002	-9.88359E-009	0.00000E+000	-3.00000E-002	8.00223E-005	4	..........a	-327.66
	337	0.0676	-3.98305E-002	-1.00796E-008	0.00000E+000	-4.00000E-002	8.00223E-005	4	..........a	-327.66
	338	0.0678	-4.99305E-002	-1.02696E-008	0.00000E+000	-5.00000E-002	8.00223E-005	4	..........a	-327.66
	339	0.068	-5.97305E-002	-1.04606E-008	0.00000E+000	-6.00000E-002	8.00223E-005	4	..........a	-327.66
	340	0.0682	-6.98305E-002	-1.06496E-008	0.00000E+000	-7.00000E-002	8.00223E-005	4	..........a	-327.66
	341	0.0684	-7.98305E-002	-1.08306E-008	0.00000E+000	-8.00000E-002	8.00223E-005	4	..........a	-327.66
	342	0.0686	-8.99305E-002	-1.10056E-008	0.00000E+000	-9.00000E-002	8.00223E-005	4	..........a	-327.66
	343	0.0688	-9.98305E-002	-1.11826E-008	0.00000E+000	-1.00000E-001	-3.19978E-004	4	..........a	-327.66
	344	0.069	-1.10030E-001	-1.13596E-008	0.00000E+000	-1.10000E-001	8.00223E-005	4	..........a	-327.66
	345	0.0692	-1.20030E-001	-1.15297E-008	0.00000E+000	-1.20000E-001	8.00223E-005	4	..........a	-327.66
[...]
	2603	0.5208	-2.99730E-001	-7.54650E-009	0.00000E+000	-3.00000E-001	-4.19978E-004	4	..........a	-327.66
	2604	0.521	-3.09830E-001	-7.69251E-009	0.00000E+000	-3.10000E-001	8.00223E-005	4	..........a	-327.66
	2605	0.5212	-3.19930E-001	-7.83851E-009	0.00000E+000	-3.20000E-001	8.00223E-005	4	..........a	-327.66
	2606	0.5214	-3.29930E-001	-7.98052E-009	0.00000E+000	-3.30000E-001	8.00223E-005	4	..........a	-327.66
	2607	0.5216	-3.39780E-001	-8.12652E-009	0.00000E+000	-3.40000E-001	8.00223E-005	4	..........a	-327.66
	2608	0.5218	-3.49930E-001	-8.26953E-009	0.00000E+000	-3.50000E-001	8.00223E-005	4	..........a	-327.66
	2609	0.522	-3.59930E-001	-8.41654E-009	0.00000E+000	-3.60000E-001	8.00223E-005	4	..........a	-327.66
	2610	0.5222	-3.69930E-001	-8.55554E-009	0.00000E+000	-3.70000E-001	-2.19978E-004	4	..........a	-327.66
	2611	0.5224	-3.79880E-001	-8.70255E-009	0.00000E+000	-3.80000E-001	8.00223E-005	4	..........a	-327.66
	2612	0.5226	-3.90030E-001	-8.84555E-009	0.00000E+000	-3.90000E-001	8.00223E-005	4	..........a	-327.66
	2613	0.5228	-4.00030E-001	-8.98856E-009	0.00000E+000	-4.00000E-001	8.00223E-005	4	..........a	-327.66
	2614	0.523	-4.09930E-001	-9.13056E-009	0.00000E+000	-4.10000E-001	8.00223E-005	4	..........a	-327.66
	2615	0.5232	-4.19730E-001	-9.27457E-009	0.00000E+000	-4.20000E-001	8.00223E-005	4	..........a	-327.66
	2616	0.5234	-4.29830E-001	-9.41857E-009	0.00000E+000	-4.30000E-001	8.00223E-005	4	..........a	-327.66
	2617	0.5236	-4.39930E-001	-9.56258E-009	0.00000E+000	-4.40000E-001	8.00223E-005	4	..........a	-327.66
	2618	0.5238	-4.49830E-001	-9.70558E-009	0.00000E+000	-4.50000E-001	8.00223E-005	4	..........a	-327.66
	2619	0.524	-4.59830E-001	-9.85759E-009	0.00000E+000	-4.60000E-001	-1.19978E-004	4	..........a	-327.66
	2620	0.5242	-4.69830E-001	-1.00076E-008	0.00000E+000	-4.70000E-001	8.00223E-005	4	..........a	-327.66
	2621	0.5244	-4.79830E-001	-1.01556E-008	0.00000E+000	-4.80000E-001	8.00223E-005	4	..........a	-327.66
	2622	0.5246	-4.89730E-001	-1.03056E-008	0.00000E+000	-4.90000E-001	8.00223E-005	4	..........a	-327.66
	2623	0.5248	-4.99930E-001	-1.04606E-008	0.00000E+000	-5.00000E-001	8.00223E-005	4	..........a	-327.66
	2624	0.525	-5.09830E-001	-1.06166E-008	0.00000E+000	-5.10000E-001	8.00223E-005	4	..........a	-327.66
	2625	0.5252	-5.19830E-001	-1.07766E-008	0.00000E+000	-5.20000E-001	8.00223E-005	4	..........a	-327.66
	2626	0.5254	-5.29831E-001	-1.09346E-008	0.00000E+000	-5.30000E-001	8.00223E-005	4	..........a	-327.66
	2627	0.5256	-5.39730E-001	-1.10926E-008	0.00000E+000	-5.40000E-001	8.00223E-005	4	..........a	-327.66
	2628	0.5258	-5.49730E-001	-1.12646E-008	0.00000E+000	-5.50000E-001	8.00223E-005	4	..........a	-327.66
	2629	0.526	-5.59931E-001	-1.14327E-008	0.00000E+000	-5.60000E-001	8.00223E-005	4	..........a	-327.66
	2630	0.5262	-5.69830E-001	-1.16027E-008	0.00000E+000	-5.70000E-001	8.00223E-005	4	..........a	-327.66
	2631	0.5264	-5.79731E-001	-1.17787E-008	0.00000E+000	-5.80000E-001	8.00223E-005	4	..........a	-327.66
	2632	0.5266	-5.89930E-001	-1.19667E-008	0.00000E+000	-5.90000E-001	-2.19978E-004	4	..........a	-327.66
	2633	0.5268	-5.99930E-001	-1.21447E-008	0.00000E+000	-6.00000E-001	8.00223E-005	4	..........a	-327.66
	2634	0.527	-5.89830E-001	-1.21887E-008	0.00000E+000	-5.90000E-001	8.00223E-005	4	..........a	-327.66
	2635	0.5272	-5.79930E-001	-1.22027E-008	0.00000E+000	-5.80000E-001	8.00223E-005	4	..........a	-327.66
	2636	0.5274	-5.69830E-001	-1.22007E-008	0.00000E+000	-5.70000E-001	8.00223E-005	4	..........a	-327.66
	2637	0.5276	-5.59931E-001	-1.21777E-008	0.00000E+000	-5.60000E-001	8.00223E-005	4	..........a	-327.66
	2638	0.5278	-5.49630E-001	-1.21517E-008	0.00000E+000	-5.50000E-001	8.00223E-005	4	..........a	-327.66
	2639	0.528	-5.39730E-001	-1.21147E-008	0.00000E+000	-5.40000E-001	8.00223E-005	4	..........a	-327.66
	2640	0.5282	-5.29831E-001	-1.20707E-008	0.00000E+000	-5.30000E-001	8.00223E-005	4	..........a	-327.66
	2641	0.5284	-5.19930E-001	-1.20237E-008	0.00000E+000	-5.20000E-001	8.00223E-005	4	..........a	-327.66
	2642	0.5286	-5.09631E-001	-1.19747E-008	0.00000E+000	-5.10000E-001	8.00223E-005	4	..........a	-327.66
	2643	0.5288	-4.99830E-001	-1.19147E-008	0.00000E+000	-5.00000E-001	8.00223E-005	4	..........a	-327.66
	2644	0.529	-4.89930E-001	-1.18547E-008	0.00000E+000	-4.90000E-001	8.00223E-005	4	..........a	-327.66
	2645	0.5292	-4.79930E-001	-1.17927E-008	0.00000E+000	-4.80000E-001	8.00223E-005	4	..........a	-327.66
	2646	0.5294	-4.69930E-001	-1.17247E-008	0.00000E+000	-4.70000E-001	8.00223E-005	4	..........a	-327.66
	2647	0.5296	-4.59830E-001	-1.16547E-008	0.00000E+000	-4.60000E-001	8.00223E-005	4	..........a	-327.66
	2648	0.5298	-4.49930E-001	-1.15847E-008	0.00000E+000	-4.50000E-001	8.00223E-005	4	..........a	-327.66
	2649	0.53	-4.39930E-001	-1.15057E-008	0.00000E+000	-4.40000E-001	8.00223E-005	4	..........a	-327.66
	2650	0.5302	-4.30030E-001	-1.14287E-008	0.00000E+000	-4.30000E-001	-2.19978E-004	4	..........a	-327.66
	2651	0.5304	-4.19880E-001	-1.13486E-008	0.00000E+000	-4.20000E-001	8.00223E-005	4	..........a	-327.66
	2652	0.5306	-4.09930E-001	-1.12686E-008	0.00000E+000	-4.10000E-001	8.00223E-005	4	..........a	-327.66
	2653	0.5308	-3.99830E-001	-1.11876E-008	0.00000E+000	-4.00000E-001	8.00223E-005	4	..........a	-327.66
	2654	0.531	-3.89730E-001	-1.11026E-008	0.00000E+000	-3.90000E-001	8.00223E-005	4	..........a	-327.66
	2655	0.5312	-3.79830E-001	-1.10146E-008	0.00000E+000	-3.80000E-001	-2.19978E-004	4	..........a	-327.66
	2656	0.5314	-3.70030E-001	-1.09306E-008	0.00000E+000	-3.70000E-001	8.00223E-005	4	..........a	-327.66
	2657	0.5316	-3.59830E-001	-1.08426E-008	0.00000E+000	-3.60000E-001	8.00223E-005	4	..........a	-327.66
	2658	0.5318	-3.49830E-001	-1.07516E-008	0.00000E+000	-3.50000E-001	8.00223E-005	4	..........a	-327.66
	2659	0.532	-3.39830E-001	-1.06626E-008	0.00000E+000	-3.40000E-001	8.00223E-005	4	..........a	-327.66
	2660	0.5322	-3.29930E-001	-1.05716E-008	0.00000E+000	-3.30000E-001	-3.19978E-004	4	..........a	-327.66
	2661	0.5324	-3.19830E-001	-1.04756E-008	0.00000E+000	-3.20000E-001	8.00223E-005	4	..........a	-327.66
	2662	0.5326	-3.09930E-001	-1.03836E-008	0.00000E+000	-3.10000E-001	8.00223E-005	4	..........a	-327.66
	2663	0.5328	-2.99780E-001	-1.02866E-008	0.00000E+000	-3.00000E-001	8.00223E-005	4	..........a	-327.66
	2664	0.533	-2.89930E-001	-1.01916E-008	0.00000E+000	-2.90000E-001	8.00223E-005	4	..........a	-327.66
	2665	0.5332	-2.79830E-001	-1.00986E-008	0.00000E+000	-2.80000E-001	8.00223E-005	4	..........a	-327.66
	2666	0.5334	-2.69830E-001	-1.00036E-008	0.00000E+000	-2.70000E-001	8.00223E-005	4	..........a	-327.66
	2667	0.5336	-2.59830E-001	-9.89959E-009	0.00000E+000	-2.60000E-001	8.00223E-005	4	..........a	-327.66
	2668	0.5338	-2.50030E-001	-9.80059E-009	0.00000E+000	-2.50000E-001	-2.19978E-004	4	..........a	-327.66
	2669	0.534	-2.39830E-001	-9.70159E-009	0.00000E+000	-2.40000E-001	8.00223E-005	4	..........a	-327.66
	2670	0.5342	-2.29930E-001	-9.60358E-009	0.00000E+000	-2.30000E-001	8.00223E-005	4	..........a	-327.66
	2671	0.5344	-2.19830E-001	-9.50058E-009	0.00000E+000	-2.20000E-001	8.00223E-005	4	..........a	-327.66
	2672	0.5346	-2.09830E-001	-9.39957E-009	0.00000E+000	-2.10000E-001	8.00223E-005	4	..........a	-327.66
	2673	0.5348	-1.99930E-001	-9.29457E-009	0.00000E+000	-2.00000E-001	8.00223E-005	4	..........a	-327.66
	2674	0.535	-1.90130E-001	-9.18657E-009	0.00000E+000	-1.90000E-001	8.00223E-005	4	..........a	-327.66
	2675	0.5352	-1.80030E-001	-9.08556E-009	0.00000E+000	-1.80000E-001	8.00223E-005	4	..........a	-327.66
	2676	0.5354	-1.70030E-001	-8.98856E-009	0.00000E+000	-1.70000E-001	8.00223E-005	4	..........a	-327.66
	2677	0.5356	-1.60130E-001	-8.87355E-009	0.00000E+000	-1.60000E-001	8.00223E-005	4	..........a	-327.66
	2678	0.5358	-1.50030E-001	-8.77055E-009	0.00000E+000	-1.50000E-001	8.00223E-005	4	..........a	-327.66
	2679	0.536	-1.39830E-001	-8.66255E-009	0.00000E+000	-1.40000E-001	8.00223E-005	4	..........a	-327.66
	2680	0.5362	-1.29930E-001	-8.54454E-009	0.00000E+000	-1.30000E-001	8.00223E-005	4	..........a	-327.66
	2681	0.5364	-1.19930E-001	-8.44354E-009	0.00000E+000	-1.20000E-001	8.00223E-005	4	..........a	-327.66
	2682	0.5366	-1.10130E-001	-8.33253E-009	0.00000E+000	-1.10000E-001	8.00223E-005	4	..........a	-327.66
	2683	0.5368	-9.98305E-002	-8.22253E-009	0.00000E+000	-1.00000E-001	8.00223E-005	4	..........a	-327.66
	2684	0.537	-9.01305E-002	-8.10552E-009	0.00000E+000	-9.00000E-002	8.00223E-005	4	..........a	-327.66
	2685	0.5372	-7.99305E-002	-7.99452E-009	0.00000E+000	-8.00000E-002	8.00223E-005	4	..........a	-327.66
	2686	0.5374	-6.99305E-002	-7.87851E-009	0.00000E+000	-7.00000E-002	8.00223E-005	4	..........a	-327.66
	2687	0.5376	-5.97305E-002	-7.76251E-009	0.00000E+000	-6.00000E-002	8.00223E-005	4	..........a	-327.66
	2688	0.5378	-4.99305E-002	-7.64751E-009	0.00000E+000	-5.00000E-002	8.00223E-005	4	..........a	-327.66
	2689	0.538	-4.01305E-002	-7.51950E-009	0.00000E+000	-4.00000E-002	8.00223E-005	4	..........a	-327.66
	2690	0.5382	-3.00305E-002	-7.40550E-009	0.00000E+000	-3.00000E-002	8.00223E-005	4	..........a	-327.66
	2691	0.5384	-2.00305E-002	-7.28549E-009	0.00000E+000	-2.00000E-002	8.00223E-005	4	..........a	-327.66
	2692	0.5386	-9.93048E-003	-7.15849E-009	0.00000E+000	-1.00000E-002	8.00223E-005	4	..........a	-327.66
	2693	0.5388	6.95192E-005	-7.03248E-009	0.00000E+000	7.45058E-009	8.00223E-005	4	..........a	-327.66
	2694	0.539	1.00695E-002	-6.90748E-009	0.00000E+000	1.00000E-002	8.00223E-005	4	..........a	-327.66
	2695	0.5392	2.02695E-002	-6.77647E-009	0.00000E+000	2.00000E-002	8.00223E-005	4	..........a	-327.66
	2696	0.5394	2.99695E-002	-6.64547E-009	0.00000E+000	3.00000E-002	8.00223E-005	4	..........a	-327.66
	2697	0.5396	3.99195E-002	-6.50746E-009	0.00000E+000	4.00000E-002	-3.19978E-004	4	..........a	-327.66
	2698	0.5398	5.01695E-002	-6.36946E-009	0.00000E+000	5.00000E-002	8.00223E-005	4	..........a	-327.66
	2699	0.54	5.99695E-002	-6.22845E-009	0.00000E+000	6.00000E-002	8.00223E-005	4	..........a	-327.66
	2700	0.5402	7.00695E-002	-6.08245E-009	0.00000E+000	7.00000E-002	8.00223E-005	4	..........a	-327.66
	2701	0.5404	8.00695E-002	-5.93244E-009	0.00000E+000	8.00000E-002	-3.19978E-004	4	..........a	-327.66
	2702	0.5406	9.00695E-002	-5.77943E-009	0.00000E+000	9.00000E-002	8.00223E-005	4	..........a	-327.66
	2703	0.5408	1.00220E-001	-5.62143E-009	0.00000E+000	1.00000E-001	8.00223E-005	4	..........a	-327.66
	2704	0.541	1.10070E-001	-5.46042E-009	0.00000E+000	1.10000E-001	-3.19978E-004	4	..........a	-327.66
	2705	0.5412	1.20170E-001	-5.29642E-009	0.00000E+000	1.20000E-001	8.00223E-005	4	..........a	-327.66
	2706	0.5414	1.30070E-001	-5.11641E-009	0.00000E+000	1.30000E-001	8.00223E-005	4	..........a	-327.66
	2707	0.5416	1.40170E-001	-4.93840E-009	0.00000E+000	1.40000E-001	8.00223E-005	4	..........a	-327.66
	2708	0.5418	1.50170E-001	-4.75740E-009	0.00000E+000	1.50000E-001	8.00223E-005	4	..........a	-327.66
	2709	0.542	1.60070E-001	-4.56939E-009	0.00000E+000	1.60000E-001	8.00223E-005	4	..........a	-327.66
	2710	0.5422	1.70070E-001	-4.36738E-009	0.00000E+000	1.70000E-001	8.00223E-005	4	..........a	-327.66
	2711	0.5424	1.80170E-001	-4.16137E-009	0.00000E+000	1.80000E-001	8.00223E-005	4	..........a	-327.66
	2712	0.5426	1.90070E-001	-3.94636E-009	0.00000E+000	1.90000E-001	8.00223E-005	4	..........a	-327.66
	2713	0.5428	2.00270E-001	-3.73636E-009	0.00000E+000	2.00000E-001	8.00223E-005	4	..........a	-327.66
	2714	0.543	2.09970E-001	-3.50635E-009	0.00000E+000	2.10000E-001	8.00223E-005	4	..........a	-327.66
	2715	0.5432	2.19970E-001	-3.28034E-009	0.00000E+000	2.20000E-001	8.00223E-005	4	..........a	-327.66
	2716	0.5434	2.29970E-001	-3.03533E-009	0.00000E+000	2.30000E-001	8.00223E-005	4	..........a	-327.66
	2717	0.5436	2.39970E-001	-2.79232E-009	0.00000E+000	2.40000E-001	8.00223E-005	4	..........a	-327.66
	2718	0.5438	2.49970E-001	-2.54031E-009	0.00000E+000	2.50000E-001	8.00223E-005	4	..........a	-327.66
	2719	0.544	2.59870E-001	-2.28130E-009	0.00000E+000	2.60000E-001	8.00223E-005	4	..........a	-327.66
	2720	0.5442	2.69970E-001	-2.00929E-009	0.00000E+000	2.70000E-001	8.00223E-005	4	..........a	-327.66
	2721	0.5444	2.79870E-001	-1.74228E-009	0.00000E+000	2.80000E-001	8.00223E-005	4	..........a	-327.66
	2722	0.5446	2.90070E-001	-1.46627E-009	0.00000E+000	2.90000E-001	8.00223E-005	4	..........a	-327.66
	2723	0.5448	3.00270E-001	-1.18326E-009	0.00000E+000	3.00000E-001	8.00223E-005	4	..........a	-327.66
	2724	0.545	3.09870E-001	-8.92247E-010	0.00000E+000	3.10000E-001	8.00223E-005	4	..........a	-327.66
	2725	0.5452	3.20170E-001	-5.98235E-010	0.00000E+000	3.20000E-001	8.00223E-005	4	..........a	-327.66
	2726	0.5454	3.30070E-001	-3.01224E-010	0.00000E+000	3.30000E-001	-2.19978E-004	4	..........a	-327.66
	2727	0.5456	3.40070E-001	2.78774E-012	0.00000E+000	3.40000E-001	8.00223E-005	4	..........a	-327.66
	2728	0.5458	3.49820E-001	3.13800E-010	0.00000E+000	3.50000E-001	8.00223E-005	4	..........a	-327.66
	2729	0.546	3.60070E-001	6.18811E-010	0.00000E+000	3.60000E-001	8.00223E-005	4	..........a	-327.66
	2730	0.5462	3.69870E-001	9.36824E-010	0.00000E+000	3.70000E-001	8.00223E-005	4	..........a	-327.66
	2731	0.5464	3.80170E-001	1.24984E-009	0.00000E+000	3.80000E-001	8.00223E-005	4	..........a	-327.66
	2732	0.5466	3.89870E-001	1.57185E-009	0.00000E+000	3.90000E-001	8.00223E-005	4	..........a	-327.66
	2733	0.5468	3.99920E-001	1.88986E-009	0.00000E+000	4.00000E-001	8.00223E-005	4	..........a	-327.66
	2734	0.547	4.09970E-001	2.21987E-009	0.00000E+000	4.10000E-001	8.00223E-005	4	..........a	-327.66
	2735	0.5472	4.20070E-001	2.53989E-009	0.00000E+000	4.20000E-001	8.00223E-005	4	..........a	-327.66
	2736	0.5474	4.29920E-001	2.86390E-009	0.00000E+000	4.30000E-001	-1.19978E-004	4	..........a	-327.66
	2737	0.5476	4.39970E-001	3.19291E-009	0.00000E+000	4.40000E-001	8.00223E-005	4	..........a	-327.66
	2738	0.5478	4.49970E-001	3.51992E-009	0.00000E+000	4.50000E-001	8.00223E-005	4	..........a	-327.66
	2739	0.548	4.59970E-001	3.84694E-009	0.00000E+000	4.60000E-001	8.00223E-005	4	..........a	-327.66
	2740	0.5482	4.69870E-001	4.17895E-009	0.00000E+000	4.70000E-001	8.00223E-005	4	..........a	-327.66
	2741	0.5484	4.79970E-001	4.50596E-009	0.00000E+000	4.80000E-001	8.00223E-005	4	..........a	-327.66
	2742	0.5486	4.89920E-001	4.83097E-009	0.00000E+000	4.90000E-001	8.00223E-005	4	..........a	-327.66
	2743	0.5488	4.99870E-001	5.15899E-009	0.00000E+000	5.00000E-001	8.00223E-005	4	..........a	-327.66
	2744	0.549	5.09870E-001	5.48300E-009	0.00000E+000	5.10000E-001	8.00223E-005	4	..........a	-327.66
	2745	0.5492	5.19969E-001	5.80601E-009	0.00000E+000	5.20000E-001	8.00223E-005	4	..........a	-327.66
	2746	0.5494	5.30069E-001	6.13202E-009	0.00000E+000	5.30000E-001	8.00223E-005	4	..........a	-327.66
	2747	0.5496	5.39869E-001	6.45104E-009	0.00000E+000	5.40000E-001	8.00223E-005	4	..........a	-327.66
	2748	0.5498	5.50070E-001	6.77305E-009	0.00000E+000	5.50000E-001	8.00223E-005	4	..........a	-327.66
	2749	0.55	5.59969E-001	7.08906E-009	0.00000E+000	5.60000E-001	8.00223E-005	4	..........a	-327.66
	2750	0.5502	5.69770E-001	7.40107E-009	0.00000E+000	5.70000E-001	8.00223E-005	4	..........a	-327.66
	2751	0.5504	5.80069E-001	7.71808E-009	0.00000E+000	5.80000E-001	8.00223E-005	4	..........a	-327.66
	2752	0.5506	5.89969E-001	8.03110E-009	0.00000E+000	5.90000E-001	8.00223E-005	4	..........a	-327.66
	2753	0.5508	5.99970E-001	8.34211E-009	0.00000E+000	6.00000E-001	8.00223E-005	4	..........a	-327.66
	2754	0.551	6.09869E-001	8.65212E-009	0.00000E+000	6.10000E-001	8.00223E-005	4	..........a	-327.66
	2755	0.5512	6.19669E-001	8.95913E-009	0.00000E+000	6.20000E-001	8.00223E-005	4	..........a	-327.66
	2756	0.5514	6.29969E-001	9.26814E-009	0.00000E+000	6.30000E-001	8.00223E-005	4	..........a	-327.66
	2757	0.5516	6.39969E-001	9.57515E-009	0.00000E+000	6.40000E-001	8.00223E-005	4	..........a	-327.66
	2758	0.5518	6.49870E-001	9.87817E-009	0.00000E+000	6.50000E-001	8.00223E-005	4	..........a	-327.66
	2759	0.552	6.59669E-001	1.01862E-008	0.00000E+000	6.60000E-001	8.00223E-005	4	..........a	-327.66
	2760	0.5522	6.69819E-001	1.04862E-008	0.00000E+000	6.70000E-001	8.00223E-005	4	..........a	-327.66
	2761	0.5524	6.79569E-001	1.07952E-008	0.00000E+000	6.80000E-001	8.00223E-005	4	..........a	-327.66
	2762	0.5526	6.89869E-001	1.10972E-008	0.00000E+000	6.90000E-001	8.00223E-005	4	..........a	-327.66
	2763	0.5528	6.99769E-001	1.13972E-008	0.00000E+000	7.00000E-001	8.00223E-005	4	..........a	-327.66
	2764	0.553	7.09870E-001	1.17052E-008	0.00000E+000	7.10000E-001	8.00223E-005	4	..........a	-327.66
	2765	0.5532	7.19769E-001	1.20062E-008	0.00000E+000	7.20000E-001	8.00223E-005	4	..........a	-327.66
	2766	0.5534	7.29869E-001	1.23133E-008	0.00000E+000	7.30000E-001	8.00223E-005	4	..........a	-327.66
	2767	0.5536	7.39769E-001	1.26193E-008	0.00000E+000	7.40000E-001	8.00223E-005	4	..........a	-327.66
	2768	0.5538	7.49770E-001	1.29243E-008	0.00000E+000	7.50000E-001	8.00223E-005	4	..........a	-327.66
	2769	0.554	7.59820E-001	1.32333E-008	0.00000E+000	7.60000E-001	8.00223E-005	4	..........a	-327.66
	2770	0.5542	7.69870E-001	1.35383E-008	0.00000E+000	7.70000E-001	8.00223E-005	4	..........a	-327.66
	2771	0.5544	7.79769E-001	1.38493E-008	0.00000E+000	7.80000E-001	8.00223E-005	4	..........a	-327.66
	2772	0.5546	7.89869E-001	1.41613E-008	0.00000E+000	7.90000E-001	8.00223E-005	4	..........a	-327.66
	2773	0.5548	7.99769E-001	1.44773E-008	0.00000E+000	8.00000E-001	8.00223E-005	4	..........a	-327.66
CURVE11	TABLE
	Pt	T	Vf	Im	Vu	Sig	Ach	IERange	Over	Temp
	#	s	V vs. Ref.	A	V	V	V	#	bits	deg C
	2774	0.555	7.89869E-001	1.46233E-008	0.00000E+000	7.90000E-001	8.00223E-005	4	..........a	-327.66
	2775	0.5552	7.79669E-001	1.47134E-008	0.00000E+000	7.80000E-001	8.00223E-005	4	..........a	-327.66
	2776	0.5554	7.69870E-001	1.47594E-008	0.00000E+000	7.70000E-001	8.00223E-005	4	..........a	-327.66
	2777	0.5556	7.59769E-001	1.47784E-008	0.00000E+000	7.60000E-001	8.00223E-005	4	..........a	-327.66
	2778	0.5558	7.49770E-001	1.47764E-008	0.00000E+000	7.50000E-001	8.00223E-005	4	..........a	-327.66
	2779	0.556	7.39670E-001	1.47514E-008	0.00000E+000	7.40000E-001	-3.19978E-004	4	..........a	-327.66
	2780	0.5562	7.29769E-001	1.47124E-008	0.00000E+000	7.30000E-001	8.00223E-005	4	..........a	-327.66
	2781	0.5564	7.19769E-001	1.46634E-008	0.00000E+000	7.20000E-001	8.00223E-005	4	..........a	-327.66
	2782	0.5566	7.09769E-001	1.45973E-008	0.00000E+000	7.10000E-001	8.00223E-005	4	..........a	-327.66
	2783	0.5568	6.99769E-001	1.45243E-008	0.00000E+000	7.00000E-001	8.00223E-005	4	..........a	-327.66
	2784	0.557	6.89770E-001	1.44453E-008	0.00000E+000	6.90000E-001	8.00223E-005	4	..........a	-327.66
	2785	0.5572	6.79869E-001	1.43553E-008	0.00000E+000	6.80000E-001	8.00223E-005	4	..........a	-327.66
	2786	0.5574	6.69869E-001	1.42613E-008	0.00000E+000	6.70000E-001	8.00223E-005	4	..........a	-327.66
	2787	0.5576	6.59869E-001	1.41563E-008	0.00000E+000	6.60000E-001	8.00223E-005	4	..........a	-327.66
	2788	0.5578	6.49870E-001	1.40443E-008	0.00000E+000	6.50000E-001	8.00223E-005	4	..........a	-327.66
	2789	0.558	6.39870E-001	1.39383E-008	0.00000E+000	6.40000E-001	8.00223E-005	4	..........a	-327.66
	2790	0.5582	6.29969E-001	1.38203E-008	0.00000E+000	6.30000E-001	8.00223E-005	4	..........a	-327.66
	2791	0.5584	6.19769E-001	1.36953E-008	0.00000E+000	6.20000E-001	8.00223E-005	4	..........a	-327.66
	2792	0.5586	6.09769E-001	1.35663E-008	0.00000E+000	6.10000E-001	-4.19978E-004	4	..........a	-327.66
	2793	0.5588	5.99970E-001	1.34403E-008	0.00000E+000	6.00000E-001	-1.19978E-004	4	..........a	-327.66
	2794	0.559	5.89969E-001	1.32963E-008	0.00000E+000	5.90000E-001	8.00223E-005	4	..........a	-327.66
	2795	0.5592	5.79769E-001	1.31563E-008	0.00000E+000	5.80000E-001	8.00223E-005	4	..........a	-327.66
	2796	0.5594	5.70069E-001	1.30143E-008	0.00000E+000	5.70000E-001	8.00223E-005	4	..........a	-327.66
	2797	0.5596	5.59969E-001	1.28603E-008	0.00000E+000	5.60000E-001	8.00223E-005	4	..........a	-327.66
	2798	0.5598	5.49869E-001	1.27063E-008	0.00000E+000	5.50000E-001	8.00223E-005	4	..........a	-327.66