File: example_project/raw_outputs/20240424_P_GM0016_HL03_E04_CV50K.DTA
EXPLAIN
TAG	CV
TITLE	LABEL	Cyclic Voltammetry	Test &Identifier
DATE	LABEL	4/24/2024	Date
TIME	LABEL	17:38:59	Time
NOTES	NOTES	1	&Notes...

PSTAT	PSTAT	REF600P-43058	Potentiostat
VINIT	POTEN	0.00000E+000	T	Initial &E (V)
VLIMIT1	POTEN	-6.00000E-001	F	Scan Limit &1 (V)
VLIMIT2	POTEN	8.00000E-001	F	Scan Limit &2 (V)
VFINAL	POTEN	0.00000E+000	T	Final &E (V)
SCANRATE	QUANT	4.99999E+004	&Scan Rate (mV/s)
STEPSIZE	QUANT	1.00000E+001	St&ep Size (mV)
CYCLES	IQUANT	10	C&ycles (#)
IMODE	SELECTOR	0	I/E Range &Mode
IRANGE	QUANT	1.00000E-005	&Max Current (mA)
AREA	QUANT	1.00000E+000	Electrode &Area (cm^2)
ELECTRODETYPE	SELECTOR	0	Electrode Type
STRIPPING	TOGGLE	F	Used for Stripping
POLARITY	TOGGLE	F	Signal Polarity
CONDIT	TWOPARAM	F	1.50000E+001	0.00000E+000	Conditionin&g	Time(s)	E(V)
DELAY	TWOPARAM	T	1.00000E+001	0.00000E+000	Init. De&lay	Time(s)	Stab.(mV/s)
EQDELAY	QUANT	1.00000E+001	Equil. &Time (s)
IRCOMP	SELECTOR	0	IRCom&p
PFCOR	QUANT	5.00000E+001	PF Corr. (ohm)
SAMPLINGMODE	SELECTOR	1	Sampling &Mode
OCVCURVE	TABLE	39
	Pt	T	Vf	Vm	Ach	Over	Temp
	#	s	V vs. Ref.	V	V	bits	deg C
	0	0.258333	-9.81252E-002	-9.81252E-002	2.14792E-004	..........a	-327.66
	1	0.516667	-9.81308E-002	-9.84170E-002	2.15459E-004	..........a	-327.66
	2	0.775	-9.81653E-002	-9.87107E-002	2.11192E-004	..........a	-327.66
	3	1.03333	-9.82643E-002	-9.89974E-002	2.20859E-004	..........a	-327.66
	4	1.29167	-9.84439E-002	-9.92800E-002	2.14859E-004	..........a	-327.66
	5	1.55	-9.86873E-002	-9.95547E-002	2.16259E-004	..........a	-327.66
	6	1.80833	-9.89630E-002	-9.98310E-002	2.14126E-004	..........a	-327.66
	7	2.06667	-9.92473E-002	-1.00100E-001	2.15059E-004	..........a	-327.66
	8	2.325	-9.95289E-002	-1.00359E-001	2.07926E-004	..........a	-327.66
	9	2.58333	-9.98045E-002	-1.00627E-001	2.06192E-004	..........a	-327.66
	10	2.84167	-1.00075E-001	-1.00882E-001	2.14526E-004	..........a	-327.66
	11	3.1	-1.00340E-001	-1.01141E-001	2.18659E-004	..........a	-327.66
	12	3.35833	-1.00602E-001	-1.01388E-001	2.12059E-004	..........a	-327.66
	13	3.61667	-1.00861E-001	-1.01632E-001	2.08926E-004	..........a	-327.66
	14	3.875	-1.01115E-001	-1.01878E-001	2.11592E-004	..........a	-327.66
	15	4.13333	-1.01366E-001	-1.02120E-001	2.11059E-004	..........a	-327.66
	16	4.39167	-1.01613E-001	-1.02363E-001	2.19459E-004	..........a	-327.66
	17	4.65	-1.01857E-001	-1.02591E-001	2.22259E-004	..........a	-327.66
	18	4.90833	-1.02098E-001	-1.02764E-001	2.17592E-004	..........a	-327.66
	19	5.16667	-1.02329E-001	-1.02902E-001	2.19926E-004	..........a	-327.66
	20	5.425	-1.02540E-001	-1.03028E-001	2.04859E-004	..........a	-327.66
	21	5.68333	-1.02722E-001	-1.03138E-001	2.25259E-004	..........a	-327.66
	22	5.94167	-1.02877E-001	-1.03249E-001	2.06326E-004	..........a	-327.66
	23	6.2	-1.03010E-001	-1.03369E-001	2.10592E-004	..........a	-327.66
	24	6.45833	-1.03130E-001	-1.03474E-001	2.25326E-004	..........a	-327.66
	25	6.71667	-1.03245E-001	-1.03609E-001	2.15859E-004	..........a	-327.66
	26	6.975	-1.03359E-001	-1.03732E-001	2.11926E-004	..........a	-327.66
	27	7.23333	-1.03477E-001	-1.03858E-001	2.17059E-004	..........a	-327.66
	28	7.49167	-1.03598E-001	-1.03992E-001	2.09592E-004	..........a	-327.66
	29	7.75	-1.03723E-001	-1.04124E-001	2.04592E-004	..........a	-327.66
	30	8.00833	-1.03852E-001	-1.04263E-001	2.20726E-004	..........a	-327.66
	31	8.26667	-1.03983E-001	-1.04405E-001	2.12459E-004	..........a	-327.66
	32	8.525	-1.04117E-001	-1.04551E-001	2.04926E-004	..........a	-327.66
	33	8.78333	-1.04255E-001	-1.04697E-001	2.04526E-004	..........a	-327.66
	34	9.04167	-1.04397E-001	-1.04851E-001	2.09992E-004	..........a	-327.66
	35	9.3	-1.04541E-001	-1.05011E-001	1.98592E-004	..........a	-327.66
	36	9.5583	-1.04690E-001	-1.05170E-001	2.10259E-004	..........a	-327.66
	37	9.8167	-1.04843E-001	-1.05334E-001	2.11059E-004	..........a	-327.66
	38	10.075	-1.05000E-001	-1.05504E-001	2.05659E-004	..........a	-327.66
EOC	QUANT	-0.1050001	Open Circuit (V)
PSTATMODEL	IQUANT	7	Pstat Model
PSTATSECTION	LABEL	REF600P-43058	Pstat Section
PSTATSERIALNO	LABEL	43058	Pstat Serial Number
CTRLMODE	IQUANT	1	Control Mode
ELECTROMETER	IQUANT	0	RE=0 or CS=1
IESTAB	IQUANT	2	I/E Stability
CASPEED	IQUANT	4	Control Amp Speed
CONVENTION	IQUANT	1	Current Convention
ICHRANGE	IQUANT	2	Ich Range
ICHRANGEMODE	TOGGLE	F	Ich Auto Range
ICHOFFSETENABLE	TOGGLE	F	Ich Offset Enable
ICHOFFSET	QUANT	0	Ich Offset (V)
ICHFILTER	IQUANT	1	Ich Filter
VCHRANGE	IQUANT	2	Vch Range
VCHRANGEMODE	TOGGLE	F	Vch Auto Range
VCHOFFSETENABLE	TOGGLE	F	Vch Offset Enable
VCHOFFSET	QUANT	0	Vch Offset (V)
VCHFILTER	IQUANT	1	Vch Filter
ACHRANGE	IQUANT	2	Ach Range
ACHOFFSETENABLE	TOGGLE	F	Ach Offset Enable
ACHOFFSET	QUANT	0	Ach Offset (V)
ACHFILTER	IQUANT	1	Ach Filter
IERANGELOWERLIMIT	IQUANT	1	I/E Range Lower Limit
IERANGEMODE	TOGGLE	T	I/E AutoRange
IERANGE	IQUANT	4	I/E Range
POSFEEDENABLE	TOGGLE	F	Positive Feedback IR Comp
POSFEEDRESISTANCE	QUANT	0	Positive Feedback Resistance (ohm)
ACHSELECT	IQUANT	4	Ach Select
SENSECABLEID	IQUANT	7	Sense Cable ID
PWRCABLEID	IQUANT	7	Power Cable ID
DCCALDATE	LABEL	3/22/2024	DC Calibration Date
ACCALDATE	LABEL	3/22/2024	AC Calibration Date
THERMOSELECT	IQUANT	1	Thermo Select
FRAMEWORKVERSION	LABEL	7.8.4	Framework Version
INSTRUMENTVERSION	LABEL	4.42	Instrument Version
CURVE1	TABLE
	Pt	T	Vf	Im	Vu	Sig	Ach	IERange	Over	Temp
	#	s	V vs. Ref.	A	V	V	V	#	bits	deg C
	0	0.0002	-1.05153E-001	3.05004E-007	0.00000E+000	-1.05000E-001	-2.18408E-004	8	..........a	-327.66
	1	0.0004	-1.14953E-001	-6.85034E-007	0.00000E+000	-1.15000E-001	8.15923E-005	8	..........a	-327.66
	2	0.0006	-1.24953E-001	-1.35506E-006	0.00000E+000	-1.25000E-001	8.15923E-005	8	..........a	-327.66
	3	0.0008	-1.35003E-001	-1.92508E-006	0.00000E+000	-1.35000E-001	8.15923E-005	8	..........a	-327.66
	4	0.001	-1.45253E-001	-2.43510E-006	0.00000E+000	-1.45000E-001	8.15923E-005	8	..........a	-327.66
	5	0.0012	-1.55153E-001	-2.91512E-006	0.00000E+000	-1.55000E-001	-1.18408E-004	8	..........a	-327.66
	6	0.0014	-1.65153E-001	-3.23513E-006	0.00000E+000	-1.65000E-001	8.15923E-005	8	..........a	-327.66
	7	0.0016	-1.74953E-001	-3.53514E-006	0.00000E+000	-1.75000E-001	-1.18408E-004	8	..........a	-327.66
	8	0.0018	-1.85053E-001	-3.83515E-006	0.00000E+000	-1.85000E-001	8.15923E-005	8	..........a	-327.66
	9	0.002	-1.94853E-001	-4.03516E-006	0.00000E+000	-1.95000E-001	8.15923E-005	8	..........a	-327.66
	10	0.0022	-2.04853E-001	-4.25517E-006	0.00000E+000	-2.05000E-001	8.15923E-005	8	..........a	-327.66
	11	0.0024	-2.14853E-001	-4.53518E-006	0.00000E+000	-2.15000E-001	8.15923E-005	8	..........a	-327.66
	12	0.0026	-2.24953E-001	-4.71519E-006	0.00000E+000	-2.25000E-001	8.15923E-005	8	..........a	-327.66
	13	0.0028	-2.34903E-001	-4.86519E-006	0.00000E+000	-2.35000E-001	8.15923E-005	8	..........a	-327.66
	14	0.003	-2.44853E-001	-5.09520E-006	0.00000E+000	-2.45000E-001	8.15923E-005	8	..........a	-327.66
	15	0.0032	-2.54953E-001	-5.24521E-006	0.00000E+000	-2.55000E-001	8.15923E-005	8	..........a	-327.66
	16	0.0034	-2.65053E-001	-5.35521E-006	0.00000E+000	-2.65000E-001	-3.18408E-004	8	..........a	-327.66
	17	0.0036	-2.74853E-001	-5.51522E-006	0.00000E+000	-2.75000E-001	8.15923E-005	8	..........a	-327.66
	18	0.0038	-2.84853E-001	-5.66522E-006	0.00000E+000	-2.85000E-001	8.15923E-005	8	..........a	-327.66
	19	0.004	-2.94803E-001	-5.82523E-006	0.00000E+000	-2.95000E-001	8.15923E-005	8	..........a	-327.66
	20	0.0042	-3.04853E-001	-5.95524E-006	0.00000E+000	-3.05000E-001	8.15923E-005	8	..........a	-327.66
	21	0.0044	-3.15053E-001	-6.06524E-006	0.00000E+000	-3.15000E-001	8.15923E-005	8	..........a	-327.66
	22	0.0046	-3.25053E-001	-6.20525E-006	0.00000E+000	-3.25000E-001	-6.18408E-004	8	..........a	-327.66
	23	0.0048	-3.34953E-001	-6.33525E-006	0.00000E+000	-3.35000E-001	8.15923E-005	8	..........a	-327.66
	24	0.005	-3.44803E-001	-6.45526E-006	0.00000E+000	-3.45000E-001	8.15923E-005	8	..........a	-327.66
	25	0.0052	-3.54853E-001	-6.59526E-006	0.00000E+000	-3.55000E-001	8.15923E-005	8	..........a	-327.66
	26	0.0054	-3.65053E-001	-6.66526E-006	0.00000E+000	-3.65000E-001	8.15923E-005	8	..........a	-327.66
	27	0.0056	-3.74853E-001	-6.83527E-006	0.00000E+000	-3.75000E-001	-3.18408E-004	8	..........a	-327.66
	28	0.0058	-3.84953E-001	-6.92527E-006	0.00000E+000	-3.85000E-001	8.15923E-005	8	..........a	-327.66
	29	0.006	-3.94753E-001	-7.07528E-006	0.00000E+000	-3.95000E-001	8.15923E-005	8	..........a	-327.66
	30	0.0062	-4.04953E-001	-7.16528E-006	0.00000E+000	-4.05000E-001	8.15923E-005	8	..........a	-327.66
	31	0.0064	-4.14853E-001	-7.32529E-006	0.00000E+000	-4.15000E-001	8.15923E-005	8	..........a	-327.66
	32	0.0066	-4.24753E-001	-7.41529E-006	0.00000E+000	-4.25000E-001	8.15923E-005	8	..........a	-327.66
	33	0.0068	-4.34853E-001	-7.55530E-006	0.00000E+000	-4.35000E-001	8.15923E-005	8	..........a	-327.66
	34	0.007	-4.45003E-001	-7.66530E-006	0.00000E+000	-4.45000E-001	8.15923E-005	8	..........a	-327.66
	35	0.0072	-4.54953E-001	-7.79531E-006	0.00000E+000	-4.55000E-001	8.15923E-005	8	..........a	-327.66
	36	0.0074	-4.64753E-001	-7.97531E-006	0.00000E+000	-4.65000E-001	8.15923E-005	8	..........a	-327.66
	37	0.0076	-4.74853E-001	-8.05532E-006	0.00000E+000	-4.75000E-001	8.15923E-005	8	..........a	-327.66
	38	0.0078	-4.84753E-001	-8.16532E-006	0.00000E+000	-4.85000E-001	8.15923E-005	8	..........a	-327.66
	39	0.008	-4.94853E-001	-8.31533E-006	0.00000E+000	-4.95000E-001	8.15923E-005	8	..........a	-327.66
	40	0.0082	-5.04853E-001	-8.45533E-006	0.00000E+000	-5.05000E-001	8.15923E-005	8	..........a	-327.66
	41	0.0084	-5.14853E-001	-8.58534E-006	0.00000E+000	-5.15000E-001	8.15923E-005	8	..........a	-327.66
	42	0.0086	-5.24803E-001	-8.64534E-006	0.00000E+000	-5.25000E-001	8.15923E-005	8	..........a	-327.66
	43	0.0088	-5.34853E-001	-8.84535E-006	0.00000E+000	-5.35000E-001	8.15923E-005	8	..........a	-327.66
	44	0.009	-5.44953E-001	-8.97535E-006	0.00000E+000	-5.45000E-001	8.15923E-005	8	..........a	-327.66
	45	0.0092	-5.54753E-001	-9.09536E-006	0.00000E+000	-5.55000E-001	8.15923E-005	8	..........a	-327.66
	46	0.0094	-5.64953E-001	-9.23536E-006	0.00000E+000	-5.65000E-001	8.15923E-005	8	..........a	-327.66
	47	0.0096	-5.74753E-001	-9.32536E-006	0.00000E+000	-5.75000E-001	8.15923E-005	8	..........a	-327.66
	48	0.0098	-5.84953E-001	-9.46537E-006	0.00000E+000	-5.85000E-001	8.15923E-005	8	..........a	-327.66
	49	0.01	-5.94853E-001	-9.60538E-006	0.00000E+000	-5.95000E-001	8.15923E-005	8	..........a	-327.66
	50	0.0102	-5.85053E-001	-7.89531E-006	0.00000E+000	-5.85000E-001	8.15923E-005	8	..........a	-327.66
	51	0.0104	-5.74753E-001	-6.47526E-006	0.00000E+000	-5.75000E-001	8.15923E-005	8	..........a	-327.66
	52	0.0106	-5.64853E-001	-5.36521E-006	0.00000E+000	-5.65000E-001	8.15923E-005	8	..........a	-327.66
	53	0.0108	-5.54853E-001	-4.39518E-006	0.00000E+000	-5.55000E-001	8.15923E-005	8	..........a	-327.66
	54	0.011	-5.45153E-001	-3.49514E-006	0.00000E+000	-5.45000E-001	8.15923E-005	8	..........a	-327.66
	55	0.0112	-5.34753E-001	-2.66511E-006	0.00000E+000	-5.35000E-001	8.15923E-005	8	..........a	-327.66
	56	0.0114	-5.24953E-001	-1.96508E-006	0.00000E+000	-5.25000E-001	8.15923E-005	8	..........a	-327.66
	57	0.0116	-5.15153E-001	-1.34506E-006	0.00000E+000	-5.15000E-001	8.15923E-005	8	..........a	-327.66
	58	0.0118	-5.04853E-001	-7.05035E-007	0.00000E+000	-5.05000E-001	8.15923E-005	8	..........a	-327.66
	59	0.012	-4.94853E-001	-1.65014E-007	0.00000E+000	-4.95000E-001	8.15923E-005	8	..........a	-327.66
	60	0.0122	-4.84853E-001	3.45005E-007	0.00000E+000	-4.85000E-001	8.15923E-005	8	..........a	-327.66
	61	0.0124	-4.74953E-001	8.65025E-007	0.00000E+000	-4.75000E-001	8.15923E-005	8	..........a	-327.66
	62	0.0126	-4.65053E-001	1.24504E-006	0.00000E+000	-4.65000E-001	8.15923E-005	8	..........a	-327.66
	63	0.0128	-4.54853E-001	1.69506E-006	0.00000E+000	-4.55000E-001	8.15923E-005	8	..........a	-327.66
	64	0.013	-4.45153E-001	2.07507E-006	0.00000E+000	-4.45000E-001	8.15923E-005	8	..........a	-327.66
	65	0.0132	-4.34953E-001	2.41508E-006	0.00000E+000	-4.35000E-001	8.15923E-005	8	..........a	-327.66
	66	0.0134	-4.24853E-001	2.76510E-006	0.00000E+000	-4.25000E-001	8.15923E-005	8	..........a	-327.66
	67	0.0136	-4.14953E-001	3.06511E-006	0.00000E+000	-4.15000E-001	8.15923E-005	8	..........a	-327.66
	68	0.0138	-4.05053E-001	3.32512E-006	0.00000E+000	-4.05000E-001	-3.18408E-004	8	..........a	-327.66
	69	0.014	-3.94953E-001	3.62513E-006	0.00000E+000	-3.95000E-001	-3.18408E-004	8	..........a	-327.66
	70	0.0142	-3.84953E-001	3.87514E-006	0.00000E+000	-3.85000E-001	-3.18408E-004	8	..........a	-327.66
	71	0.0144	-3.74853E-001	4.13515E-006	0.00000E+000	-3.75000E-001	8.15923E-005	8	..........a	-327.66
	72	0.0146	-3.64953E-001	4.35516E-006	0.00000E+000	-3.65000E-001	8.15923E-005	8	..........a	-327.66
	73	0.0148	-3.55053E-001	4.53517E-006	0.00000E+000	-3.55000E-001	8.15923E-005	8	..........a	-327.66
	74	0.015	-3.44853E-001	4.74517E-006	0.00000E+000	-3.45000E-001	8.15923E-005	8	..........a	-327.66
	75	0.0152	-3.34953E-001	4.95518E-006	0.00000E+000	-3.35000E-001	8.15923E-005	8	..........a	-327.66
	76	0.0154	-3.24953E-001	5.13519E-006	0.00000E+000	-3.25000E-001	8.15923E-005	8	..........a	-327.66
	77	0.0156	-3.14953E-001	5.26519E-006	0.00000E+000	-3.15000E-001	8.15923E-005	8	..........a	-327.66
	78	0.0158	-3.04953E-001	5.40520E-006	0.00000E+000	-3.05000E-001	8.15923E-005	8	..........a	-327.66
	79	0.016	-2.94953E-001	5.60521E-006	0.00000E+000	-2.95000E-001	8.15923E-005	8	..........a	-327.66
	80	0.0162	-2.84903E-001	5.71521E-006	0.00000E+000	-2.85000E-001	8.15923E-005	8	..........a	-327.66
	81	0.0164	-2.74853E-001	5.87522E-006	0.00000E+000	-2.75000E-001	8.15923E-005	8	..........a	-327.66
	82	0.0166	-2.65153E-001	5.98522E-006	0.00000E+000	-2.65000E-001	8.15923E-005	8	..........a	-327.66
	83	0.0168	-2.55003E-001	6.10523E-006	0.00000E+000	-2.55000E-001	-3.18408E-004	8	..........a	-327.66
	84	0.017	-2.44853E-001	6.24523E-006	0.00000E+000	-2.45000E-001	8.15923E-005	8	..........a	-327.66
	85	0.0172	-2.35053E-001	6.33523E-006	0.00000E+000	-2.35000E-001	8.15923E-005	8	..........a	-327.66
	86	0.0174	-2.24653E-001	6.45524E-006	0.00000E+000	-2.25000E-001	-3.18408E-004	8	..........a	-327.66
	87	0.0176	-2.14853E-001	6.56524E-006	0.00000E+000	-2.15000E-001	8.15923E-005	8	..........a	-327.66
	88	0.0178	-2.04953E-001	6.71525E-006	0.00000E+000	-2.05000E-001	-3.18408E-004	8	..........a	-327.66
	89	0.018	-1.94953E-001	6.77525E-006	0.00000E+000	-1.95000E-001	-3.18408E-004	8	..........a	-327.66
	90	0.0182	-1.85153E-001	6.84525E-006	0.00000E+000	-1.85000E-001	8.15923E-005	8	..........a	-327.66
	91	0.0184	-1.74853E-001	6.97526E-006	0.00000E+000	-1.75000E-001	8.15923E-005	8	..........a	-327.66
	92	0.0186	-1.64753E-001	7.06526E-006	0.00000E+000	-1.65000E-001	8.15923E-005	8	..........a	-327.66
	93	0.0188	-1.54953E-001	7.15527E-006	0.00000E+000	-1.55000E-001	-2.18408E-004	8	..........a	-327.66
	94	0.019	-1.44953E-001	7.21527E-006	0.00000E+000	-1.45000E-001	8.15923E-005	8	..........a	-327.66
	95	0.0192	-1.35003E-001	7.30527E-006	0.00000E+000	-1.35000E-001	8.15923E-005	8	..........a	-327.66
	96	0.0194	-1.25003E-001	7.39528E-006	0.00000E+000	-1.25000E-001	8.15923E-005	8	..........a	-327.66
	97	0.0196	-1.15053E-001	7.45528E-006	0.00000E+000	-1.15000E-001	8.15923E-005	8	..........a	-327.66
	98	0.0198	-1.04953E-001	7.51528E-006	0.00000E+000	-1.05000E-001	-2.18408E-004	8	..........a	-327.66
	99	0.02	-9.49529E-002	7.62528E-006	0.00000E+000	-9.50000E-002	8.15923E-005	8	..........a	-327.66
	100	0.0202	-8.50029E-002	7.68529E-006	0.00000E+000	-8.50000E-002	-3.18408E-004	8	..........a	-327.66
	101	0.0204	-7.50529E-002	7.73529E-006	0.00000E+000	-7.50000E-002	8.15923E-005	8	..........a	-327.66
	102	0.0206	-6.51529E-002	7.79529E-006	0.00000E+000	-6.50000E-002	8.15923E-005	8	..........a	-327.66
	103	0.0208	-5.49529E-002	7.88529E-006	0.00000E+000	-5.50000E-002	8.15923E-005	8	..........a	-327.66
	104	0.021	-4.50529E-002	7.96530E-006	0.00000E+000	-4.50000E-002	8.15923E-005	8	..........a	-327.66
	105	0.0212	-3.49029E-002	7.99530E-006	0.00000E+000	-3.50000E-002	8.15923E-005	8	..........a	-327.66
	106	0.0214	-2.49529E-002	8.08530E-006	0.00000E+000	-2.50000E-002	8.15923E-005	8	..........a	-327.66
	107	0.0216	-1.49529E-002	8.20531E-006	0.00000E+000	-1.50000E-002	8.15923E-005	8	..........a	-327.66
	108	0.0218	-5.15289E-003	8.24531E-006	0.00000E+000	-5.00000E-003	8.15923E-005	8	..........a	-327.66
	109	0.022	5.14711E-003	8.35531E-006	0.00000E+000	5.00000E-003	8.15923E-005	8	..........a	-327.66
	110	0.0222	1.51471E-002	8.42531E-006	0.00000E+000	1.50000E-002	8.15923E-005	8	..........a	-327.66
	111	0.0224	2.49971E-002	8.49532E-006	0.00000E+000	2.50000E-002	8.15923E-005	8	..........a	-327.66
	112	0.0226	3.50471E-002	8.60532E-006	0.00000E+000	3.50000E-002	8.15923E-005	8	..........a	-327.66
	113	0.0228	4.49971E-002	8.69533E-006	0.00000E+000	4.50000E-002	8.15923E-005	8	..........a	-327.66
	114	0.023	5.49471E-002	8.81533E-006	0.00000E+000	5.50000E-002	8.15923E-005	8	..........a	-327.66
	115	0.0232	6.51471E-002	8.90533E-006	0.00000E+000	6.50000E-002	8.15923E-005	8	..........a	-327.66
	116	0.0234	7.49971E-002	9.01534E-006	0.00000E+000	7.50000E-002	8.15923E-005	8	..........a	-327.66
	117	0.0236	8.50471E-002	9.12534E-006	0.00000E+000	8.50000E-002	8.15923E-005	8	..........a	-327.66
	118	0.0238	9.49471E-002	9.25535E-006	0.00000E+000	9.50000E-002	8.15923E-005	8	..........a	-327.66
	119	0.024	1.04997E-001	9.33535E-006	0.00000E+000	1.05000E-001	8.15923E-005	8	..........a	-327.66
	120	0.0242	1.15047E-001	9.49536E-006	0.00000E+000	1.15000E-001	-2.18408E-004	8	..........a	-327.66
	121	0.0244	1.24997E-001	9.62536E-006	0.00000E+000	1.25000E-001	8.15923E-005	8	..........a	-327.66
	122	0.0246	1.35047E-001	9.78537E-006	0.00000E+000	1.35000E-001	8.15923E-005	8	..........a	-327.66
	123	0.0248	1.44997E-001	9.94537E-006	0.00000E+000	1.45000E-001	-3.18408E-004	8	..........a	-327.66
	124	0.025	1.55147E-001	1.01154E-005	0.00000E+000	1.55000E-001	8.15923E-005	8	..........a	-327.66
	125	0.0252	1.65047E-001	1.02654E-005	0.00000E+000	1.65000E-001	8.15923E-005	8	..........a	-327.66
	126	0.0254	1.74947E-001	1.04954E-005	0.00000E+000	1.75000E-001	8.15923E-005	8	..........a	-327.66
	127	0.0256	1.85047E-001	1.06054E-005	0.00000E+000	1.85000E-001	8.15923E-005	8	..........a	-327.66
	128	0.0258	1.95047E-001	1.08254E-005	0.00000E+000	1.95000E-001	8.15923E-005	8	..........a	-327.66
	129	0.026	2.05047E-001	1.10354E-005	0.00000E+000	2.05000E-001	-3.18408E-004	8	..........a	-327.66
	130	0.0262	2.14847E-001	1.11854E-005	0.00000E+000	2.15000E-001	8.15923E-005	8	..........a	-327.66
	131	0.0264	2.24997E-001	1.14054E-005	0.00000E+000	2.25000E-001	8.15923E-005	8	..........a	-327.66
	132	0.0266	2.35047E-001	1.15954E-005	0.00000E+000	2.35000E-001	8.15923E-005	8	..........a	-327.66
	133	0.0268	2.44847E-001	1.18754E-005	0.00000E+000	2.45000E-001	8.15923E-005	8	..........a	-327.66
	134	0.027	2.55047E-001	1.20555E-005	0.00000E+000	2.55000E-001	8.15923E-005	8	..........a	-327.66
	135	0.0272	2.64947E-001	1.22055E-005	0.00000E+000	2.65000E-001	8.15923E-005	8	..........a	-327.66
	136	0.0274	2.75047E-001	1.24355E-005	0.00000E+000	2.75000E-001	-3.18408E-004	8	..........a	-327.66
	137	0.0276	2.84847E-001	1.26655E-005	0.00000E+000	2.85000E-001	8.15923E-005	8	..........a	-327.66
	138	0.0278	2.94997E-001	1.29055E-005	0.00000E+000	2.95000E-001	-2.18408E-004	8	..........a	-327.66
	139	0.028	3.04997E-001	1.31455E-005	0.00000E+000	3.05000E-001	8.15923E-005	8	..........a	-327.66
	140	0.0282	3.14847E-001	1.33455E-005	0.00000E+000	3.15000E-001	8.15923E-005	8	..........a	-327.66
	141	0.0284	3.24947E-001	1.35655E-005	0.00000E+000	3.25000E-001	8.15923E-005	8	..........a	-327.66
	142	0.0286	3.34847E-001	1.38055E-005	0.00000E+000	3.35000E-001	8.15923E-005	8	..........a	-327.66
	143	0.0288	3.45147E-001	1.39955E-005	0.00000E+000	3.45000E-001	8.15923E-005	8	..........a	-327.66
	144	0.029	3.54947E-001	1.42155E-005	0.00000E+000	3.55000E-001	8.15923E-005	8	..........a	-327.66
	145	0.0292	3.64847E-001	1.44855E-005	0.00000E+000	3.65000E-001	8.15923E-005	8	..........a	-327.66
	146	0.0294	3.75247E-001	1.47456E-005	0.00000E+000	3.75000E-001	8.15923E-005	8	..........a	-327.66
	147	0.0296	3.84947E-001	1.49856E-005	0.00000E+000	3.85000E-001	8.15923E-005	8	..........a	-327.66
	148	0.0298	3.94947E-001	1.52356E-005	0.00000E+000	3.95000E-001	8.15923E-005	8	..........a	-327.66
	149	0.03	4.05047E-001	1.54856E-005	0.00000E+000	4.05000E-001	8.15923E-005	8	..........a	-327.66
	150	0.0302	4.14947E-001	1.57656E-005	0.00000E+000	4.15000E-001	8.15923E-005	8	..........a	-327.66
	151	0.0304	4.24647E-001	1.60256E-005	0.00000E+000	4.25000E-001	8.15923E-005	8	..........a	-327.66
	152	0.0306	4.34947E-001	1.62156E-005	0.00000E+000	4.35000E-001	-2.18408E-004	8	..........a	-327.66
	153	0.0308	4.44947E-001	1.65256E-005	0.00000E+000	4.45000E-001	8.15923E-005	8	..........a	-327.66
	154	0.031	4.54947E-001	1.68156E-005	0.00000E+000	4.55000E-001	8.15923E-005	8	..........a	-327.66
	155	0.0312	4.64947E-001	1.70756E-005	0.00000E+000	4.65000E-001	8.15923E-005	8	..........a	-327.66
	156	0.0314	4.75047E-001	1.74357E-005	0.00000E+000	4.75000E-001	-3.18408E-004	8	..........a	-327.66
	157	0.0316	4.84997E-001	1.75957E-005	0.00000E+000	4.85000E-001	8.15923E-005	8	..........a	-327.66
	158	0.0318	4.94947E-001	1.78757E-005	0.00000E+000	4.95000E-001	-3.18408E-004	8	..........a	-327.66
	159	0.032	5.05047E-001	1.80657E-005	0.00000E+000	5.05000E-001	8.15923E-005	8	..........a	-327.66
	160	0.0322	5.14997E-001	1.82257E-005	0.00000E+000	5.15000E-001	8.15923E-005	8	..........a	-327.66
	161	0.0324	5.25047E-001	1.83257E-005	0.00000E+000	5.25000E-001	-3.18408E-004	8	..........a	-327.66
	162	0.0326	5.34947E-001	1.83757E-005	0.00000E+000	5.35000E-001	8.15923E-005	8	..........a	-327.66
	163	0.0328	5.45147E-001	1.84457E-005	0.00000E+000	5.45000E-001	8.15923E-005	8	..........a	-327.66
	164	0.033	5.54947E-001	1.84657E-005	0.00000E+000	5.55000E-001	8.15923E-005	8	..........a	-327.66
	165	0.0332	5.64947E-001	1.85357E-005	0.00000E+000	5.65000E-001	8.15923E-005	8	..........a	-327.66
	166	0.0334	5.74897E-001	1.86357E-005	0.00000E+000	5.75000E-001	8.15923E-005	8	..........a	-327.66
	167	0.0336	5.85047E-001	1.87057E-005	0.00000E+000	5.85000E-001	8.15923E-005	8	..........a	-327.66
	168	0.0338	5.94847E-001	1.88057E-005	0.00000E+000	5.95000E-001	8.15923E-005	8	..........a	-327.66
	169	0.034	6.05047E-001	1.89057E-005	0.00000E+000	6.05000E-001	8.15923E-005	8	..........a	-327.66
	170	0.0342	6.14747E-001	1.89757E-005	0.00000E+000	6.15000E-001	8.15923E-005	8	..........a	-327.66
	171	0.0344	6.25047E-001	1.91057E-005	0.00000E+000	6.25000E-001	8.15923E-005	8	..........a	-327.66
	172	0.0346	6.34947E-001	1.92357E-005	0.00000E+000	6.35000E-001	8.15923E-005	8	..........a	-327.66
	173	0.0348	6.44947E-001	1.93157E-005	0.00000E+000	6.45000E-001	8.15923E-005	8	..........a	-327.66
	174	0.035	6.54847E-001	1.94357E-005	0.00000E+000	6.55000E-001	8.15923E-005	8	..........a	-327.66
	175	0.0352	6.64997E-001	1.95357E-005	0.00000E+000	6.65000E-001	8.15923E-005	8	..........a	-327.66
	176	0.0354	6.74847E-001	1.96457E-005	0.00000E+000	6.75000E-001	8.15923E-005	8	..........a	-327.66
	177	0.0356	6.84947E-001	1.97557E-005	0.00000E+000	6.85000E-001	8.15923E-005	8	..........a	-327.66
	178	0.0358	6.94847E-001	1.98358E-005	0.00000E+000	6.95000E-001	-3.18408E-004	8	..........a	-327.66
	179	0.036	7.04997E-001	1.99858E-005	0.00000E+000	7.05000E-001	8.15923E-005	8	..........a	-327.66
	180	0.0362	7.14847E-001	2.00258E-005	0.00000E+000	7.15000E-001	8.15923E-005	8	..........a	-327.66
	181	0.0364	7.24947E-001	2.00858E-005	0.00000E+000	7.25000E-001	8.15923E-005	8	..........a	-327.66
	182	0.0366	7.34847E-001	2.01958E-005	0.00000E+000	7.35000E-001	8.15923E-005	8	..........a	-327.66
	183	0.0368	7.45047E-001	2.02758E-005	0.00000E+000	7.45000E-001	8.15923E-005	8	..........a	-327.66
	184	0.037	7.54947E-001	2.03258E-005	0.00000E+000	7.55000E-001	8.15923E-005	8	..........a	-327.66
	185	0.0372	7.64847E-001	2.03558E-005	0.00000E+000	7.65000E-001	8.15923E-005	8	..........a	-327.66
	186	0.0374	7.74847E-001	2.04258E-005	0.00000E+000	7.75000E-001	8.15923E-005	8	..........a	-327.66
	187	0.0376	7.85047E-001	2.04958E-005	0.00000E+000	7.85000E-001	8.15923E-005	8	..........a	-327.66
	188	0.0378	7.94847E-001	2.05558E-005	0.00000E+000	7.95000E-001	8.15923E-005	8	..........a	-327.66
CURVE2	TABLE
	Pt	T	Vf	Im	Vu	Sig	Ach	IERange	Over	Temp
	#	s	V vs. Ref.	A	V	V	V	#	bits	deg C
	189	0.038	7.89947E-001	1.88557E-005	0.00000E+000	7.90000E-001	8.15923E-005	8	..........a	-327.66
	190	0.0382	7.79847E-001	1.69556E-005	0.00000E+000	7.80000E-001	8.15923E-005	8	..........a	-327.66
	191	0.0384	7.70047E-001	1.52756E-005	0.00000E+000	7.70000E-001	8.15923E-005	8	..........a	-327.66
	192	0.0386	7.60047E-001	1.38755E-005	0.00000E+000	7.60000E-001	8.15923E-005	8	..........a	-327.66
	193	0.0388	7.49847E-001	1.25655E-005	0.00000E+000	7.50000E-001	8.15923E-005	8	..........a	-327.66
	194	0.039	7.39847E-001	1.13554E-005	0.00000E+000	7.40000E-001	8.15923E-005	8	..........a	-327.66
	195	0.0392	7.30147E-001	1.02254E-005	0.00000E+000	7.30000E-001	8.15923E-005	8	..........a	-327.66
	196	0.0394	7.20047E-001	9.15534E-006	0.00000E+000	7.20000E-001	8.15923E-005	8	..........a	-327.66
	197	0.0396	7.09847E-001	8.19531E-006	0.00000E+000	7.10000E-001	-2.18408E-004	8	..........a	-327.66
	198	0.0398	6.99947E-001	7.28527E-006	0.00000E+000	7.00000E-001	8.15923E-005	8	..........a	-327.66
	199	0.04	6.89947E-001	6.43524E-006	0.00000E+000	6.90000E-001	8.15923E-005	8	..........a	-327.66
	200	0.0402	6.79947E-001	5.67521E-006	0.00000E+000	6.80000E-001	8.15923E-005	8	..........a	-327.66
	201	0.0404	6.69847E-001	4.88518E-006	0.00000E+000	6.70000E-001	8.15923E-005	8	..........a	-327.66
	202	0.0406	6.60147E-001	4.12515E-006	0.00000E+000	6.60000E-001	8.15923E-005	8	..........a	-327.66
	203	0.0408	6.50047E-001	3.48513E-006	0.00000E+000	6.50000E-001	8.15923E-005	8	..........a	-327.66
	204	0.041	6.39747E-001	2.81510E-006	0.00000E+000	6.40000E-001	8.15923E-005	8	..........a	-327.66
	205	0.0412	6.29947E-001	2.16507E-006	0.00000E+000	6.30000E-001	8.15923E-005	8	..........a	-327.66
	206	0.0414	6.19747E-001	1.60505E-006	0.00000E+000	6.20000E-001	8.15923E-005	8	..........a	-327.66
	207	0.0416	6.09847E-001	1.06503E-006	0.00000E+000	6.10000E-001	8.15923E-005	8	..........a	-327.66
	208	0.0418	6.00047E-001	5.05011E-007	0.00000E+000	6.00000E-001	8.15923E-005	8	..........a	-327.66
	209	0.042	5.89847E-001	-3.50093E-008	0.00000E+000	5.90000E-001	8.15923E-005	8	..........a	-327.66
	210	0.0422	5.79947E-001	-4.75026E-007	0.00000E+000	5.80000E-001	8.15923E-005	8	..........a	-327.66
	211	0.0424	5.69847E-001	-9.75045E-007	0.00000E+000	5.70000E-001	8.15923E-005	8	..........a	-327.66
	212	0.0426	5.59947E-001	-1.38506E-006	0.00000E+000	5.60000E-001	8.15923E-005	8	..........a	-327.66
	213	0.0428	5.50047E-001	-1.83508E-006	0.00000E+000	5.50000E-001	8.15923E-005	8	..........a	-327.66
	214	0.043	5.40097E-001	-2.27510E-006	0.00000E+000	5.40000E-001	8.15923E-005	8	..........a	-327.66
	215	0.0432	5.29847E-001	-2.64511E-006	0.00000E+000	5.30000E-001	8.15923E-005	8	..........a	-327.66
	216	0.0434	5.20147E-001	-3.04512E-006	0.00000E+000	5.20000E-001	8.15923E-005	8	..........a	-327.66
	217	0.0436	5.10047E-001	-3.41514E-006	0.00000E+000	5.10000E-001	8.15923E-005	8	..........a	-327.66
	218	0.0438	5.00147E-001	-3.87516E-006	0.00000E+000	5.00000E-001	8.15923E-005	8	..........a	-327.66
	219	0.044	4.89947E-001	-4.14517E-006	0.00000E+000	4.90000E-001	8.15923E-005	8	..........a	-327.66
	220	0.0442	4.80047E-001	-4.53518E-006	0.00000E+000	4.80000E-001	8.15923E-005	8	..........a	-327.66
	221	0.0444	4.69947E-001	-4.81519E-006	0.00000E+000	4.70000E-001	8.15923E-005	8	..........a	-327.66
	222	0.0446	4.60147E-001	-5.15521E-006	0.00000E+000	4.60000E-001	8.15923E-005	8	..........a	-327.66
	223	0.0448	4.50047E-001	-5.51522E-006	0.00000E+000	4.50000E-001	8.15923E-005	8	..........a	-327.66
	224	0.045	4.39947E-001	-5.81523E-006	0.00000E+000	4.40000E-001	8.15923E-005	8	..........a	-327.66
	225	0.0452	4.30047E-001	-6.12524E-006	0.00000E+000	4.30000E-001	8.15923E-005	8	..........a	-327.66
	226	0.0454	4.20047E-001	-6.40525E-006	0.00000E+000	4.20000E-001	8.15923E-005	8	..........a	-327.66
	227	0.0456	4.09847E-001	-6.72527E-006	0.00000E+000	4.10000E-001	8.15923E-005	8	..........a	-327.66
	228	0.0458	3.99847E-001	-7.02528E-006	0.00000E+000	4.00000E-001	8.15923E-005	8	..........a	-327.66
	229	0.046	3.90147E-001	-7.34529E-006	0.00000E+000	3.90000E-001	8.15923E-005	8	..........a	-327.66
	230	0.0462	3.80197E-001	-7.62530E-006	0.00000E+000	3.80000E-001	8.15923E-005	8	..........a	-327.66
	231	0.0464	3.69947E-001	-7.92531E-006	0.00000E+000	3.70000E-001	8.15923E-005	8	..........a	-327.66
	232	0.0466	3.60147E-001	-8.19532E-006	0.00000E+000	3.60000E-001	8.15923E-005	8	..........a	-327.66
	233	0.0468	3.49947E-001	-8.49533E-006	0.00000E+000	3.50000E-001	8.15923E-005	8	..........a	-327.66
	234	0.047	3.40147E-001	-8.75534E-006	0.00000E+000	3.40000E-001	8.15923E-005	8	..........a	-327.66
	235	0.0472	3.30247E-001	-9.04535E-006	0.00000E+000	3.30000E-001	8.15923E-005	8	..........a	-327.66
	236	0.0474	3.20147E-001	-9.39537E-006	0.00000E+000	3.20000E-001	8.15923E-005	8	..........a	-327.66
	237	0.0476	3.10147E-001	-9.63538E-006	0.00000E+000	3.10000E-001	8.15923E-005	8	..........a	-327.66
	238	0.0478	3.00047E-001	-9.91539E-006	0.00000E+000	3.00000E-001	8.15923E-005	8	..........a	-327.66
	239	0.048	2.89947E-001	-1.02654E-005	0.00000E+000	2.90000E-001	8.15923E-005	8	..........a	-327.66
	240	0.0482	2.79847E-001	-1.05754E-005	0.00000E+000	2.80000E-001	8.15923E-005	8	..........a	-327.66
	241	0.0484	2.70147E-001	-1.08654E-005	0.00000E+000	2.70000E-001	8.15923E-005	8	..........a	-327.66
	242	0.0486	2.60047E-001	-1.11754E-005	0.00000E+000	2.60000E-001	-2.18408E-004	8	..........a	-327.66
	243	0.0488	2.50047E-001	-1.15254E-005	0.00000E+000	2.50000E-001	-2.18408E-004	8	..........a	-327.66
	244	0.049	2.40047E-001	-1.18255E-005	0.00000E+000	2.40000E-001	8.15923E-005	8	..........a	-327.66
	245	0.0492	2.29947E-001	-1.21555E-005	0.00000E+000	2.30000E-001	8.15923E-005	8	..........a	-327.66
	246	0.0494	2.19947E-001	-1.24755E-005	0.00000E+000	2.20000E-001	8.15923E-005	8	..........a	-327.66
	247	0.0496	2.09947E-001	-1.28155E-005	0.00000E+000	2.10000E-001	8.15923E-005	8	..........a	-327.66
	248	0.0498	2.00247E-001	-1.30955E-005	0.00000E+000	2.00000E-001	8.15923E-005	8	..........a	-327.66
	249	0.05	1.90047E-001	-1.34155E-005	0.00000E+000	1.90000E-001	-1.18408E-004	8	..........a	-327.66
	250	0.0502	1.80047E-001	-1.35955E-005	0.00000E+000	1.80000E-001	8.15923E-005	8	..........a	-327.66
	251	0.0504	1.70047E-001	-1.38155E-005	0.00000E+000	1.70000E-001	-3.18408E-004	8	..........a	-327.66
	252	0.0506	1.59847E-001	-1.40055E-005	0.00000E+000	1.60000E-001	-2.18408E-004	8	..........a	-327.66
	253	0.0508	1.50147E-001	-1.41355E-005	0.00000E+000	1.50000E-001	8.15923E-005	8	..........a	-327.66
	254	0.051	1.40147E-001	-1.43756E-005	0.00000E+000	1.40000E-001	-2.18408E-004	8	..........a	-327.66
	255	0.0512	1.30047E-001	-1.44756E-005	0.00000E+000	1.30000E-001	8.15923E-005	8	..........a	-327.66
	256	0.0514	1.20147E-001	-1.46056E-005	0.00000E+000	1.20000E-001	-2.18408E-004	8	..........a	-327.66
	257	0.0516	1.10047E-001	-1.47656E-005	0.00000E+000	1.10000E-001	8.15923E-005	8	..........a	-327.66
	258	0.0518	1.00147E-001	-1.48756E-005	0.00000E+000	1.00000E-001	8.15923E-005	8	..........a	-327.66
	259	0.052	9.01471E-002	-1.49956E-005	0.00000E+000	9.00000E-002	8.15923E-005	8	..........a	-327.66
	260	0.0522	8.01471E-002	-1.51556E-005	0.00000E+000	8.00000E-002	8.15923E-005	8	..........a	-327.66
	261	0.0524	7.00471E-002	-1.52056E-005	0.00000E+000	7.00000E-002	8.15923E-005	8	..........a	-327.66
	262	0.0526	6.00971E-002	-1.52956E-005	0.00000E+000	6.00000E-002	8.15923E-005	8	..........a	-327.66
	263	0.0528	5.00471E-002	-1.54156E-005	0.00000E+000	5.00000E-002	8.15923E-005	8	..........a	-327.66
	264	0.053	3.98471E-002	-1.54756E-005	0.00000E+000	4.00000E-002	8.15923E-005	8	..........a	-327.66
	265	0.0532	2.99471E-002	-1.55356E-005	0.00000E+000	3.00000E-002	8.15923E-005	8	..........a	-327.66
	266	0.0534	2.01471E-002	-1.55556E-005	0.00000E+000	2.00000E-002	8.15923E-005	8	..........a	-327.66
	267	0.0536	1.00471E-002	-1.55756E-005	0.00000E+000	1.00000E-002	8.15923E-005	8	..........a	-327.66
	268	0.0538	-1.52886E-004	-1.56356E-005	0.00000E+000	7.45058E-009	-2.18408E-004	8	..........a	-327.66
	269	0.054	-9.95289E-003	-1.56556E-005	0.00000E+000	-1.00000E-002	8.15923E-005	8	..........a	-327.66
	270	0.0542	-1.98529E-002	-1.56356E-005	0.00000E+000	-2.00000E-002	-3.18408E-004	8	..........a	-327.66
	271	0.0544	-2.99529E-002	-1.56656E-005	0.00000E+000	-3.00000E-002	-2.18408E-004	8	..........a	-327.66
	272	0.0546	-3.99529E-002	-1.56856E-005	0.00000E+000	-4.00000E-002	-3.18408E-004	8	..........a	-327.66
	273	0.0548	-5.00529E-002	-1.56956E-005	0.00000E+000	-5.00000E-002	8.15923E-005	8	..........a	-327.66
	274	0.055	-6.00529E-002	-1.56956E-005	0.00000E+000	-6.00000E-002	8.15923E-005	8	..........a	-327.66
	275	0.0552	-7.00529E-002	-1.57456E-005	0.00000E+000	-7.00000E-002	8.15923E-005	8	..........a	-327.66
	276	0.0554	-7.97529E-002	-1.57256E-005	0.00000E+000	-8.00000E-002	8.15923E-005	8	..........a	-327.66
	277	0.0556	-9.00529E-002	-1.57356E-005	0.00000E+000	-9.00000E-002	8.15923E-005	8	..........a	-327.66
	278	0.0558	-9.99529E-002	-1.57356E-005	0.00000E+000	-1.00000E-001	8.15923E-005	8	..........a	-327.66
	279	0.056	-1.10053E-001	-1.57356E-005	0.00000E+000	-1.10000E-001	8.15923E-005	8	..........a	-327.66
	280	0.0562	-1.19753E-001	-1.57556E-005	0.00000E+000	-1.20000E-001	8.15923E-005	8	..........a	-327.66
	281	0.0564	-1.30153E-001	-1.56656E-005	0.00000E+000	-1.30000E-001	-3.18408E-004	8	..........a	-327.66
	282	0.0566	-1.40053E-001	-1.56656E-005	0.00000E+000	-1.40000E-001	8.15923E-005	8	..........a	-327.66
	283	0.0568	-1.50053E-001	-1.56156E-005	0.00000E+000	-1.50000E-001	8.15923E-005	8	..........a	-327.66
	284	0.057	-1.59853E-001	-1.56656E-005	0.00000E+000	-1.60000E-001	8.15923E-005	8	..........a	-327.66
	285	0.0572	-1.69953E-001	-1.55556E-005	0.00000E+000	-1.70000E-001	8.15923E-005	8	..........a	-327.66
	286	0.0574	-1.79853E-001	-1.54756E-005	0.00000E+000	-1.80000E-001	8.15923E-005	8	..........a	-327.66
	287	0.0576	-1.90153E-001	-1.53956E-005	0.00000E+000	-1.90000E-001	8.15923E-005	8	..........a	-327.66
	288	0.0578	-1.99953E-001	-1.53356E-005	0.00000E+000	-2.00000E-001	8.15923E-005	8	..........a	-327.66
	289	0.058	-2.10153E-001	-1.52756E-005	0.00000E+000	-2.10000E-001	8.15923E-005	8	..........a	-327.66
	290	0.0582	-2.19753E-001	-1.51256E-005	0.00000E+000	-2.20000E-001	8.15923E-005	8	..........a	-327.66
	291	0.0584	-2.29953E-001	-1.50156E-005	0.00000E+000	-2.30000E-001	8.15923E-005	8	..........a	-327.66
	292	0.0586	-2.40053E-001	-1.48956E-005	0.00000E+000	-2.40000E-001	8.15923E-005	8	..........a	-327.66
	293	0.0588	-2.49953E-001	-1.48156E-005	0.00000E+000	-2.50000E-001	8.15923E-005	8	..........a	-327.66
	294	0.059	-2.59753E-001	-1.46456E-005	0.00000E+000	-2.60000E-001	8.15923E-005	8	..........a	-327.66
	295	0.0592	-2.69953E-001	-1.45956E-005	0.00000E+000	-2.70000E-001	-2.18408E-004	8	..........a	-327.66
	296	0.0594	-2.79953E-001	-1.44556E-005	0.00000E+000	-2.80000E-001	8.15923E-005	8	..........a	-327.66
	297	0.0596	-2.89953E-001	-1.42956E-005	0.00000E+000	-2.90000E-001	8.15923E-005	8	..........a	-327.66
	298	0.0598	-2.99953E-001	-1.41956E-005	0.00000E+000	-3.00000E-001	8.15923E-005	8	..........a	-327.66
	299	0.06	-3.10053E-001	-1.40955E-005	0.00000E+000	-3.10000E-001	8.15923E-005	8	..........a	-327.66
	300	0.0602	-3.19953E-001	-1.38855E-005	0.00000E+000	-3.20000E-001	8.15923E-005	8	..........a	-327.66
	301	0.0604	-3.30053E-001	-1.38255E-005	0.00000E+000	-3.30000E-001	8.15923E-005	8	..........a	-327.66
	302	0.0606	-3.39853E-001	-1.37355E-005	0.00000E+000	-3.40000E-001	8.15923E-005	8	..........a	-327.66
	303	0.0608	-3.49953E-001	-1.35955E-005	0.00000E+000	-3.50000E-001	8.15923E-005	8	..........a	-327.66
	304	0.061	-3.59853E-001	-1.34455E-005	0.00000E+000	-3.60000E-001	8.15923E-005	8	..........a	-327.66
	305	0.0612	-3.70053E-001	-1.33955E-005	0.00000E+000	-3.70000E-001	8.15923E-005	8	..........a	-327.66
	306	0.0614	-3.79853E-001	-1.32755E-005	0.00000E+000	-3.80000E-001	8.15923E-005	8	..........a	-327.66
	307	0.0616	-3.89653E-001	-1.31855E-005	0.00000E+000	-3.90000E-001	8.15923E-005	8	..........a	-327.66
	308	0.0618	-3.99853E-001	-1.31255E-005	0.00000E+000	-4.00000E-001	8.15923E-005	8	..........a	-327.66
	309	0.062	-4.09853E-001	-1.30155E-005	0.00000E+000	-4.10000E-001	-2.18408E-004	8	..........a	-327.66
	310	0.0622	-4.19753E-001	-1.29555E-005	0.00000E+000	-4.20000E-001	8.15923E-005	8	..........a	-327.66
	311	0.0624	-4.29953E-001	-1.28555E-005	0.00000E+000	-4.30000E-001	-1.18408E-004	8	..........a	-327.66
	312	0.0626	-4.39853E-001	-1.27755E-005	0.00000E+000	-4.40000E-001	8.15923E-005	8	..........a	-327.66
	313	0.0628	-4.49903E-001	-1.27255E-005	0.00000E+000	-4.50000E-001	8.15923E-005	8	..........a	-327.66
	314	0.063	-4.59853E-001	-1.26455E-005	0.00000E+000	-4.60000E-001	8.15923E-005	8	..........a	-327.66
	315	0.0632	-4.69953E-001	-1.26155E-005	0.00000E+000	-4.70000E-001	8.15923E-005	8	..........a	-327.66
	316	0.0634	-4.80003E-001	-1.25755E-005	0.00000E+000	-4.80000E-001	8.15923E-005	8	..........a	-327.66
	317	0.0636	-4.89903E-001	-1.25455E-005	0.00000E+000	-4.90000E-001	8.15923E-005	8	..........a	-327.66
	318	0.0638	-4.99853E-001	-1.24855E-005	0.00000E+000	-5.00000E-001	8.15923E-005	8	..........a	-327.66
	319	0.064	-5.09853E-001	-1.24755E-005	0.00000E+000	-5.10000E-001	-3.18408E-004	8	..........a	-327.66
	320	0.0642	-5.19853E-001	-1.24355E-005	0.00000E+000	-5.20000E-001	8.15923E-005	8	..........a	-327.66
	321	0.0644	-5.29953E-001	-1.24155E-005	0.00000E+000	-5.30000E-001	8.15923E-005	8	..........a	-327.66
	322	0.0646	-5.39803E-001	-1.24155E-005	0.00000E+000	-5.40000E-001	8.15923E-005	8	..........a	-327.66
	323	0.0648	-5.49953E-001	-1.23855E-005	0.00000E+000	-5.50000E-001	-3.18408E-004	8	..........a	-327.66
	324	0.065	-5.59853E-001	-1.23955E-005	0.00000E+000	-5.60000E-001	8.15923E-005	8	..........a	-327.66
	325	0.0652	-5.69953E-001	-1.23955E-005	0.00000E+000	-5.70000E-001	8.15923E-005	8	..........a	-327.66
	326	0.0654	-5.79953E-001	-1.23855E-005	0.00000E+000	-5.80000E-001	8.15923E-005	8	..........a	-327.66
	327	0.0656	-5.89853E-001	-1.23855E-005	0.00000E+000	-5.90000E-001	8.15923E-005	8	..........a	-327.66
	328	0.0658	-5.99853E-001	-1.24455E-005	0.00000E+000	-6.00000E-001	8.15923E-005	8	..........a	-327.66
	329	0.066	-5.89953E-001	-1.05354E-005	0.00000E+000	-5.90000E-001	8.15923E-005	8	..........a	-327.66
	330	0.0662	-5.79953E-001	-9.04535E-006	0.00000E+000	-5.80000E-001	8.15923E-005	8	..........a	-327.66
	331	0.0664	-5.69953E-001	-7.77531E-006	0.00000E+000	-5.70000E-001	8.15923E-005	8	..........a	-327.66
	332	0.0666	-5.59853E-001	-6.65526E-006	0.00000E+000	-5.60000E-001	8.15923E-005	8	..........a	-327.66
	333	0.0668	-5.49853E-001	-5.67523E-006	0.00000E+000	-5.50000E-001	8.15923E-005	8	..........a	-327.66
	334	0.067	-5.39953E-001	-4.79519E-006	0.00000E+000	-5.40000E-001	8.15923E-005	8	..........a	-327.66
	335	0.0672	-5.29953E-001	-3.93516E-006	0.00000E+000	-5.30000E-001	8.15923E-005	8	..........a	-327.66
	336	0.0674	-5.19853E-001	-3.23513E-006	0.00000E+000	-5.20000E-001	8.15923E-005	8	..........a	-327.66
	337	0.0676	-5.09953E-001	-2.52510E-006	0.00000E+000	-5.10000E-001	8.15923E-005	8	..........a	-327.66
	338	0.0678	-4.99953E-001	-1.85508E-006	0.00000E+000	-5.00000E-001	8.15923E-005	8	..........a	-327.66
	339	0.068	-4.90053E-001	-1.29506E-006	0.00000E+000	-4.90000E-001	8.15923E-005	8	..........a	-327.66
	340	0.0682	-4.80053E-001	-7.45037E-007	0.00000E+000	-4.80000E-001	8.15923E-005	8	..........a	-327.66
	341	0.0684	-4.69953E-001	-2.45017E-007	0.00000E+000	-4.70000E-001	8.15923E-005	8	..........a	-327.66
	342	0.0686	-4.59753E-001	2.35001E-007	0.00000E+000	-4.60000E-001	8.15923E-005	8	..........a	-327.66
	343	0.0688	-4.49953E-001	6.75018E-007	0.00000E+000	-4.50000E-001	8.15923E-005	8	..........a	-327.66
	344	0.069	-4.39853E-001	1.10503E-006	0.00000E+000	-4.40000E-001	8.15923E-005	8	..........a	-327.66
[...]
	2602	0.5206	-2.60053E-001	5.51520E-006	0.00000E+000	-2.60000E-001	8.15923E-005	8	..........a	-327.66
	2603	0.5208	-2.49953E-001	5.66521E-006	0.00000E+000	-2.50000E-001	8.15923E-005	8	..........a	-327.66
	2604	0.521	-2.39853E-001	5.83522E-006	0.00000E+000	-2.40000E-001	8.15923E-005	8	..........a	-327.66
	2605	0.5212	-2.30053E-001	5.94522E-006	0.00000E+000	-2.30000E-001	8.15923E-005	8	..........a	-327.66
	2606	0.5214	-2.19853E-001	6.11523E-006	0.00000E+000	-2.20000E-001	8.15923E-005	8	..........a	-327.66
	2607	0.5216	-2.10053E-001	6.21523E-006	0.00000E+000	-2.10000E-001	8.15923E-005	8	..........a	-327.66
	2608	0.5218	-2.00053E-001	6.35524E-006	0.00000E+000	-2.00000E-001	-3.18408E-004	8	..........a	-327.66
	2609	0.522	-1.90353E-001	6.58524E-006	0.00000E+000	-1.90000E-001	8.15923E-005	8	..........a	-327.66
	2610	0.5222	-1.79853E-001	6.70525E-006	0.00000E+000	-1.80000E-001	8.15923E-005	8	..........a	-327.66
	2611	0.5224	-1.69953E-001	6.76525E-006	0.00000E+000	-1.70000E-001	8.15923E-005	8	..........a	-327.66
	2612	0.5226	-1.60053E-001	6.89526E-006	0.00000E+000	-1.60000E-001	8.15923E-005	8	..........a	-327.66
	2613	0.5228	-1.50053E-001	7.00526E-006	0.00000E+000	-1.50000E-001	8.15923E-005	8	..........a	-327.66
	2614	0.523	-1.40053E-001	7.11526E-006	0.00000E+000	-1.40000E-001	8.15923E-005	8	..........a	-327.66
	2615	0.5232	-1.30053E-001	7.27527E-006	0.00000E+000	-1.30000E-001	8.15923E-005	8	..........a	-327.66
	2616	0.5234	-1.19953E-001	7.40528E-006	0.00000E+000	-1.20000E-001	8.15923E-005	8	..........a	-327.66
	2617	0.5236	-1.09953E-001	7.50528E-006	0.00000E+000	-1.10000E-001	-3.18408E-004	8	..........a	-327.66
	2618	0.5238	-1.00053E-001	7.61528E-006	0.00000E+000	-1.00000E-001	8.15923E-005	8	..........a	-327.66
	2619	0.524	-8.99029E-002	7.68529E-006	0.00000E+000	-9.00000E-002	-3.18408E-004	8	..........a	-327.66
	2620	0.5242	-8.01029E-002	7.84529E-006	0.00000E+000	-8.00000E-002	8.15923E-005	8	..........a	-327.66
	2621	0.5244	-6.99529E-002	8.00530E-006	0.00000E+000	-7.00000E-002	8.15923E-005	8	..........a	-327.66
	2622	0.5246	-5.98029E-002	8.09530E-006	0.00000E+000	-6.00000E-002	8.15923E-005	8	..........a	-327.66
	2623	0.5248	-4.99529E-002	8.19531E-006	0.00000E+000	-5.00000E-002	8.15923E-005	8	..........a	-327.66
	2624	0.525	-4.00529E-002	8.31531E-006	0.00000E+000	-4.00000E-002	8.15923E-005	8	..........a	-327.66
	2625	0.5252	-3.00529E-002	8.46532E-006	0.00000E+000	-3.00000E-002	-2.18408E-004	8	..........a	-327.66
	2626	0.5254	-1.99529E-002	8.57532E-006	0.00000E+000	-2.00000E-002	8.15923E-005	8	..........a	-327.66
	2627	0.5256	-9.95289E-003	8.67532E-006	0.00000E+000	-1.00000E-002	8.15923E-005	8	..........a	-327.66
	2628	0.5258	4.71142E-005	8.84533E-006	0.00000E+000	7.45058E-009	8.15923E-005	8	..........a	-327.66
	2629	0.526	1.00471E-002	8.99534E-006	0.00000E+000	1.00000E-002	8.15923E-005	8	..........a	-327.66
	2630	0.5262	2.01471E-002	9.07534E-006	0.00000E+000	2.00000E-002	8.15923E-005	8	..........a	-327.66
	2631	0.5264	2.97971E-002	9.22534E-006	0.00000E+000	3.00000E-002	8.15923E-005	8	..........a	-327.66
	2632	0.5266	3.98471E-002	9.32535E-006	0.00000E+000	4.00000E-002	-2.18408E-004	8	..........a	-327.66
	2633	0.5268	5.00471E-002	9.46535E-006	0.00000E+000	5.00000E-002	-4.18408E-004	8	..........a	-327.66
	2634	0.527	6.01471E-002	9.65536E-006	0.00000E+000	6.00000E-002	8.15923E-005	8	..........a	-327.66
	2635	0.5272	7.00471E-002	9.77537E-006	0.00000E+000	7.00000E-002	8.15923E-005	8	..........a	-327.66
	2636	0.5274	8.00971E-002	9.92537E-006	0.00000E+000	8.00000E-002	8.15923E-005	8	..........a	-327.66
	2637	0.5276	9.00471E-002	1.01054E-005	0.00000E+000	9.00000E-002	8.15923E-005	8	..........a	-327.66
	2638	0.5278	1.00047E-001	1.02054E-005	0.00000E+000	1.00000E-001	8.15923E-005	8	..........a	-327.66
	2639	0.528	1.09947E-001	1.03554E-005	0.00000E+000	1.10000E-001	8.15923E-005	8	..........a	-327.66
	2640	0.5282	1.19847E-001	1.06454E-005	0.00000E+000	1.20000E-001	8.15923E-005	8	..........a	-327.66
	2641	0.5284	1.30147E-001	1.12254E-005	0.00000E+000	1.30000E-001	8.15923E-005	8	..........a	-327.66
	2642	0.5286	1.40047E-001	1.16054E-005	0.00000E+000	1.40000E-001	-1.18408E-004	8	..........a	-327.66
	2643	0.5288	1.50147E-001	1.14754E-005	0.00000E+000	1.50000E-001	8.15923E-005	8	..........a	-327.66
	2644	0.529	1.60047E-001	1.13654E-005	0.00000E+000	1.60000E-001	8.15923E-005	8	..........a	-327.66
	2645	0.5292	1.70147E-001	1.14554E-005	0.00000E+000	1.70000E-001	8.15923E-005	8	..........a	-327.66
	2646	0.5294	1.80247E-001	1.16254E-005	0.00000E+000	1.80000E-001	8.15923E-005	8	..........a	-327.66
	2647	0.5296	1.90047E-001	1.17954E-005	0.00000E+000	1.90000E-001	-3.18408E-004	8	..........a	-327.66
	2648	0.5298	2.00047E-001	1.19855E-005	0.00000E+000	2.00000E-001	8.15923E-005	8	..........a	-327.66
	2649	0.53	2.10047E-001	1.21855E-005	0.00000E+000	2.10000E-001	8.15923E-005	8	..........a	-327.66
	2650	0.5302	2.19247E-001	1.23255E-005	0.00000E+000	2.20000E-001	8.15923E-005	8	..........a	-327.66
	2651	0.5304	2.29797E-001	1.25055E-005	0.00000E+000	2.30000E-001	8.15923E-005	8	..........a	-327.66
	2652	0.5306	2.39947E-001	1.27055E-005	0.00000E+000	2.40000E-001	8.15923E-005	8	..........a	-327.66
	2653	0.5308	2.49747E-001	1.28655E-005	0.00000E+000	2.50000E-001	8.15923E-005	8	..........a	-327.66
	2654	0.531	2.60097E-001	1.30555E-005	0.00000E+000	2.60000E-001	8.15923E-005	8	..........a	-327.66
	2655	0.5312	2.70047E-001	1.32655E-005	0.00000E+000	2.70000E-001	8.15923E-005	8	..........a	-327.66
	2656	0.5314	2.79847E-001	1.34555E-005	0.00000E+000	2.80000E-001	8.15923E-005	8	..........a	-327.66
	2657	0.5316	2.90047E-001	1.36655E-005	0.00000E+000	2.90000E-001	8.15923E-005	8	..........a	-327.66
	2658	0.5318	3.00147E-001	1.38455E-005	0.00000E+000	3.00000E-001	8.15923E-005	8	..........a	-327.66
	2659	0.532	3.09847E-001	1.40455E-005	0.00000E+000	3.10000E-001	8.15923E-005	8	..........a	-327.66
	2660	0.5322	3.20047E-001	1.42155E-005	0.00000E+000	3.20000E-001	8.15923E-005	8	..........a	-327.66
	2661	0.5324	3.30047E-001	1.43655E-005	0.00000E+000	3.30000E-001	8.15923E-005	8	..........a	-327.66
	2662	0.5326	3.39947E-001	1.45455E-005	0.00000E+000	3.40000E-001	8.15923E-005	8	..........a	-327.66
	2663	0.5328	3.49947E-001	1.47156E-005	0.00000E+000	3.50000E-001	8.15923E-005	8	..........a	-327.66
	2664	0.533	3.59847E-001	1.49456E-005	0.00000E+000	3.60000E-001	8.15923E-005	8	..........a	-327.66
	2665	0.5332	3.70047E-001	1.50756E-005	0.00000E+000	3.70000E-001	8.15923E-005	8	..........a	-327.66
	2666	0.5334	3.79747E-001	1.52656E-005	0.00000E+000	3.80000E-001	8.15923E-005	8	..........a	-327.66
	2667	0.5336	3.90047E-001	1.54756E-005	0.00000E+000	3.90000E-001	8.15923E-005	8	..........a	-327.66
	2668	0.5338	3.99847E-001	1.56456E-005	0.00000E+000	4.00000E-001	-4.18408E-004	8	..........a	-327.66
	2669	0.534	4.09847E-001	1.58456E-005	0.00000E+000	4.10000E-001	8.15923E-005	8	..........a	-327.66
	2670	0.5342	4.20047E-001	1.60256E-005	0.00000E+000	4.20000E-001	8.15923E-005	8	..........a	-327.66
	2671	0.5344	4.30047E-001	1.61956E-005	0.00000E+000	4.30000E-001	8.15923E-005	8	..........a	-327.66
	2672	0.5346	4.39947E-001	1.64556E-005	0.00000E+000	4.40000E-001	8.15923E-005	8	..........a	-327.66
	2673	0.5348	4.49597E-001	1.66456E-005	0.00000E+000	4.50000E-001	8.15923E-005	8	..........a	-327.66
	2674	0.535	4.60147E-001	1.69556E-005	0.00000E+000	4.60000E-001	8.15923E-005	8	..........a	-327.66
	2675	0.5352	4.69947E-001	1.71556E-005	0.00000E+000	4.70000E-001	-2.18408E-004	8	..........a	-327.66
	2676	0.5354	4.79847E-001	1.73457E-005	0.00000E+000	4.80000E-001	8.15923E-005	8	..........a	-327.66
	2677	0.5356	4.89947E-001	1.75957E-005	0.00000E+000	4.90000E-001	8.15923E-005	8	..........a	-327.66
	2678	0.5358	5.00097E-001	1.77257E-005	0.00000E+000	5.00000E-001	8.15923E-005	8	..........a	-327.66
	2679	0.536	5.09997E-001	1.78957E-005	0.00000E+000	5.10000E-001	8.15923E-005	8	..........a	-327.66
	2680	0.5362	5.19847E-001	1.79957E-005	0.00000E+000	5.20000E-001	8.15923E-005	8	..........a	-327.66
	2681	0.5364	5.29947E-001	1.80257E-005	0.00000E+000	5.30000E-001	8.15923E-005	8	..........a	-327.66
	2682	0.5366	5.39947E-001	1.80957E-005	0.00000E+000	5.40000E-001	8.15923E-005	8	..........a	-327.66
	2683	0.5368	5.50047E-001	1.81157E-005	0.00000E+000	5.50000E-001	8.15923E-005	8	..........a	-327.66
	2684	0.537	5.60047E-001	1.81757E-005	0.00000E+000	5.60000E-001	-4.18408E-004	8	..........a	-327.66
	2685	0.5372	5.69947E-001	1.82657E-005	0.00000E+000	5.70000E-001	8.15923E-005	8	..........a	-327.66
	2686	0.5374	5.79747E-001	1.83157E-005	0.00000E+000	5.80000E-001	8.15923E-005	8	..........a	-327.66
	2687	0.5376	5.89947E-001	1.83557E-005	0.00000E+000	5.90000E-001	8.15923E-005	8	..........a	-327.66
	2688	0.5378	6.00147E-001	1.84657E-005	0.00000E+000	6.00000E-001	8.15923E-005	8	..........a	-327.66
	2689	0.538	6.09947E-001	1.85657E-005	0.00000E+000	6.10000E-001	8.15923E-005	8	..........a	-327.66
	2690	0.5382	6.19797E-001	1.86357E-005	0.00000E+000	6.20000E-001	8.15923E-005	8	..........a	-327.66
	2691	0.5384	6.29847E-001	1.87057E-005	0.00000E+000	6.30000E-001	8.15923E-005	8	..........a	-327.66
	2692	0.5386	6.39947E-001	1.87857E-005	0.00000E+000	6.40000E-001	8.15923E-005	8	..........a	-327.66
	2693	0.5388	6.49947E-001	1.88957E-005	0.00000E+000	6.50000E-001	8.15923E-005	8	..........a	-327.66
	2694	0.539	6.60247E-001	1.89457E-005	0.00000E+000	6.60000E-001	8.15923E-005	8	..........a	-327.66
	2695	0.5392	6.69897E-001	1.89857E-005	0.00000E+000	6.70000E-001	8.15923E-005	8	..........a	-327.66
	2696	0.5394	6.79747E-001	1.90957E-005	0.00000E+000	6.80000E-001	8.15923E-005	8	..........a	-327.66
	2697	0.5396	6.89847E-001	1.91557E-005	0.00000E+000	6.90000E-001	8.15923E-005	8	..........a	-327.66
	2698	0.5398	6.99847E-001	1.92157E-005	0.00000E+000	7.00000E-001	8.15923E-005	8	..........a	-327.66
	2699	0.54	7.09847E-001	1.92657E-005	0.00000E+000	7.10000E-001	8.15923E-005	8	..........a	-327.66
	2700	0.5402	7.20047E-001	1.93057E-005	0.00000E+000	7.20000E-001	8.15923E-005	8	..........a	-327.66
	2701	0.5404	7.29897E-001	1.93257E-005	0.00000E+000	7.30000E-001	-3.18408E-004	8	..........a	-327.66
	2702	0.5406	7.39847E-001	1.93557E-005	0.00000E+000	7.40000E-001	8.15923E-005	8	..........a	-327.66
	2703	0.5408	7.49847E-001	1.93757E-005	0.00000E+000	7.50000E-001	8.15923E-005	8	..........a	-327.66
	2704	0.541	7.60047E-001	1.94057E-005	0.00000E+000	7.60000E-001	8.15923E-005	8	..........a	-327.66
	2705	0.5412	7.69947E-001	1.93957E-005	0.00000E+000	7.70000E-001	8.15923E-005	8	..........a	-327.66
	2706	0.5414	7.79847E-001	1.93857E-005	0.00000E+000	7.80000E-001	-3.18408E-004	8	..........a	-327.66
	2707	0.5416	7.89847E-001	1.93857E-005	0.00000E+000	7.90000E-001	8.15923E-005	8	..........a	-327.66
	2708	0.5418	7.99947E-001	1.93757E-005	0.00000E+000	8.00000E-001	8.15923E-005	8	..........a	-327.66
CURVE11	TABLE
	Pt	T	Vf	Im	Vu	Sig	Ach	IERange	Over	Temp
	#	s	V vs. Ref.	A	V	V	V	#	bits	deg C
	2709	0.542	7.90047E-001	1.71556E-005	0.00000E+000	7.90000E-001	8.15923E-005	8	..........a	-327.66
	2710	0.5422	7.80047E-001	1.53456E-005	0.00000E+000	7.80000E-001	8.15923E-005	8	..........a	-327.66
	2711	0.5424	7.69947E-001	1.37555E-005	0.00000E+000	7.70000E-001	8.15923E-005	8	..........a	-327.66
	2712	0.5426	7.59947E-001	1.23855E-005	0.00000E+000	7.60000E-001	8.15923E-005	8	..........a	-327.66
	2713	0.5428	7.50047E-001	1.11154E-005	0.00000E+000	7.50000E-001	8.15923E-005	8	..........a	-327.66
	2714	0.543	7.39947E-001	9.92537E-006	0.00000E+000	7.40000E-001	8.15923E-005	8	..........a	-327.66
	2715	0.5432	7.29947E-001	8.90533E-006	0.00000E+000	7.30000E-001	8.15923E-005	8	..........a	-327.66
	2716	0.5434	7.19947E-001	7.87529E-006	0.00000E+000	7.20000E-001	8.15923E-005	8	..........a	-327.66
	2717	0.5436	7.09947E-001	6.96526E-006	0.00000E+000	7.10000E-001	-3.18408E-004	8	..........a	-327.66
	2718	0.5438	7.00047E-001	6.04522E-006	0.00000E+000	7.00000E-001	8.15923E-005	8	..........a	-327.66
	2719	0.544	6.89847E-001	5.27519E-006	0.00000E+000	6.90000E-001	-3.18408E-004	8	..........a	-327.66
	2720	0.5442	6.80047E-001	4.50516E-006	0.00000E+000	6.80000E-001	8.15923E-005	8	..........a	-327.66
	2721	0.5444	6.69947E-001	3.74514E-006	0.00000E+000	6.70000E-001	8.15923E-005	8	..........a	-327.66
	2722	0.5446	6.60147E-001	3.06511E-006	0.00000E+000	6.60000E-001	-4.18408E-004	8	..........a	-327.66
	2723	0.5448	6.49847E-001	2.46509E-006	0.00000E+000	6.50000E-001	8.15923E-005	8	..........a	-327.66
	2724	0.545	6.40047E-001	1.82506E-006	0.00000E+000	6.40000E-001	8.15923E-005	8	..........a	-327.66
	2725	0.5452	6.30047E-001	1.23504E-006	0.00000E+000	6.30000E-001	8.15923E-005	8	..........a	-327.66
	2726	0.5454	6.19847E-001	7.25020E-007	0.00000E+000	6.20000E-001	8.15923E-005	8	..........a	-327.66
	2727	0.5456	6.09847E-001	1.94999E-007	0.00000E+000	6.10000E-001	8.15923E-005	8	..........a	-327.66
	2728	0.5458	6.00047E-001	-3.55022E-007	0.00000E+000	6.00000E-001	8.15923E-005	8	..........a	-327.66
	2729	0.546	5.89847E-001	-8.15039E-007	0.00000E+000	5.90000E-001	8.15923E-005	8	..........a	-327.66
	2730	0.5462	5.80047E-001	-1.28506E-006	0.00000E+000	5.80000E-001	8.15923E-005	8	..........a	-327.66
	2731	0.5464	5.69947E-001	-1.71507E-006	0.00000E+000	5.70000E-001	8.15923E-005	8	..........a	-327.66
	2732	0.5466	5.59847E-001	-2.12509E-006	0.00000E+000	5.60000E-001	8.15923E-005	8	..........a	-327.66
	2733	0.5468	5.50047E-001	-2.53511E-006	0.00000E+000	5.50000E-001	-4.18408E-004	8	..........a	-327.66
	2734	0.547	5.40047E-001	-2.93512E-006	0.00000E+000	5.40000E-001	8.15923E-005	8	..........a	-327.66
	2735	0.5472	5.29947E-001	-3.31514E-006	0.00000E+000	5.30000E-001	8.15923E-005	8	..........a	-327.66
	2736	0.5474	5.20047E-001	-3.64515E-006	0.00000E+000	5.20000E-001	8.15923E-005	8	..........a	-327.66
	2737	0.5476	5.09947E-001	-4.03516E-006	0.00000E+000	5.10000E-001	8.15923E-005	8	..........a	-327.66
	2738	0.5478	5.00147E-001	-4.39518E-006	0.00000E+000	5.00000E-001	8.15923E-005	8	..........a	-327.66
	2739	0.548	4.90047E-001	-4.67519E-006	0.00000E+000	4.90000E-001	-3.18408E-004	8	..........a	-327.66
	2740	0.5482	4.80147E-001	-5.00520E-006	0.00000E+000	4.80000E-001	-2.18408E-004	8	..........a	-327.66
	2741	0.5484	4.69947E-001	-5.31521E-006	0.00000E+000	4.70000E-001	8.15923E-005	8	..........a	-327.66
	2742	0.5486	4.60047E-001	-5.63522E-006	0.00000E+000	4.60000E-001	8.15923E-005	8	..........a	-327.66
	2743	0.5488	4.50047E-001	-5.93524E-006	0.00000E+000	4.50000E-001	8.15923E-005	8	..........a	-327.66
	2744	0.549	4.39847E-001	-6.20525E-006	0.00000E+000	4.40000E-001	8.15923E-005	8	..........a	-327.66
	2745	0.5492	4.30047E-001	-6.53526E-006	0.00000E+000	4.30000E-001	8.15923E-005	8	..........a	-327.66
	2746	0.5494	4.20047E-001	-6.83527E-006	0.00000E+000	4.20000E-001	8.15923E-005	8	..........a	-327.66
	2747	0.5496	4.09947E-001	-7.09528E-006	0.00000E+000	4.10000E-001	8.15923E-005	8	..........a	-327.66
	2748	0.5498	4.00047E-001	-7.38529E-006	0.00000E+000	4.00000E-001	8.15923E-005	8	..........a	-327.66
	2749	0.55	3.90047E-001	-7.63530E-006	0.00000E+000	3.90000E-001	8.15923E-005	8	..........a	-327.66
	2750	0.5502	3.80147E-001	-7.95531E-006	0.00000E+000	3.80000E-001	8.15923E-005	8	..........a	-327.66
	2751	0.5504	3.69947E-001	-8.19532E-006	0.00000E+000	3.70000E-001	8.15923E-005	8	..........a	-327.66
	2752	0.5506	3.60047E-001	-8.46533E-006	0.00000E+000	3.60000E-001	8.15923E-005	8	..........a	-327.66
	2753	0.5508	3.49947E-001	-8.76534E-006	0.00000E+000	3.50000E-001	8.15923E-005	8	..........a	-327.66
	2754	0.551	3.39947E-001	-9.01535E-006	0.00000E+000	3.40000E-001	8.15923E-005	8	..........a	-327.66
	2755	0.5512	3.29947E-001	-9.31536E-006	0.00000E+000	3.30000E-001	8.15923E-005	8	..........a	-327.66
	2756	0.5514	3.20047E-001	-9.56537E-006	0.00000E+000	3.20000E-001	-3.18408E-004	8	..........a	-327.66
	2757	0.5516	3.10047E-001	-9.86539E-006	0.00000E+000	3.10000E-001	8.15923E-005	8	..........a	-327.66
	2758	0.5518	3.00247E-001	-1.01354E-005	0.00000E+000	3.00000E-001	8.15923E-005	8	..........a	-327.66
	2759	0.552	2.89947E-001	-1.04354E-005	0.00000E+000	2.90000E-001	-1.18408E-004	8	..........a	-327.66
	2760	0.5522	2.80047E-001	-1.06954E-005	0.00000E+000	2.80000E-001	8.15923E-005	8	..........a	-327.66
	2761	0.5524	2.70047E-001	-1.10054E-005	0.00000E+000	2.70000E-001	8.15923E-005	8	..........a	-327.66
	2762	0.5526	2.60047E-001	-1.13054E-005	0.00000E+000	2.60000E-001	8.15923E-005	8	..........a	-327.66
	2763	0.5528	2.50047E-001	-1.15655E-005	0.00000E+000	2.50000E-001	8.15923E-005	8	..........a	-327.66
	2764	0.553	2.40047E-001	-1.19055E-005	0.00000E+000	2.40000E-001	8.15923E-005	8	..........a	-327.66
	2765	0.5532	2.29947E-001	-1.22555E-005	0.00000E+000	2.30000E-001	8.15923E-005	8	..........a	-327.66
	2766	0.5534	2.20047E-001	-1.25055E-005	0.00000E+000	2.20000E-001	8.15923E-005	8	..........a	-327.66
	2767	0.5536	2.10147E-001	-1.27955E-005	0.00000E+000	2.10000E-001	8.15923E-005	8	..........a	-327.66
	2768	0.5538	2.00247E-001	-1.31155E-005	0.00000E+000	2.00000E-001	8.15923E-005	8	..........a	-327.66
	2769	0.554	1.90047E-001	-1.34155E-005	0.00000E+000	1.90000E-001	8.15923E-005	8	..........a	-327.66
	2770	0.5542	1.80047E-001	-1.36355E-005	0.00000E+000	1.80000E-001	8.15923E-005	8	..........a	-327.66
	2771	0.5544	1.70047E-001	-1.38555E-005	0.00000E+000	1.70000E-001	8.15923E-005	8	..........a	-327.66
	2772	0.5546	1.60247E-001	-1.40055E-005	0.00000E+000	1.60000E-001	8.15923E-005	8	..........a	-327.66
	2773	0.5548	1.49947E-001	-1.41455E-005	0.00000E+000	1.50000E-001	8.15923E-005	8	..........a	-327.66
	2774	0.555	1.40047E-001	-1.43556E-005	0.00000E+000	1.40000E-001	8.15923E-005	8	..........a	-327.66
	2775	0.5552	1.29847E-001	-1.44956E-005	0.00000E+000	1.30000E-001	-3.18408E-004	8	..........a	-327.66
	2776	0.5554	1.19847E-001	-1.45456E-005	0.00000E+000	1.20000E-001	8.15923E-005	8	..........a	-327.66
	2777	0.5556	1.10047E-001	-1.47256E-005	0.00000E+000	1.10000E-001	8.15923E-005	8	..........a	-327.66
	2778	0.5558	9.99471E-002	-1.48556E-005	0.00000E+000	1.00000E-001	8.15923E-005	8	..........a	-327.66
	2779	0.556	9.01471E-002	-1.49556E-005	0.00000E+000	9.00000E-002	-3.18408E-004	8	..........a	-327.66
	2780	0.5562	8.00471E-002	-1.50956E-005	0.00000E+000	8.00000E-002	8.15923E-005	8	..........a	-327.66
	2781	0.5564	6.99471E-002	-1.51856E-005	0.00000E+000	7.00000E-002	8.15923E-005	8	..........a	-327.66
	2782	0.5566	6.00471E-002	-1.53156E-005	0.00000E+000	6.00000E-002	8.15923E-005	8	..........a	-327.66
	2783	0.5568	5.00471E-002	-1.54056E-005	0.00000E+000	5.00000E-002	8.15923E-005	8	..........a	-327.66
	2784	0.557	3.98471E-002	-1.54956E-005	0.00000E+000	4.00000E-002	8.15923E-005	8	..........a	-327.66
	2785	0.5572	3.00471E-002	-1.55756E-005	0.00000E+000	3.00000E-002	8.15923E-005	8	..........a	-327.66
	2786	0.5574	2.01471E-002	-1.56556E-005	0.00000E+000	2.00000E-002	8.15923E-005	8	..........a	-327.66
	2787	0.5576	1.00471E-002	-1.57156E-005	0.00000E+000	1.00000E-002	8.15923E-005	8	..........a	-327.66
	2788	0.5578	4.71142E-005	-1.58056E-005	0.00000E+000	7.45058E-009	8.15923E-005	8	..........a	-327.66
	2789	0.558	-1.00529E-002	-1.58956E-005	0.00000E+000	-1.00000E-002	8.15923E-005	8	..........a	-327.66
	2790	0.5582	-1.99529E-002	-1.59356E-005	0.00000E+000	-2.00000E-002	8.15923E-005	8	..........a	-327.66
	2791	0.5584	-2.99529E-002	-1.59756E-005	0.00000E+000	-3.00000E-002	8.15923E-005	8	..........a	-327.66
	2792	0.5586	-3.98529E-002	-1.60156E-005	0.00000E+000	-4.00000E-002	8.15923E-005	8	..........a	-327.66
	2793	0.5588	-4.99529E-002	-1.60656E-005	0.00000E+000	-5.00000E-002	8.15923E-005	8	..........a	-327.66
	2794	0.559	-5.98529E-002	-1.60956E-005	0.00000E+000	-6.00000E-002	8.15923E-005	8	..........a	-327.66
	2795	0.5592	-6.99529E-002	-1.62056E-005	0.00000E+000	-7.00000E-002	-3.18408E-004	8	..........a	-327.66
	2796	0.5594	-8.01529E-002	-1.62756E-005	0.00000E+000	-8.00000E-002	8.15923E-005	8	..........a	-327.66
	2797	0.5596	-8.99529E-002	-1.63256E-005	0.00000E+000	-9.00000E-002	8.15923E-005	8	..........a	-327.66
	2798	0.5598	-9.99529E-002	-1.63156E-005	0.00000E+000	-1.00000E-001	-3.18408E-004	8	..........a	-327.66