File: example_project/raw_outputs/20240424_ZZK_GM0016_HL03_E16_CV50.DTA
EXPLAIN
TAG	CV
TITLE	LABEL	Cyclic Voltammetry	Test &Identifier
DATE	LABEL	4/24/2024	Date
TIME	LABEL	20:09:27	Time
NOTES	NOTES	1	&Notes...

PSTAT	PSTAT	REF600P-43058	Potentiostat
VINIT	POTEN	0.00000E+000	T	Initial &E (V)
VLIMIT1	POTEN	-6.00000E-001	F	Scan Limit &1 (V)
VLIMIT2	POTEN	8.00000E-001	F	Scan Limit &2 (V)
VFINAL	POTEN	0.00000E+000	T	Final &E (V)
SCANRATE	QUANT	4.99999E+001	&Scan Rate (mV/s)
STEPSIZE	QUANT	1.00000E+001	St&ep Size (mV)
CYCLES	IQUANT	4	C&ycles (#)
IMODE	SELECTOR	0	I/E Range &Mode
IRANGE	QUANT	1.00000E-005	&Max Current (mA)
AREA	QUANT	1.00000E+000	Electrode &Area (cm^2)
ELECTRODETYPE	SELECTOR	0	Electrode Type
STRIPPING	TOGGLE	F	Used for Stripping
POLARITY	TOGGLE	F	Signal Polarity
CONDIT	TWOPARAM	F	1.50000E+001	0.00000E+000	Conditionin&g	Time(s)	E(V)
DELAY	TWOPARAM	T	1.00000E+001	0.00000E+000	Init. De&lay	Time(s)	Stab.(mV/s)
EQDELAY	QUANT	1.00000E+001	Equil. &Time (s)
IRCOMP	SELECTOR	0	IRCom&p
PFCOR	QUANT	5.00000E+001	PF Corr. (ohm)
SAMPLINGMODE	SELECTOR	1	Sampling &Mode
OCVCURVE	TABLE	39
	Pt	T	Vf	Vm	Ach	Over	Temp
	#	s	V vs. Ref.	V	V	bits	deg C
	0	0.258333	-4.46659E-002	-4.46659E-002	2.54126E-004	..........a	-327.66
	1	0.516667	-4.46686E-002	-4.48033E-002	2.48326E-004	..........a	-327.66
	2	0.775	-4.46843E-002	-4.49164E-002	2.59526E-004	..........a	-327.66
	3	1.03333	-4.47282E-002	-4.50398E-002	2.53659E-004	..........a	-327.66
	4	1.29167	-4.48057E-002	-4.51524E-002	2.45992E-004	..........a	-327.66
	5	1.55	-4.49086E-002	-4.52778E-002	2.52059E-004	..........a	-327.66
	6	1.80833	-4.50243E-002	-4.53879E-002	2.56392E-004	..........a	-327.66
	7	2.06667	-4.51438E-002	-4.55058E-002	2.55459E-004	..........a	-327.66
	8	2.325	-4.52627E-002	-4.56153E-002	2.57059E-004	..........a	-327.66
	9	2.58333	-4.53795E-002	-4.57314E-002	2.38926E-004	..........a	-327.66
	10	2.84167	-4.54945E-002	-4.58456E-002	2.49126E-004	..........a	-327.66
	11	3.1	-4.56084E-002	-4.59476E-002	2.57792E-004	..........a	-327.66
	12	3.35833	-4.57213E-002	-4.60699E-002	2.40326E-004	..........a	-327.66
	13	3.61667	-4.58334E-002	-4.61790E-002	2.62859E-004	..........a	-327.66
	14	3.875	-4.59452E-002	-4.62774E-002	2.51992E-004	..........a	-327.66
	15	4.13333	-4.60564E-002	-4.63981E-002	2.41792E-004	..........a	-327.66
	16	4.39167	-4.61664E-002	-4.64984E-002	2.54326E-004	..........a	-327.66
	17	4.65	-4.62752E-002	-4.65922E-002	2.51926E-004	..........a	-327.66
	18	4.90833	-4.63823E-002	-4.67101E-002	2.48326E-004	..........a	-327.66
	19	5.16667	-4.64876E-002	-4.68068E-002	2.50792E-004	..........a	-327.66
	20	5.425	-4.65918E-002	-4.69012E-002	2.76992E-004	..........a	-327.66
	21	5.68333	-4.66948E-002	-4.69976E-002	2.56926E-004	..........a	-327.66
	22	5.94167	-4.67957E-002	-4.71025E-002	2.60259E-004	..........a	-327.66
	23	6.2	-4.68949E-002	-4.72026E-002	2.38992E-004	..........a	-327.66
	24	6.45833	-4.69939E-002	-4.72991E-002	2.43126E-004	..........a	-327.66
	25	6.71667	-4.70932E-002	-4.73838E-002	2.71859E-004	..........a	-327.66
	26	6.975	-4.71911E-002	-4.74769E-002	2.44326E-004	..........a	-327.66
	27	7.23333	-4.72863E-002	-4.75710E-002	2.41659E-004	..........a	-327.66
	28	7.49167	-4.73793E-002	-4.76652E-002	2.56192E-004	..........a	-327.66
	29	7.75	-4.74715E-002	-4.77568E-002	2.37526E-004	..........a	-327.66
	30	8.00833	-4.75640E-002	-4.78460E-002	2.52992E-004	..........a	-327.66
	31	8.26667	-4.76564E-002	-4.79372E-002	2.47392E-004	..........a	-327.66
	32	8.525	-4.77482E-002	-4.80227E-002	2.54126E-004	..........a	-327.66
	33	8.78333	-4.78388E-002	-4.81157E-002	2.56792E-004	..........a	-327.66
	34	9.04167	-4.79286E-002	-4.81990E-002	2.44192E-004	..........a	-327.66
	35	9.3	-4.80176E-002	-4.82901E-002	2.48792E-004	..........a	-327.66
	36	9.5583	-4.81061E-002	-4.83770E-002	2.55059E-004	..........a	-327.66
	37	9.8167	-4.81943E-002	-4.84693E-002	2.66459E-004	..........a	-327.66
	38	10.075	-4.82827E-002	-4.85513E-002	2.45059E-004	..........a	-327.66
EOC	QUANT	-0.0482827	Open Circuit (V)
PSTATMODEL	IQUANT	7	Pstat Model
PSTATSECTION	LABEL	REF600P-43058	Pstat Section
PSTATSERIALNO	LABEL	43058	Pstat Serial Number
CTRLMODE	IQUANT	1	Control Mode
ELECTROMETER	IQUANT	0	RE=0 or CS=1
IESTAB	IQUANT	2	I/E Stability
CASPEED	IQUANT	4	Control Amp Speed
CONVENTION	IQUANT	1	Current Convention
ICHRANGE	IQUANT	2	Ich Range
ICHRANGEMODE	TOGGLE	F	Ich Auto Range
ICHOFFSETENABLE	TOGGLE	F	Ich Offset Enable
ICHOFFSET	QUANT	0	Ich Offset (V)
ICHFILTER	IQUANT	2	Ich Filter
VCHRANGE	IQUANT	2	Vch Range
VCHRANGEMODE	TOGGLE	F	Vch Auto Range
VCHOFFSETENABLE	TOGGLE	F	Vch Offset Enable
VCHOFFSET	QUANT	0	Vch Offset (V)
VCHFILTER	IQUANT	2	Vch Filter
ACHRANGE	IQUANT	2	Ach Range
ACHOFFSETENABLE	TOGGLE	F	Ach Offset Enable
ACHOFFSET	QUANT	0	Ach Offset (V)
ACHFILTER	IQUANT	1	Ach Filter
IERANGELOWERLIMIT	IQUANT	1	I/E Range Lower Limit
IERANGEMODE	TOGGLE	T	I/E AutoRange
IERANGE	IQUANT	4	I/E Range
POSFEEDENABLE	TOGGLE	F	Positive Feedback IR Comp
POSFEEDRESISTANCE	QUANT	0	Positive Feedback Resistance (ohm)
ACHSELECT	IQUANT	4	Ach Select
SENSECABLEID	IQUANT	7	Sense Cable ID
PWRCABLEID	IQUANT	7	Power Cable ID
DCCALDATE	LABEL	3/22/2024	DC Calibration Date
ACCALDATE	LABEL	3/22/2024	AC Calibration Date
THERMOSELECT	IQUANT	1	Thermo Select
FRAMEWORKVERSION	LABEL	7.8.4	Framework Version
INSTRUMENTVERSION	LABEL	4.42	Instrument Version
CURVE1	TABLE
	Pt	T	Vf	Im	Vu	Sig	Ach	IERange	Over	Temp
	#	s	V vs. Ref.	A	V	V	V	#	bits	deg C
	0	0.2	-4.82749E-002	8.12577E-010	0.00000E+000	-4.83000E-002	1.00169E-003	5	..........a	-327.66
	1	0.4	-5.81844E-002	-3.10939E-009	0.00000E+000	-5.83000E-002	1.00929E-003	5	..........a	-327.66
	2	0.6	-6.82346E-002	-6.17535E-009	0.00000E+000	-6.83000E-002	1.02489E-003	5	..........a	-327.66
	3	0.8	-7.82493E-002	-8.89634E-009	0.00000E+000	-7.83000E-002	1.01129E-003	5	..........a	-327.66
	4	1	-8.82726E-002	-1.14751E-008	0.00000E+000	-8.83000E-002	1.02909E-003	5	..........a	-327.66
	5	1.2	-9.81868E-002	-1.38980E-008	0.00000E+000	-9.83000E-002	1.02279E-003	5	..........a	-327.66
	6	1.4	-1.08267E-001	-1.62518E-008	0.00000E+000	-1.08300E-001	1.00959E-003	5	..........a	-327.66
	7	1.6	-1.18218E-001	-1.85419E-008	0.00000E+000	-1.18300E-001	1.01409E-003	5	..........a	-327.66
	8	1.8	-1.28270E-001	-2.08577E-008	0.00000E+000	-1.28300E-001	1.02399E-003	5	..........a	-327.66
	9	2	-1.38181E-001	-2.30633E-008	0.00000E+000	-1.38300E-001	1.01979E-003	5	..........a	-327.66
	10	2.2	-1.48252E-001	-2.52660E-008	0.00000E+000	-1.48300E-001	1.00699E-003	5	..........a	-327.66
	11	2.4	-1.58248E-001	-2.74567E-008	0.00000E+000	-1.58300E-001	1.01359E-003	5	..........a	-327.66
	12	2.6	-1.68233E-001	-2.96114E-008	0.00000E+000	-1.68300E-001	1.04969E-003	5	..........a	-327.66
	13	2.8	-1.78189E-001	-3.17558E-008	0.00000E+000	-1.78300E-001	1.03009E-003	5	..........a	-327.66
	14	3	-1.88245E-001	-3.38741E-008	0.00000E+000	-1.88300E-001	1.03029E-003	5	..........a	-327.66
	15	3.2	-1.98242E-001	-3.59511E-008	0.00000E+000	-1.98300E-001	9.98592E-004	5	..........a	-327.66
	16	3.4	-2.08252E-001	-3.80340E-008	0.00000E+000	-2.08300E-001	1.03169E-003	5	..........a	-327.66
	17	3.6	-2.18188E-001	-4.01093E-008	0.00000E+000	-2.18300E-001	1.01939E-003	5	..........a	-327.66
	18	3.8	-2.28232E-001	-4.21948E-008	0.00000E+000	-2.28300E-001	1.01869E-003	5	..........a	-327.66
	19	4	-2.38168E-001	-4.42734E-008	0.00000E+000	-2.38300E-001	1.00899E-003	5	..........a	-327.66
	20	4.2	-2.48218E-001	-4.63284E-008	0.00000E+000	-2.48300E-001	1.03399E-003	5	..........a	-327.66
	21	4.4	-2.58117E-001	-4.84310E-008	0.00000E+000	-2.58300E-001	1.02369E-003	5	..........a	-327.66
	22	4.6	-2.68233E-001	-5.05671E-008	0.00000E+000	-2.68300E-001	1.02169E-003	5	..........a	-327.66
	23	4.8	-2.78214E-001	-5.27516E-008	0.00000E+000	-2.78300E-001	1.03639E-003	5	..........a	-327.66
	24	5	-2.88211E-001	-5.50003E-008	0.00000E+000	-2.88300E-001	1.00419E-003	5	..........a	-327.66
	25	5.2	-2.98159E-001	-5.73600E-008	0.00000E+000	-2.98300E-001	1.02349E-003	5	..........a	-327.66
	26	5.4	-3.08226E-001	-5.97957E-008	0.00000E+000	-3.08300E-001	1.02059E-003	5	..........a	-327.66
	27	5.6	-3.18123E-001	-6.23892E-008	0.00000E+000	-3.18300E-001	1.03419E-003	5	..........a	-327.66
	28	5.8	-3.28211E-001	-6.50966E-008	0.00000E+000	-3.28300E-001	1.06119E-003	5	..........a	-327.66
	29	6	-3.38078E-001	-6.79038E-008	0.00000E+000	-3.38300E-001	1.05959E-003	5	..........a	-327.66
	30	6.2	-3.48205E-001	-7.08491E-008	0.00000E+000	-3.48300E-001	1.02039E-003	5	..........a	-327.66
	31	6.4	-3.58248E-001	-7.39213E-008	0.00000E+000	-3.58300E-001	1.03839E-003	5	..........a	-327.66
	32	6.6	-3.68211E-001	-7.70693E-008	0.00000E+000	-3.68300E-001	1.01709E-003	5	..........a	-327.66
	33	6.8	-3.78119E-001	-8.02396E-008	0.00000E+000	-3.78300E-001	1.01459E-003	5	..........a	-327.66
	34	7	-3.88199E-001	-8.35182E-008	0.00000E+000	-3.88300E-001	1.04839E-003	5	..........a	-327.66
	35	7.2	-3.98145E-001	-8.67682E-008	0.00000E+000	-3.98300E-001	1.03819E-003	5	..........a	-327.66
	36	7.4	-4.08200E-001	-8.99930E-008	0.00000E+000	-4.08300E-001	1.03419E-003	5	..........a	-327.66
	37	7.6	-4.18055E-001	-9.31907E-008	0.00000E+000	-4.18300E-001	1.02369E-003	5	..........a	-327.66
	38	7.8	-4.28172E-001	-9.63039E-008	0.00000E+000	-4.28300E-001	1.02309E-003	5	..........a	-327.66
	39	8	-4.38174E-001	-9.93849E-008	0.00000E+000	-4.38300E-001	1.01699E-003	5	..........a	-327.66
	40	8.2	-4.48178E-001	-1.02432E-007	0.00000E+000	-4.48300E-001	1.01589E-003	5	..........a	-327.66
	41	8.4	-4.58073E-001	-1.05436E-007	0.00000E+000	-4.58300E-001	1.02179E-003	5	..........a	-327.66
	42	8.6	-4.68164E-001	-1.08416E-007	0.00000E+000	-4.68300E-001	1.03559E-003	5	..........a	-327.66
	43	8.8	-4.78122E-001	-1.11355E-007	0.00000E+000	-4.78300E-001	1.02179E-003	5	..........a	-327.66
	44	9	-4.88160E-001	-1.14307E-007	0.00000E+000	-4.88300E-001	1.02409E-003	5	..........a	-327.66
	45	9.2	-4.98056E-001	-1.17260E-007	0.00000E+000	-4.98300E-001	1.04109E-003	5	..........a	-327.66
	46	9.4	-5.08136E-001	-1.20227E-007	0.00000E+000	-5.08300E-001	1.01799E-003	5	..........a	-327.66
	47	9.6	-5.18148E-001	-1.23234E-007	0.00000E+000	-5.18300E-001	1.01289E-003	5	..........a	-327.66
	48	9.8	-5.28168E-001	-1.26148E-007	0.00000E+000	-5.28300E-001	1.03929E-003	5	..........a	-327.66
	49	10	-5.38058E-001	-1.29137E-007	0.00000E+000	-5.38300E-001	1.03109E-003	5	..........a	-327.66
	50	10.2	-5.48231E-001	-1.32123E-007	0.00000E+000	-5.48300E-001	1.01599E-003	5	..........a	-327.66
	51	10.4	-5.58178E-001	-1.35128E-007	0.00000E+000	-5.58300E-001	1.05609E-003	5	..........a	-327.66
	52	10.6	-5.68157E-001	-1.38108E-007	0.00000E+000	-5.68300E-001	1.03579E-003	5	..........a	-327.66
	53	10.8	-5.78084E-001	-1.41139E-007	0.00000E+000	-5.78300E-001	1.03099E-003	5	..........a	-327.66
	54	11	-5.88163E-001	-1.44193E-007	0.00000E+000	-5.88300E-001	1.04449E-003	5	..........a	-327.66
	55	11.2	-5.98107E-001	-1.47297E-007	0.00000E+000	-5.98300E-001	1.03239E-003	5	..........a	-327.66
	56	11.4	-5.88180E-001	-1.34921E-007	0.00000E+000	-5.88300E-001	1.02719E-003	5	..........a	-327.66
	57	11.6	-5.78103E-001	-1.26053E-007	0.00000E+000	-5.78300E-001	1.02219E-003	5	..........a	-327.66
	58	11.8	-5.68165E-001	-1.18736E-007	0.00000E+000	-5.68300E-001	1.01619E-003	5	..........a	-327.66
	59	12	-5.58160E-001	-1.12313E-007	0.00000E+000	-5.58300E-001	1.05029E-003	5	..........a	-327.66
	60	12.2	-5.48201E-001	-1.06480E-007	0.00000E+000	-5.48300E-001	1.04419E-003	5	..........a	-327.66
	61	12.4	-5.38048E-001	-1.01087E-007	0.00000E+000	-5.38300E-001	1.05989E-003	5	..........a	-327.66
	62	12.6	-5.28180E-001	-9.60527E-008	0.00000E+000	-5.28300E-001	1.02259E-003	5	..........a	-327.66
	63	12.8	-5.18097E-001	-9.12948E-008	0.00000E+000	-5.18300E-001	1.03019E-003	5	..........a	-327.66
	64	13	-5.08179E-001	-8.67455E-008	0.00000E+000	-5.08300E-001	1.02459E-003	5	..........a	-327.66
	65	13.2	-4.98064E-001	-8.23902E-008	0.00000E+000	-4.98300E-001	1.03609E-003	5	..........a	-327.66
	66	13.4	-4.88156E-001	-7.81382E-008	0.00000E+000	-4.88300E-001	1.01279E-003	5	..........a	-327.66
	67	13.6	-4.78194E-001	-7.40717E-008	0.00000E+000	-4.78300E-001	1.02029E-003	5	..........a	-327.66
	68	13.8	-4.68180E-001	-7.01247E-008	0.00000E+000	-4.68300E-001	1.02629E-003	5	..........a	-327.66
	69	14	-4.58098E-001	-6.62808E-008	0.00000E+000	-4.58300E-001	1.02309E-003	5	..........a	-327.66
	70	14.2	-4.48192E-001	-6.25046E-008	0.00000E+000	-4.48300E-001	1.02999E-003	5	..........a	-327.66
	71	14.4	-4.38256E-001	-5.88363E-008	0.00000E+000	-4.38300E-001	1.01559E-003	5	..........a	-327.66
	72	14.6	-4.28180E-001	-5.52046E-008	0.00000E+000	-4.28300E-001	1.04659E-003	5	..........a	-327.66
	73	14.8	-4.18062E-001	-5.16742E-008	0.00000E+000	-4.18300E-001	1.02449E-003	5	..........a	-327.66
	74	15	-4.08219E-001	-4.81700E-008	0.00000E+000	-4.08300E-001	1.01659E-003	5	..........a	-327.66
	75	15.2	-3.98183E-001	-4.47726E-008	0.00000E+000	-3.98300E-001	1.03799E-003	5	..........a	-327.66
	76	15.4	-3.88217E-001	-4.14283E-008	0.00000E+000	-3.88300E-001	1.01929E-003	5	..........a	-327.66
	77	15.6	-3.78123E-001	-3.81179E-008	0.00000E+000	-3.78300E-001	1.01369E-003	5	..........a	-327.66
	78	15.8	-3.68215E-001	-3.49433E-008	0.00000E+000	-3.68300E-001	1.03889E-003	5	..........a	-327.66
	79	16	-3.58204E-001	-3.18307E-008	0.00000E+000	-3.58300E-001	1.03459E-003	5	..........a	-327.66
	80	16.2	-3.48210E-001	-2.88239E-008	0.00000E+000	-3.48300E-001	1.05359E-003	5	..........a	-327.66
	81	16.4	-3.38120E-001	-2.59472E-008	0.00000E+000	-3.38300E-001	9.99492E-004	5	..........a	-327.66
	82	16.6	-3.28225E-001	-2.31692E-008	0.00000E+000	-3.28300E-001	1.03949E-003	5	..........a	-327.66
	83	16.8	-3.18146E-001	-2.04772E-008	0.00000E+000	-3.18300E-001	1.02489E-003	5	..........a	-327.66
	84	17	-3.08263E-001	-1.78712E-008	0.00000E+000	-3.08300E-001	1.04749E-003	5	..........a	-327.66
	85	17.2	-2.98170E-001	-1.54103E-008	0.00000E+000	-2.98300E-001	9.99892E-004	5	..........a	-327.66
	86	17.4	-2.88220E-001	-1.30346E-008	0.00000E+000	-2.88300E-001	1.04449E-003	5	..........a	-327.66
	87	17.6	-2.78184E-001	-1.07140E-008	0.00000E+000	-2.78300E-001	1.02679E-003	5	..........a	-327.66
	88	17.8	-2.68231E-001	-8.51478E-009	0.00000E+000	-2.68300E-001	1.01979E-003	5	..........a	-327.66
	89	18	-2.58121E-001	-6.39732E-009	0.00000E+000	-2.58300E-001	1.03169E-003	5	..........a	-327.66
	90	18.2	-2.48217E-001	-4.32915E-009	0.00000E+000	-2.48300E-001	1.02389E-003	5	..........a	-327.66
	91	18.4	-2.38229E-001	-2.35711E-009	0.00000E+000	-2.38300E-001	1.01709E-003	5	..........a	-327.66
	92	18.6	-2.28228E-001	-4.40760E-010	0.00000E+000	-2.28300E-001	1.03609E-003	5	..........a	-327.66
	93	18.8	-2.18191E-001	1.48374E-009	0.00000E+000	-2.18300E-001	1.02589E-003	5	..........a	-327.66
	94	19	-2.08260E-001	3.29439E-009	0.00000E+000	-2.08300E-001	1.03009E-003	5	..........a	-327.66
	95	19.2	-1.98283E-001	5.07612E-009	0.00000E+000	-1.98300E-001	1.03069E-003	5	..........a	-327.66
	96	19.4	-1.88244E-001	6.82559E-009	0.00000E+000	-1.88300E-001	1.00799E-003	5	..........a	-327.66
	97	19.6	-1.78194E-001	8.51972E-009	0.00000E+000	-1.78300E-001	9.95892E-004	5	..........a	-327.66
	98	19.8	-1.68237E-001	1.01855E-008	0.00000E+000	-1.68300E-001	1.04739E-003	5	..........a	-327.66
	99	20	-1.58265E-001	1.18599E-008	0.00000E+000	-1.58300E-001	1.02659E-003	5	..........a	-327.66
	100	20.2	-1.48281E-001	1.34639E-008	0.00000E+000	-1.48300E-001	1.01859E-003	5	..........a	-327.66
	101	20.4	-1.38270E-001	1.50602E-008	0.00000E+000	-1.38300E-001	1.03599E-003	5	..........a	-327.66
	102	20.6	-1.28292E-001	1.66276E-008	0.00000E+000	-1.28300E-001	1.02269E-003	5	..........a	-327.66
	103	20.8	-1.18274E-001	1.81480E-008	0.00000E+000	-1.18300E-001	1.03649E-003	5	..........a	-327.66
	104	21	-1.08276E-001	1.96642E-008	0.00000E+000	-1.08300E-001	1.03999E-003	5	..........a	-327.66
	105	21.2	-9.81976E-002	2.11551E-008	0.00000E+000	-9.83000E-002	1.02059E-003	5	..........a	-327.66
	106	21.4	-8.83099E-002	2.26122E-008	0.00000E+000	-8.83000E-002	1.03859E-003	5	..........a	-327.66
	107	21.6	-7.82684E-002	2.40717E-008	0.00000E+000	-7.83000E-002	1.03149E-003	5	..........a	-327.66
	108	21.8	-6.82426E-002	2.54985E-008	0.00000E+000	-6.83000E-002	1.03799E-003	5	..........a	-327.66
	109	22	-5.81484E-002	2.69048E-008	0.00000E+000	-5.83000E-002	1.00569E-003	5	..........a	-327.66
	110	22.2	-4.83221E-002	2.83008E-008	0.00000E+000	-4.83000E-002	1.02289E-003	5	..........a	-327.66
	111	22.4	-3.82434E-002	2.97046E-008	0.00000E+000	-3.83000E-002	1.02659E-003	5	..........a	-327.66
	112	22.6	-2.82686E-002	3.10899E-008	0.00000E+000	-2.83000E-002	1.00369E-003	5	..........a	-327.66
	113	22.8	-1.82213E-002	3.24712E-008	0.00000E+000	-1.83000E-002	1.02679E-003	5	..........a	-327.66
	114	23	-8.32121E-003	3.38678E-008	0.00000E+000	-8.30000E-003	1.03469E-003	5	..........a	-327.66
	115	23.2	1.76399E-003	3.52754E-008	0.00000E+000	1.70001E-003	1.01669E-003	5	..........a	-327.66
	116	23.4	1.17637E-002	3.66554E-008	0.00000E+000	1.17000E-002	9.99292E-004	5	..........a	-327.66
	117	23.6	2.18357E-002	3.80954E-008	0.00000E+000	2.17000E-002	1.03319E-003	5	..........a	-327.66
	118	23.8	3.17287E-002	3.95447E-008	0.00000E+000	3.17000E-002	1.02519E-003	5	..........a	-327.66
	119	24	4.17270E-002	4.09933E-008	0.00000E+000	4.17000E-002	1.04429E-003	5	..........a	-327.66
	120	24.2	5.16981E-002	4.25119E-008	0.00000E+000	5.17000E-002	1.00169E-003	5	..........a	-327.66
	121	24.4	6.17749E-002	4.40325E-008	0.00000E+000	6.17000E-002	1.01389E-003	5	..........a	-327.66
	122	24.6	7.17138E-002	4.55796E-008	0.00000E+000	7.17000E-002	1.02829E-003	5	..........a	-327.66
	123	24.8	8.16891E-002	4.71654E-008	0.00000E+000	8.17000E-002	1.05879E-003	5	..........a	-327.66
	124	25	9.16853E-002	4.87508E-008	0.00000E+000	9.17000E-002	1.03209E-003	5	..........a	-327.66
	125	25.2	1.01818E-001	5.04017E-008	0.00000E+000	1.01700E-001	1.03459E-003	5	..........a	-327.66
	126	25.4	1.11763E-001	5.20528E-008	0.00000E+000	1.11700E-001	1.02969E-003	5	..........a	-327.66
	127	25.6	1.21647E-001	5.37268E-008	0.00000E+000	1.21700E-001	1.02879E-003	5	..........a	-327.66
	128	25.8	1.31748E-001	5.54686E-008	0.00000E+000	1.31700E-001	1.02489E-003	5	..........a	-327.66
	129	26	1.41858E-001	5.72557E-008	0.00000E+000	1.41700E-001	1.02699E-003	5	..........a	-327.66
	130	26.2	1.51679E-001	5.87954E-008	0.00000E+000	1.51700E-001	1.01869E-003	5	..........a	-327.66
	131	26.4	1.61743E-001	6.05152E-008	0.00000E+000	1.61700E-001	1.03179E-003	5	..........a	-327.66
	132	26.6	1.71715E-001	6.21866E-008	0.00000E+000	1.71700E-001	1.01459E-003	5	..........a	-327.66
	133	26.8	1.81810E-001	6.38807E-008	0.00000E+000	1.81700E-001	1.01319E-003	5	..........a	-327.66
	134	27	1.91757E-001	6.56306E-008	0.00000E+000	1.91700E-001	1.03769E-003	5	..........a	-327.66
	135	27.2	2.01726E-001	6.73799E-008	0.00000E+000	2.01700E-001	1.01889E-003	5	..........a	-327.66
	136	27.4	2.11648E-001	6.92821E-008	0.00000E+000	2.11700E-001	1.04779E-003	5	..........a	-327.66
	137	27.6	2.21791E-001	7.13826E-008	0.00000E+000	2.21700E-001	1.03609E-003	5	..........a	-327.66
	138	27.8	2.31703E-001	7.34480E-008	0.00000E+000	2.31700E-001	1.00779E-003	5	..........a	-327.66
	139	28	2.41702E-001	7.53198E-008	0.00000E+000	2.41700E-001	1.04129E-003	5	..........a	-327.66
	140	28.2	2.51682E-001	7.70732E-008	0.00000E+000	2.51700E-001	1.02259E-003	5	..........a	-327.66
	141	28.4	2.61729E-001	7.88239E-008	0.00000E+000	2.61700E-001	1.04709E-003	5	..........a	-327.66
	142	28.6	2.71642E-001	8.05673E-008	0.00000E+000	2.71700E-001	1.02089E-003	5	..........a	-327.66
	143	28.8	2.81605E-001	8.23592E-008	0.00000E+000	2.81700E-001	1.05469E-003	5	..........a	-327.66
	144	29	2.91671E-001	8.42862E-008	0.00000E+000	2.91700E-001	1.04009E-003	5	..........a	-327.66
	145	29.2	3.01762E-001	8.62797E-008	0.00000E+000	3.01700E-001	1.01029E-003	5	..........a	-327.66
	146	29.4	3.11677E-001	8.83463E-008	0.00000E+000	3.11700E-001	1.02479E-003	5	..........a	-327.66
	147	29.6	3.21650E-001	9.04823E-008	0.00000E+000	3.21700E-001	1.04889E-003	5	..........a	-327.66
	148	29.8	3.31658E-001	9.26701E-008	0.00000E+000	3.31700E-001	1.05489E-003	5	..........a	-327.66
	149	30	3.41721E-001	9.49316E-008	0.00000E+000	3.41700E-001	1.02999E-003	5	..........a	-327.66
	150	30.2	3.51640E-001	9.72263E-008	0.00000E+000	3.51700E-001	1.02199E-003	5	..........a	-327.66
	151	30.4	3.61615E-001	9.96105E-008	0.00000E+000	3.61700E-001	1.05839E-003	5	..........a	-327.66
	152	30.6	3.71675E-001	1.02009E-007	0.00000E+000	3.71700E-001	1.05159E-003	5	..........a	-327.66
	153	30.8	3.81731E-001	1.04527E-007	0.00000E+000	3.81700E-001	1.03059E-003	5	..........a	-327.66
	154	31	3.91692E-001	1.07037E-007	0.00000E+000	3.91700E-001	1.03069E-003	5	..........a	-327.66
	155	31.2	4.01618E-001	1.09591E-007	0.00000E+000	4.01700E-001	1.01629E-003	5	..........a	-327.66
	156	31.4	4.11611E-001	1.12176E-007	0.00000E+000	4.11700E-001	1.03499E-003	5	..........a	-327.66
	157	31.6	4.21680E-001	1.14784E-007	0.00000E+000	4.21700E-001	1.02419E-003	5	..........a	-327.66
	158	31.8	4.31615E-001	1.17397E-007	0.00000E+000	4.31700E-001	1.02299E-003	5	..........a	-327.66
	159	32	4.41608E-001	1.19974E-007	0.00000E+000	4.41700E-001	1.02979E-003	5	..........a	-327.66
	160	32.2	4.51628E-001	1.22567E-007	0.00000E+000	4.51700E-001	1.04469E-003	5	..........a	-327.66
	161	32.4	4.61628E-001	1.25235E-007	0.00000E+000	4.61700E-001	1.01749E-003	5	..........a	-327.66
	162	32.6	4.71670E-001	1.27732E-007	0.00000E+000	4.71700E-001	1.01449E-003	5	..........a	-327.66
	163	32.8	4.81575E-001	1.30179E-007	0.00000E+000	4.81700E-001	1.04159E-003	5	..........a	-327.66
	164	33	4.91604E-001	1.32546E-007	0.00000E+000	4.91700E-001	1.02129E-003	5	..........a	-327.66
	165	33.2	5.01557E-001	1.34856E-007	0.00000E+000	5.01700E-001	1.02729E-003	5	..........a	-327.66
	166	33.4	5.11593E-001	1.37107E-007	0.00000E+000	5.11700E-001	1.04599E-003	5	..........a	-327.66
	167	33.6	5.21649E-001	1.39309E-007	0.00000E+000	5.21700E-001	1.04539E-003	5	..........a	-327.66
	168	33.8	5.31574E-001	1.41471E-007	0.00000E+000	5.31700E-001	1.01829E-003	5	..........a	-327.66
	169	34	5.41664E-001	1.43681E-007	0.00000E+000	5.41700E-001	1.01479E-003	5	..........a	-327.66
	170	34.2	5.51636E-001	1.45926E-007	0.00000E+000	5.51700E-001	1.02809E-003	5	..........a	-327.66
	171	34.4	5.61594E-001	1.48169E-007	0.00000E+000	5.61700E-001	1.05439E-003	5	..........a	-327.66
	172	34.6	5.71624E-001	1.50483E-007	0.00000E+000	5.71700E-001	1.02219E-003	5	..........a	-327.66
	173	34.8	5.81655E-001	1.52840E-007	0.00000E+000	5.81700E-001	1.00479E-003	5	..........a	-327.66
	174	35	5.91628E-001	1.55291E-007	0.00000E+000	5.91700E-001	1.01839E-003	5	..........a	-327.66
	175	35.2	6.01637E-001	1.57768E-007	0.00000E+000	6.01700E-001	1.02949E-003	5	..........a	-327.66
	176	35.4	6.11629E-001	1.60318E-007	0.00000E+000	6.11700E-001	1.02689E-003	5	..........a	-327.66
	177	35.6	6.21586E-001	1.62976E-007	0.00000E+000	6.21700E-001	1.01119E-003	5	..........a	-327.66
	178	35.8	6.31543E-001	1.65672E-007	0.00000E+000	6.31700E-001	1.05719E-003	5	..........a	-327.66
	179	36	6.41549E-001	1.68436E-007	0.00000E+000	6.41700E-001	1.02559E-003	5	..........a	-327.66
	180	36.2	6.51568E-001	1.71238E-007	0.00000E+000	6.51700E-001	1.03639E-003	5	..........a	-327.66
	181	36.4	6.61580E-001	1.74089E-007	0.00000E+000	6.61700E-001	1.01889E-003	5	..........a	-327.66
	182	36.6	6.71587E-001	1.77015E-007	0.00000E+000	6.71700E-001	1.03669E-003	5	..........a	-327.66
	183	36.8	6.81532E-001	1.80035E-007	0.00000E+000	6.81700E-001	1.00149E-003	5	..........a	-327.66
	184	37	6.91531E-001	1.83161E-007	0.00000E+000	6.91700E-001	1.03699E-003	5	..........a	-327.66
	185	37.2	7.01563E-001	1.86485E-007	0.00000E+000	7.01700E-001	1.01819E-003	5	..........a	-327.66
	186	37.4	7.11594E-001	1.90076E-007	0.00000E+000	7.11700E-001	1.04599E-003	5	..........a	-327.66
	187	37.6	7.21547E-001	1.93877E-007	0.00000E+000	7.21700E-001	1.03689E-003	5	..........a	-327.66
	188	37.8	7.31531E-001	1.97770E-007	0.00000E+000	7.31700E-001	1.02809E-003	5	..........a	-327.66
	189	38	7.41543E-001	2.01970E-007	0.00000E+000	7.41700E-001	1.03139E-003	5	..........a	-327.66
	190	38.2	7.51609E-001	2.06613E-007	0.00000E+000	7.51700E-001	1.02639E-003	5	..........a	-327.66
	191	38.4	7.61530E-001	2.11732E-007	0.00000E+000	7.61700E-001	1.03509E-003	5	..........a	-327.66
	192	38.6	7.71525E-001	2.17478E-007	0.00000E+000	7.71700E-001	1.01689E-003	5	..........a	-327.66
	193	38.8	7.81564E-001	2.22197E-007	0.00000E+000	7.81700E-001	1.01769E-003	5	..........a	-327.66
	194	39	7.91580E-001	2.26342E-007	0.00000E+000	7.91700E-001	1.03549E-003	5	..........a	-327.66
	195	39.2	8.01527E-001	2.31087E-007	0.00000E+000	8.01700E-001	1.00969E-003	5	..........a	-327.66
CURVE2	TABLE
	Pt	T	Vf	Im	Vu	Sig	Ach	IERange	Over	Temp
	#	s	V vs. Ref.	A	V	V	V	#	bits	deg C
	196	39.4	7.89931E-001	1.92378E-007	0.00000E+000	7.90000E-001	1.02799E-003	5	..........a	-327.66
	197	39.6	7.79870E-001	1.70783E-007	0.00000E+000	7.80000E-001	1.01849E-003	5	..........a	-327.66
	198	39.8	7.69886E-001	1.54856E-007	0.00000E+000	7.70000E-001	1.02889E-003	5	..........a	-327.66
	199	40	7.59863E-001	1.42348E-007	0.00000E+000	7.60000E-001	1.05049E-003	5	..........a	-327.66
	200	40.2	7.49963E-001	1.32145E-007	0.00000E+000	7.50000E-001	1.02629E-003	5	..........a	-327.66
	201	40.4	7.39890E-001	1.23480E-007	0.00000E+000	7.40000E-001	1.02649E-003	5	..........a	-327.66
	202	40.6	7.29883E-001	1.15906E-007	0.00000E+000	7.30000E-001	1.05059E-003	5	..........a	-327.66
	203	40.8	7.19892E-001	1.09224E-007	0.00000E+000	7.20000E-001	1.01989E-003	5	..........a	-327.66
	204	41	7.09960E-001	1.03184E-007	0.00000E+000	7.10000E-001	1.03489E-003	5	..........a	-327.66
	205	41.2	6.99891E-001	9.76652E-008	0.00000E+000	7.00000E-001	1.01669E-003	5	..........a	-327.66
	206	41.4	6.89877E-001	9.25571E-008	0.00000E+000	6.90000E-001	1.04849E-003	5	..........a	-327.66
	207	41.6	6.79896E-001	8.78099E-008	0.00000E+000	6.80000E-001	1.02539E-003	5	..........a	-327.66
	208	41.8	6.69964E-001	8.33605E-008	0.00000E+000	6.70000E-001	1.03299E-003	5	..........a	-327.66
	209	42	6.59914E-001	7.91407E-008	0.00000E+000	6.60000E-001	1.02239E-003	5	..........a	-327.66
	210	42.2	6.49920E-001	7.51794E-008	0.00000E+000	6.50000E-001	1.04469E-003	5	..........a	-327.66
	211	42.4	6.39894E-001	7.13677E-008	0.00000E+000	6.40000E-001	1.05219E-003	5	..........a	-327.66
	212	42.6	6.30029E-001	6.77766E-008	0.00000E+000	6.30000E-001	1.01869E-003	5	..........a	-327.66
	213	42.8	6.19915E-001	6.42991E-008	0.00000E+000	6.20000E-001	1.02099E-003	5	..........a	-327.66
	214	43	6.09933E-001	6.09599E-008	0.00000E+000	6.10000E-001	1.03199E-003	5	..........a	-327.66
	215	43.2	5.99971E-001	5.77823E-008	0.00000E+000	6.00000E-001	1.00759E-003	5	..........a	-327.66
	216	43.4	5.89988E-001	5.46906E-008	0.00000E+000	5.90000E-001	1.06539E-003	5	..........a	-327.66
	217	43.6	5.79992E-001	5.16937E-008	0.00000E+000	5.80000E-001	9.97692E-004	5	..........a	-327.66
	218	43.8	5.69933E-001	4.87905E-008	0.00000E+000	5.70000E-001	1.03899E-003	5	..........a	-327.66
	219	44	5.59951E-001	4.59426E-008	0.00000E+000	5.60000E-001	1.04729E-003	5	..........a	-327.66
	220	44.2	5.50025E-001	4.31668E-008	0.00000E+000	5.50000E-001	1.02429E-003	5	..........a	-327.66
	221	44.4	5.39989E-001	4.04444E-008	0.00000E+000	5.40000E-001	1.00699E-003	5	..........a	-327.66
	222	44.6	5.29954E-001	3.77969E-008	0.00000E+000	5.30000E-001	1.04379E-003	5	..........a	-327.66
	223	44.8	5.19974E-001	3.52236E-008	0.00000E+000	5.20000E-001	1.02529E-003	5	..........a	-327.66
	224	45	5.09973E-001	3.26963E-008	0.00000E+000	5.10000E-001	1.02059E-003	5	..........a	-327.66
	225	45.2	5.00027E-001	3.01752E-008	0.00000E+000	5.00000E-001	1.03059E-003	5	..........a	-327.66
	226	45.4	4.89937E-001	2.77265E-008	0.00000E+000	4.90000E-001	1.03789E-003	5	..........a	-327.66
	227	45.6	4.79932E-001	2.52583E-008	0.00000E+000	4.80000E-001	1.03909E-003	5	..........a	-327.66
	228	45.8	4.70013E-001	2.28529E-008	0.00000E+000	4.70000E-001	1.04239E-003	5	..........a	-327.66
	229	46	4.59996E-001	2.04215E-008	0.00000E+000	4.60000E-001	1.01699E-003	5	..........a	-327.66
	230	46.2	4.49915E-001	1.80439E-008	0.00000E+000	4.50000E-001	1.05069E-003	5	..........a	-327.66
	231	46.4	4.39967E-001	1.56864E-008	0.00000E+000	4.40000E-001	1.02039E-003	5	..........a	-327.66
	232	46.6	4.29940E-001	1.33337E-008	0.00000E+000	4.30000E-001	1.03559E-003	5	..........a	-327.66
	233	46.8	4.20016E-001	1.10105E-008	0.00000E+000	4.20000E-001	1.01549E-003	5	..........a	-327.66
	234	47	4.09951E-001	8.69647E-009	0.00000E+000	4.10000E-001	1.05329E-003	5	..........a	-327.66
	235	47.2	4.00002E-001	6.41115E-009	0.00000E+000	4.00000E-001	1.02719E-003	5	..........a	-327.66
	236	47.4	3.90026E-001	4.18873E-009	0.00000E+000	3.90000E-001	1.02439E-003	5	..........a	-327.66
	237	47.6	3.80070E-001	2.05492E-009	0.00000E+000	3.80000E-001	1.01059E-003	5	..........a	-327.66
	238	47.8	3.70038E-001	-1.35979E-010	0.00000E+000	3.70000E-001	1.02159E-003	5	..........a	-327.66
	239	48	3.59994E-001	-2.23782E-009	0.00000E+000	3.60000E-001	1.02959E-003	5	..........a	-327.66
	240	48.2	3.50065E-001	-4.28910E-009	0.00000E+000	3.50000E-001	1.03989E-003	5	..........a	-327.66
	241	48.4	3.40085E-001	-6.31447E-009	0.00000E+000	3.40000E-001	9.96792E-004	5	..........a	-327.66
	242	48.6	3.30026E-001	-8.22717E-009	0.00000E+000	3.30000E-001	1.01209E-003	5	..........a	-327.66
	243	48.8	3.20054E-001	-1.01512E-008	0.00000E+000	3.20000E-001	1.03089E-003	5	..........a	-327.66
	244	49	3.10023E-001	-1.19594E-008	0.00000E+000	3.10000E-001	1.05439E-003	5	..........a	-327.66
	245	49.2	3.00065E-001	-1.37722E-008	0.00000E+000	3.00000E-001	9.98992E-004	5	..........a	-327.66
	246	49.4	2.90065E-001	-1.54658E-008	0.00000E+000	2.90000E-001	1.04229E-003	5	..........a	-327.66
	247	49.6	2.79960E-001	-1.71397E-008	0.00000E+000	2.80000E-001	1.04489E-003	5	..........a	-327.66
	248	49.8	2.70059E-001	-1.88062E-008	0.00000E+000	2.70000E-001	1.00259E-003	5	..........a	-327.66
	249	50	2.60060E-001	-2.03627E-008	0.00000E+000	2.60000E-001	1.04019E-003	5	..........a	-327.66
	250	50.2	2.50008E-001	-2.19146E-008	0.00000E+000	2.50000E-001	1.03469E-003	5	..........a	-327.66
	251	50.4	2.40058E-001	-2.33702E-008	0.00000E+000	2.40000E-001	1.01909E-003	5	..........a	-327.66
	252	50.6	2.30039E-001	-2.48058E-008	0.00000E+000	2.30000E-001	1.04479E-003	5	..........a	-327.66
	253	50.8	2.20068E-001	-2.62688E-008	0.00000E+000	2.20000E-001	1.00279E-003	5	..........a	-327.66
	254	51	2.10016E-001	-2.76120E-008	0.00000E+000	2.10000E-001	1.02769E-003	5	..........a	-327.66
	255	51.2	2.00059E-001	-2.89818E-008	0.00000E+000	2.00000E-001	1.03349E-003	5	..........a	-327.66
	256	51.4	1.90124E-001	-3.03403E-008	0.00000E+000	1.90000E-001	1.01239E-003	5	..........a	-327.66
	257	51.6	1.80108E-001	-3.17065E-008	0.00000E+000	1.80000E-001	1.02869E-003	5	..........a	-327.66
	258	51.8	1.70049E-001	-3.29823E-008	0.00000E+000	1.70000E-001	1.03229E-003	5	..........a	-327.66
	259	52	1.60085E-001	-3.43191E-008	0.00000E+000	1.60000E-001	1.04429E-003	5	..........a	-327.66
	260	52.2	1.50078E-001	-3.57004E-008	0.00000E+000	1.50000E-001	1.01899E-003	5	..........a	-327.66
	261	52.4	1.40134E-001	-3.70183E-008	0.00000E+000	1.40000E-001	1.03769E-003	5	..........a	-327.66
	262	52.6	1.30052E-001	-3.83669E-008	0.00000E+000	1.30000E-001	1.04999E-003	5	..........a	-327.66
	263	52.8	1.20065E-001	-3.96416E-008	0.00000E+000	1.20000E-001	1.02769E-003	5	..........a	-327.66
	264	53	1.10112E-001	-4.09608E-008	0.00000E+000	1.10000E-001	1.01169E-003	5	..........a	-327.66
	265	53.2	1.00111E-001	-4.22317E-008	0.00000E+000	1.00000E-001	1.01849E-003	5	..........a	-327.66
	266	53.4	9.00823E-002	-4.34152E-008	0.00000E+000	9.00000E-002	1.00819E-003	5	..........a	-327.66
	267	53.6	8.00772E-002	-4.42868E-008	0.00000E+000	8.00000E-002	1.00409E-003	5	..........a	-327.66
	268	53.8	7.00608E-002	-4.59552E-008	0.00000E+000	7.00000E-002	1.03269E-003	5	..........a	-327.66
	269	54	6.01276E-002	-4.71814E-008	0.00000E+000	6.00000E-002	1.02749E-003	5	..........a	-327.66
	270	54.2	5.00381E-002	-4.83594E-008	0.00000E+000	5.00000E-002	1.02679E-003	5	..........a	-327.66
	271	54.4	4.00277E-002	-4.95211E-008	0.00000E+000	4.00000E-002	1.01239E-003	5	..........a	-327.66
	272	54.6	3.00873E-002	-5.05718E-008	0.00000E+000	3.00000E-002	1.02899E-003	5	..........a	-327.66
	273	54.8	2.01688E-002	-5.16560E-008	0.00000E+000	2.00000E-002	1.01719E-003	5	..........a	-327.66
	274	55	1.01070E-002	-5.29729E-008	0.00000E+000	1.00000E-002	1.02569E-003	5	..........a	-327.66
	275	55.2	5.27917E-005	-5.43421E-008	0.00000E+000	7.45058E-009	1.02599E-003	5	..........a	-327.66
	276	55.4	-9.88516E-003	-5.66175E-008	0.00000E+000	-1.00000E-002	1.02999E-003	5	..........a	-327.66
	277	55.6	-1.98762E-002	-5.65903E-008	0.00000E+000	-2.00000E-002	1.04129E-003	5	..........a	-327.66
	278	55.8	-2.99247E-002	-5.73743E-008	0.00000E+000	-3.00000E-002	9.94792E-004	5	..........a	-327.66
	279	56	-3.99168E-002	-5.84620E-008	0.00000E+000	-4.00000E-002	1.03619E-003	5	..........a	-327.66
	280	56.2	-4.98991E-002	-5.94563E-008	0.00000E+000	-5.00000E-002	1.04189E-003	5	..........a	-327.66
	281	56.4	-5.98355E-002	-6.06384E-008	0.00000E+000	-6.00000E-002	1.00539E-003	5	..........a	-327.66
	282	56.6	-6.98925E-002	-6.19350E-008	0.00000E+000	-7.00000E-002	1.01689E-003	5	..........a	-327.66
	283	56.8	-7.99568E-002	-6.35866E-008	0.00000E+000	-8.00000E-002	1.01549E-003	5	..........a	-327.66
	284	57	-8.98824E-002	-6.45034E-008	0.00000E+000	-9.00000E-002	1.01499E-003	5	..........a	-327.66
	285	57.2	-9.98679E-002	-6.58911E-008	0.00000E+000	-1.00000E-001	1.00379E-003	5	..........a	-327.66
	286	57.4	-1.09974E-001	-6.71604E-008	0.00000E+000	-1.10000E-001	1.03729E-003	5	..........a	-327.66
	287	57.6	-1.19936E-001	-6.84785E-008	0.00000E+000	-1.20000E-001	1.03499E-003	5	..........a	-327.66
	288	57.8	-1.29923E-001	-7.02753E-008	0.00000E+000	-1.30000E-001	1.02709E-003	5	..........a	-327.66
	289	58	-1.39870E-001	-7.13432E-008	0.00000E+000	-1.40000E-001	1.01729E-003	5	..........a	-327.66
	290	58.2	-1.49936E-001	-7.26542E-008	0.00000E+000	-1.50000E-001	1.02039E-003	5	..........a	-327.66
	291	58.4	-1.59977E-001	-7.43948E-008	0.00000E+000	-1.60000E-001	1.02769E-003	5	..........a	-327.66
	292	58.6	-1.69871E-001	-7.56363E-008	0.00000E+000	-1.70000E-001	1.01459E-003	5	..........a	-327.66
	293	58.8	-1.79873E-001	-7.72216E-008	0.00000E+000	-1.80000E-001	1.00549E-003	5	..........a	-327.66
	294	59	-1.89919E-001	-7.84658E-008	0.00000E+000	-1.90000E-001	1.02359E-003	5	..........a	-327.66
	295	59.2	-1.99955E-001	-7.96276E-008	0.00000E+000	-2.00000E-001	1.04069E-003	5	..........a	-327.66
	296	59.4	-2.09888E-001	-8.11584E-008	0.00000E+000	-2.10000E-001	1.03639E-003	5	..........a	-327.66
	297	59.6	-2.19854E-001	-8.31359E-008	0.00000E+000	-2.20000E-001	1.02069E-003	5	..........a	-327.66
	298	59.8	-2.29919E-001	-8.43042E-008	0.00000E+000	-2.30000E-001	1.01649E-003	5	..........a	-327.66
	299	60	-2.39842E-001	-8.58616E-008	0.00000E+000	-2.40000E-001	1.05829E-003	5	..........a	-327.66
	300	60.2	-2.49854E-001	-8.76418E-008	0.00000E+000	-2.50000E-001	1.03809E-003	5	..........a	-327.66
	301	60.4	-2.59761E-001	-8.91779E-008	0.00000E+000	-2.60000E-001	1.03219E-003	5	..........a	-327.66
	302	60.6	-2.69844E-001	-9.11417E-008	0.00000E+000	-2.70000E-001	1.01039E-003	5	..........a	-327.66
	303	60.8	-2.79872E-001	-9.27660E-008	0.00000E+000	-2.80000E-001	1.02709E-003	5	..........a	-327.66
	304	61	-2.89883E-001	-9.50840E-008	0.00000E+000	-2.90000E-001	1.02769E-003	5	..........a	-327.66
	305	61.2	-2.99818E-001	-9.67270E-008	0.00000E+000	-3.00000E-001	1.01409E-003	5	..........a	-327.66
	306	61.4	-3.09886E-001	-9.88179E-008	0.00000E+000	-3.10000E-001	1.03219E-003	5	..........a	-327.66
	307	61.6	-3.19827E-001	-1.01355E-007	0.00000E+000	-3.20000E-001	1.01209E-003	5	..........a	-327.66
	308	61.8	-3.29875E-001	-1.03408E-007	0.00000E+000	-3.30000E-001	1.00859E-003	5	..........a	-327.66
	309	62	-3.39779E-001	-1.05511E-007	0.00000E+000	-3.40000E-001	1.03949E-003	5	..........a	-327.66
	310	62.2	-3.49843E-001	-1.07647E-007	0.00000E+000	-3.50000E-001	1.01079E-003	5	..........a	-327.66
	311	62.4	-3.59897E-001	-1.09988E-007	0.00000E+000	-3.60000E-001	1.04229E-003	5	..........a	-327.66
	312	62.6	-3.69856E-001	-1.12291E-007	0.00000E+000	-3.70000E-001	1.01099E-003	5	..........a	-327.66
	313	62.8	-3.79800E-001	-1.14507E-007	0.00000E+000	-3.80000E-001	1.01999E-003	5	..........a	-327.66
	314	63	-3.89876E-001	-1.16788E-007	0.00000E+000	-3.90000E-001	1.03109E-003	5	..........a	-327.66
	315	63.2	-3.99850E-001	-1.19151E-007	0.00000E+000	-4.00000E-001	1.02709E-003	5	..........a	-327.66
	316	63.4	-4.09847E-001	-1.21108E-007	0.00000E+000	-4.10000E-001	1.01609E-003	5	..........a	-327.66
	317	63.6	-4.19755E-001	-1.23432E-007	0.00000E+000	-4.20000E-001	1.02649E-003	5	..........a	-327.66
	318	63.8	-4.29836E-001	-1.25689E-007	0.00000E+000	-4.30000E-001	1.01599E-003	5	..........a	-327.66
	319	64	-4.39816E-001	-1.27863E-007	0.00000E+000	-4.40000E-001	1.00389E-003	5	..........a	-327.66
	320	64.2	-4.49827E-001	-1.30206E-007	0.00000E+000	-4.50000E-001	1.03139E-003	5	..........a	-327.66
	321	64.4	-4.59774E-001	-1.32745E-007	0.00000E+000	-4.60000E-001	1.01999E-003	5	..........a	-327.66
	322	64.6	-4.69831E-001	-1.34916E-007	0.00000E+000	-4.70000E-001	1.02209E-003	5	..........a	-327.66
	323	64.8	-4.79805E-001	-1.36871E-007	0.00000E+000	-4.80000E-001	1.01529E-003	5	..........a	-327.66
	324	65	-4.89831E-001	-1.39401E-007	0.00000E+000	-4.90000E-001	1.04209E-003	5	..........a	-327.66
	325	65.2	-4.99784E-001	-1.41832E-007	0.00000E+000	-5.00000E-001	1.00289E-003	5	..........a	-327.66
	326	65.4	-5.09832E-001	-1.44258E-007	0.00000E+000	-5.10000E-001	1.01619E-003	5	..........a	-327.66
	327	65.6	-5.19855E-001	-1.46425E-007	0.00000E+000	-5.20000E-001	1.01589E-003	5	..........a	-327.66
	328	65.8	-5.29824E-001	-1.49244E-007	0.00000E+000	-5.30000E-001	1.04009E-003	5	..........a	-327.66
	329	66	-5.39731E-001	-1.51543E-007	0.00000E+000	-5.40000E-001	1.03919E-003	5	..........a	-327.66
	330	66.2	-5.49853E-001	-1.54262E-007	0.00000E+000	-5.50000E-001	1.00239E-003	5	..........a	-327.66
	331	66.4	-5.59851E-001	-1.56831E-007	0.00000E+000	-5.60000E-001	1.03199E-003	5	..........a	-327.66
	332	66.6	-5.69849E-001	-1.59976E-007	0.00000E+000	-5.70000E-001	1.02239E-003	5	..........a	-327.66
	333	66.8	-5.79757E-001	-1.62471E-007	0.00000E+000	-5.80000E-001	1.00579E-003	5	..........a	-327.66
	334	67	-5.89843E-001	-1.65244E-007	0.00000E+000	-5.90000E-001	1.02419E-003	5	..........a	-327.66
	335	67.2	-5.99683E-001	-1.68480E-007	0.00000E+000	-6.00000E-001	1.00509E-003	5	..........a	-327.66
	336	67.4	-5.89840E-001	-1.53670E-007	0.00000E+000	-5.90000E-001	1.04429E-003	5	..........a	-327.66
	337	67.6	-5.79780E-001	-1.43461E-007	0.00000E+000	-5.80000E-001	9.98892E-004	5	..........a	-327.66
	338	67.8	-5.69885E-001	-1.35468E-007	0.00000E+000	-5.70000E-001	1.03319E-003	5	..........a	-327.66
	339	68	-5.59820E-001	-1.28471E-007	0.00000E+000	-5.60000E-001	1.03679E-003	5	..........a	-327.66
	340	68.2	-5.49869E-001	-1.21989E-007	0.00000E+000	-5.50000E-001	1.01559E-003	5	..........a	-327.66
	341	68.4	-5.39759E-001	-1.15874E-007	0.00000E+000	-5.40000E-001	9.90592E-004	5	..........a	-327.66
	342	68.6	-5.29826E-001	-1.10717E-007	0.00000E+000	-5.30000E-001	1.01019E-003	5	..........a	-327.66
	343	68.8	-5.19859E-001	-1.05385E-007	0.00000E+000	-5.20000E-001	1.05749E-003	5	..........a	-327.66
	344	69	-5.09831E-001	-1.00415E-007	0.00000E+000	-5.10000E-001	9.89792E-004	5	..........a	-327.66
	345	69.2	-4.99806E-001	-9.57705E-008	0.00000E+000	-5.00000E-001	9.99492E-004	5	..........a	-327.66
	346	69.4	-4.89842E-001	-9.09464E-008	0.00000E+000	-4.90000E-001	1.05289E-003	5	..........a	-327.66
	347	69.6	-4.79781E-001	-8.66681E-008	0.00000E+000	-4.80000E-001	9.98692E-004	5	..........a	-327.66
	348	69.8	-4.69849E-001	-8.24120E-008	0.00000E+000	-4.70000E-001	1.02609E-003	5	..........a	-327.66
	349	70	-4.59795E-001	-7.83801E-008	0.00000E+000	-4.60000E-001	1.00879E-003	5	..........a	-327.66
	350	70.2	-4.49842E-001	-7.44323E-008	0.00000E+000	-4.50000E-001	9.97092E-004	5	..........a	-327.66
	351	70.4	-4.39865E-001	-7.06811E-008	0.00000E+000	-4.40000E-001	1.02129E-003	5	..........a	-327.66
	352	70.6	-4.29851E-001	-6.65673E-008	0.00000E+000	-4.30000E-001	1.03219E-003	5	..........a	-327.66
[...]
	920	184.2	-3.49881E-001	-4.08964E-008	0.00000E+000	-3.50000E-001	1.00669E-003	5	..........a	-327.66
	921	184.4	-3.39793E-001	-3.77087E-008	0.00000E+000	-3.40000E-001	1.03289E-003	5	..........a	-327.66
	922	184.6	-3.29890E-001	-3.46107E-008	0.00000E+000	-3.30000E-001	1.02419E-003	5	..........a	-327.66
	923	184.8	-3.19867E-001	-3.15814E-008	0.00000E+000	-3.20000E-001	1.04309E-003	5	..........a	-327.66
	924	185	-3.09894E-001	-2.86010E-008	0.00000E+000	-3.10000E-001	1.03499E-003	5	..........a	-327.66
	925	185.2	-2.99851E-001	-2.57349E-008	0.00000E+000	-3.00000E-001	1.01699E-003	5	..........a	-327.66
	926	185.4	-2.89974E-001	-2.28989E-008	0.00000E+000	-2.90000E-001	1.02679E-003	5	..........a	-327.66
	927	185.6	-2.79899E-001	-2.01329E-008	0.00000E+000	-2.80000E-001	1.05109E-003	5	..........a	-327.66
	928	185.8	-2.69882E-001	-1.74669E-008	0.00000E+000	-2.70000E-001	1.01939E-003	5	..........a	-327.66
	929	186	-2.59863E-001	-1.48835E-008	0.00000E+000	-2.60000E-001	1.00209E-003	5	..........a	-327.66
	930	186.2	-2.49922E-001	-1.23652E-008	0.00000E+000	-2.50000E-001	1.02799E-003	5	..........a	-327.66
	931	186.4	-2.39894E-001	-9.93279E-009	0.00000E+000	-2.40000E-001	1.00399E-003	5	..........a	-327.66
	932	186.6	-2.29990E-001	-7.59592E-009	0.00000E+000	-2.30000E-001	1.01649E-003	5	..........a	-327.66
	933	186.8	-2.19883E-001	-5.31157E-009	0.00000E+000	-2.20000E-001	1.00989E-003	5	..........a	-327.66
	934	187	-2.09878E-001	-3.07722E-009	0.00000E+000	-2.10000E-001	1.01449E-003	5	..........a	-327.66
	935	187.2	-1.99992E-001	-9.07277E-010	0.00000E+000	-2.00000E-001	1.04879E-003	5	..........a	-327.66
	936	187.4	-1.90218E-001	1.20079E-009	0.00000E+000	-1.90000E-001	1.00739E-003	5	..........a	-327.66
	937	187.6	-1.79946E-001	3.27280E-009	0.00000E+000	-1.80000E-001	1.00509E-003	5	..........a	-327.66
	938	187.8	-1.69921E-001	5.24648E-009	0.00000E+000	-1.70000E-001	1.01519E-003	5	..........a	-327.66
	939	188	-1.60008E-001	7.21311E-009	0.00000E+000	-1.60000E-001	1.03299E-003	5	..........a	-327.66
	940	188.2	-1.49972E-001	9.14194E-009	0.00000E+000	-1.50000E-001	1.00809E-003	5	..........a	-327.66
	941	188.4	-1.39941E-001	1.09885E-008	0.00000E+000	-1.40000E-001	9.99292E-004	5	..........a	-327.66
	942	188.6	-1.30056E-001	1.28310E-008	0.00000E+000	-1.30000E-001	1.01709E-003	5	..........a	-327.66
	943	188.8	-1.19961E-001	1.46647E-008	0.00000E+000	-1.20000E-001	1.02219E-003	5	..........a	-327.66
	944	189	-1.10031E-001	1.64287E-008	0.00000E+000	-1.10000E-001	1.02029E-003	5	..........a	-327.66
	945	189.2	-9.99520E-002	1.81724E-008	0.00000E+000	-1.00000E-001	1.01039E-003	5	..........a	-327.66
	946	189.4	-8.99192E-002	1.99127E-008	0.00000E+000	-9.00000E-002	1.02449E-003	5	..........a	-327.66
	947	189.6	-8.00060E-002	2.16149E-008	0.00000E+000	-8.00000E-002	1.03749E-003	5	..........a	-327.66
	948	189.8	-6.99857E-002	2.32909E-008	0.00000E+000	-7.00000E-002	1.03609E-003	5	..........a	-327.66
	949	190	-5.99247E-002	2.49679E-008	0.00000E+000	-6.00000E-002	1.00569E-003	5	..........a	-327.66
	950	190.2	-4.99346E-002	2.66192E-008	0.00000E+000	-5.00000E-002	1.02959E-003	5	..........a	-327.66
	951	190.4	-3.99911E-002	2.82247E-008	0.00000E+000	-4.00000E-002	9.90992E-004	5	..........a	-327.66
	952	190.6	-2.99606E-002	2.98495E-008	0.00000E+000	-3.00000E-002	1.01539E-003	5	..........a	-327.66
	953	190.8	-1.99422E-002	3.14522E-008	0.00000E+000	-2.00000E-002	1.02459E-003	5	..........a	-327.66
	954	191	-9.92831E-003	3.30344E-008	0.00000E+000	-1.00000E-002	1.02619E-003	5	..........a	-327.66
	955	191.2	-2.61583E-005	3.46352E-008	0.00000E+000	7.45058E-009	1.01939E-003	5	..........a	-327.66
	956	191.4	1.00831E-002	3.62092E-008	0.00000E+000	1.00000E-002	1.01279E-003	5	..........a	-327.66
	957	191.6	2.01134E-002	3.78437E-008	0.00000E+000	2.00000E-002	1.04399E-003	5	..........a	-327.66
	958	191.8	3.00053E-002	3.94295E-008	0.00000E+000	3.00000E-002	1.01979E-003	5	..........a	-327.66
	959	192	3.99715E-002	4.09963E-008	0.00000E+000	4.00000E-002	1.01749E-003	5	..........a	-327.66
	960	192.2	5.00194E-002	4.26884E-008	0.00000E+000	5.00000E-002	1.02889E-003	5	..........a	-327.66
	961	192.4	6.00543E-002	4.43456E-008	0.00000E+000	6.00000E-002	1.03709E-003	5	..........a	-327.66
	962	192.6	6.99762E-002	4.60245E-008	0.00000E+000	7.00000E-002	1.03159E-003	5	..........a	-327.66
	963	192.8	7.99962E-002	4.77758E-008	0.00000E+000	8.00000E-002	1.03269E-003	5	..........a	-327.66
	964	193	9.00149E-002	4.95779E-008	0.00000E+000	9.00000E-002	1.02829E-003	5	..........a	-327.66
	965	193.2	1.00028E-001	5.14218E-008	0.00000E+000	1.00000E-001	1.02139E-003	5	..........a	-327.66
	966	193.4	1.10061E-001	5.35439E-008	0.00000E+000	1.10000E-001	1.02809E-003	5	..........a	-327.66
	967	193.6	1.19999E-001	5.66024E-008	0.00000E+000	1.20000E-001	1.02849E-003	5	..........a	-327.66
	968	193.8	1.30002E-001	5.84384E-008	0.00000E+000	1.30000E-001	1.02839E-003	5	..........a	-327.66
	969	194	1.40063E-001	6.00322E-008	0.00000E+000	1.40000E-001	1.01789E-003	5	..........a	-327.66
	970	194.2	1.50014E-001	6.04159E-008	0.00000E+000	1.50000E-001	1.01059E-003	5	..........a	-327.66
	971	194.4	1.60013E-001	6.20145E-008	0.00000E+000	1.60000E-001	1.01569E-003	5	..........a	-327.66
	972	194.6	1.70000E-001	6.37896E-008	0.00000E+000	1.70000E-001	1.02339E-003	5	..........a	-327.66
	973	194.8	1.80003E-001	6.55579E-008	0.00000E+000	1.80000E-001	1.01479E-003	5	..........a	-327.66
	974	195	1.90076E-001	6.73111E-008	0.00000E+000	1.90000E-001	1.00929E-003	5	..........a	-327.66
	975	195.2	1.99970E-001	6.90387E-008	0.00000E+000	2.00000E-001	1.00409E-003	5	..........a	-327.66
	976	195.4	2.09977E-001	7.07192E-008	0.00000E+000	2.10000E-001	1.00589E-003	5	..........a	-327.66
	977	195.6	2.19780E-001	7.23561E-008	0.00000E+000	2.20000E-001	1.01249E-003	5	..........a	-327.66
	978	195.8	2.29972E-001	7.39475E-008	0.00000E+000	2.30000E-001	1.02009E-003	5	..........a	-327.66
	979	196	2.39981E-001	7.54985E-008	0.00000E+000	2.40000E-001	1.02939E-003	5	..........a	-327.66
	980	196.2	2.49976E-001	7.69626E-008	0.00000E+000	2.50000E-001	1.02009E-003	5	..........a	-327.66
	981	196.4	2.59993E-001	7.84253E-008	0.00000E+000	2.60000E-001	1.02159E-003	5	..........a	-327.66
	982	196.6	2.69994E-001	7.98839E-008	0.00000E+000	2.70000E-001	1.02319E-003	5	..........a	-327.66
	983	196.8	2.79938E-001	8.12804E-008	0.00000E+000	2.80000E-001	1.01909E-003	5	..........a	-327.66
	984	197	2.89992E-001	8.26551E-008	0.00000E+000	2.90000E-001	1.01359E-003	5	..........a	-327.66
	985	197.2	3.00004E-001	8.40647E-008	0.00000E+000	3.00000E-001	1.01379E-003	5	..........a	-327.66
	986	197.4	3.09969E-001	8.54417E-008	0.00000E+000	3.10000E-001	1.01739E-003	5	..........a	-327.66
	987	197.6	3.19979E-001	8.68051E-008	0.00000E+000	3.20000E-001	1.04649E-003	5	..........a	-327.66
	988	197.8	3.29965E-001	8.81923E-008	0.00000E+000	3.30000E-001	1.03069E-003	5	..........a	-327.66
	989	198	3.39976E-001	8.95710E-008	0.00000E+000	3.40000E-001	1.00829E-003	5	..........a	-327.66
	990	198.2	3.49975E-001	9.09948E-008	0.00000E+000	3.50000E-001	1.02219E-003	5	..........a	-327.66
	991	198.4	3.59943E-001	9.23863E-008	0.00000E+000	3.60000E-001	1.04549E-003	5	..........a	-327.66
	992	198.6	3.69997E-001	9.38800E-008	0.00000E+000	3.70000E-001	1.03299E-003	5	..........a	-327.66
	993	198.8	3.79974E-001	9.53418E-008	0.00000E+000	3.80000E-001	1.02249E-003	5	..........a	-327.66
	994	199	3.90015E-001	9.68321E-008	0.00000E+000	3.90000E-001	1.01049E-003	5	..........a	-327.66
	995	199.2	3.99950E-001	9.83055E-008	0.00000E+000	4.00000E-001	1.02569E-003	5	..........a	-327.66
	996	199.4	4.09918E-001	9.97967E-008	0.00000E+000	4.10000E-001	1.03469E-003	5	..........a	-327.66
	997	199.6	4.19951E-001	1.01382E-007	0.00000E+000	4.20000E-001	1.01749E-003	5	..........a	-327.66
	998	199.8	4.29987E-001	1.02921E-007	0.00000E+000	4.30000E-001	1.02709E-003	5	..........a	-327.66
	999	200	4.39914E-001	1.04484E-007	0.00000E+000	4.40000E-001	1.01349E-003	5	..........a	-327.66
	1000	200.2	4.49966E-001	1.05999E-007	0.00000E+000	4.50000E-001	1.01949E-003	5	..........a	-327.66
	1001	200.4	4.59934E-001	1.07464E-007	0.00000E+000	4.60000E-001	1.03009E-003	5	..........a	-327.66
	1002	200.6	4.69998E-001	1.08945E-007	0.00000E+000	4.70000E-001	1.01499E-003	5	..........a	-327.66
	1003	200.8	4.79872E-001	1.10486E-007	0.00000E+000	4.80000E-001	1.00989E-003	5	..........a	-327.66
	1004	201	4.89940E-001	1.11958E-007	0.00000E+000	4.90000E-001	1.01999E-003	5	..........a	-327.66
	1005	201.2	4.99934E-001	1.13389E-007	0.00000E+000	5.00000E-001	1.00179E-003	5	..........a	-327.66
	1006	201.4	5.09961E-001	1.14873E-007	0.00000E+000	5.10000E-001	1.03289E-003	5	..........a	-327.66
	1007	201.6	5.19926E-001	1.16413E-007	0.00000E+000	5.20000E-001	1.05469E-003	5	..........a	-327.66
	1008	201.8	5.29947E-001	1.17977E-007	0.00000E+000	5.30000E-001	1.02219E-003	5	..........a	-327.66
	1009	202	5.39940E-001	1.19606E-007	0.00000E+000	5.40000E-001	1.00109E-003	5	..........a	-327.66
	1010	202.2	5.49981E-001	1.21286E-007	0.00000E+000	5.50000E-001	1.03189E-003	5	..........a	-327.66
	1011	202.4	5.59895E-001	1.23006E-007	0.00000E+000	5.60000E-001	1.01449E-003	5	..........a	-327.66
	1012	202.6	5.69935E-001	1.24737E-007	0.00000E+000	5.70000E-001	1.01589E-003	5	..........a	-327.66
	1013	202.8	5.79906E-001	1.26589E-007	0.00000E+000	5.80000E-001	1.00399E-003	5	..........a	-327.66
	1014	203	5.89988E-001	1.28430E-007	0.00000E+000	5.90000E-001	1.01689E-003	5	..........a	-327.66
	1015	203.2	5.99918E-001	1.30415E-007	0.00000E+000	6.00000E-001	1.03539E-003	5	..........a	-327.66
	1016	203.4	6.09934E-001	1.32387E-007	0.00000E+000	6.10000E-001	1.02869E-003	5	..........a	-327.66
	1017	203.6	6.19887E-001	1.34469E-007	0.00000E+000	6.20000E-001	1.01949E-003	5	..........a	-327.66
	1018	203.8	6.29981E-001	1.36613E-007	0.00000E+000	6.30000E-001	1.02489E-003	5	..........a	-327.66
	1019	204	6.39856E-001	1.38834E-007	0.00000E+000	6.40000E-001	1.02369E-003	5	..........a	-327.66
	1020	204.2	6.49871E-001	1.41081E-007	0.00000E+000	6.50000E-001	1.03399E-003	5	..........a	-327.66
	1021	204.4	6.59861E-001	1.43422E-007	0.00000E+000	6.60000E-001	1.02079E-003	5	..........a	-327.66
	1022	204.6	6.69928E-001	1.45882E-007	0.00000E+000	6.70000E-001	1.01119E-003	5	..........a	-327.66
	1023	204.8	6.79879E-001	1.48434E-007	0.00000E+000	6.80000E-001	1.01739E-003	5	..........a	-327.66
	1024	205	6.89852E-001	1.51094E-007	0.00000E+000	6.90000E-001	1.03039E-003	5	..........a	-327.66
	1025	205.2	6.99858E-001	1.53924E-007	0.00000E+000	7.00000E-001	1.03039E-003	5	..........a	-327.66
	1026	205.4	7.09951E-001	1.56959E-007	0.00000E+000	7.10000E-001	1.00279E-003	5	..........a	-327.66
	1027	205.6	7.19871E-001	1.60270E-007	0.00000E+000	7.20000E-001	1.02149E-003	5	..........a	-327.66
	1028	205.8	7.29892E-001	1.63796E-007	0.00000E+000	7.30000E-001	1.01239E-003	5	..........a	-327.66
	1029	206	7.39862E-001	1.67755E-007	0.00000E+000	7.40000E-001	1.00529E-003	5	..........a	-327.66
	1030	206.2	7.49947E-001	1.72216E-007	0.00000E+000	7.50000E-001	1.02329E-003	5	..........a	-327.66
	1031	206.4	7.59840E-001	1.77394E-007	0.00000E+000	7.60000E-001	1.01999E-003	5	..........a	-327.66
	1032	206.6	7.69872E-001	1.83515E-007	0.00000E+000	7.70000E-001	1.01859E-003	5	..........a	-327.66
	1033	206.8	7.79846E-001	1.90619E-007	0.00000E+000	7.80000E-001	1.00029E-003	5	..........a	-327.66
	1034	207	7.89953E-001	1.94994E-007	0.00000E+000	7.90000E-001	1.00299E-003	5	..........a	-327.66
	1035	207.2	7.99839E-001	1.99278E-007	0.00000E+000	8.00000E-001	1.01269E-003	5	..........a	-327.66
CURVE5	TABLE
	Pt	T	Vf	Im	Vu	Sig	Ach	IERange	Over	Temp
	#	s	V vs. Ref.	A	V	V	V	#	bits	deg C
	1036	207.4	7.89962E-001	1.70198E-007	0.00000E+000	7.90000E-001	1.02299E-003	5	..........a	-327.66
	1037	207.6	7.79866E-001	1.52016E-007	0.00000E+000	7.80000E-001	1.01509E-003	5	..........a	-327.66
	1038	207.8	7.69892E-001	1.38472E-007	0.00000E+000	7.70000E-001	1.02829E-003	5	..........a	-327.66
	1039	208	7.59888E-001	1.27857E-007	0.00000E+000	7.60000E-001	1.02539E-003	5	..........a	-327.66
	1040	208.2	7.49981E-001	1.19076E-007	0.00000E+000	7.50000E-001	1.04029E-003	5	..........a	-327.66
	1041	208.4	7.39900E-001	1.11564E-007	0.00000E+000	7.40000E-001	1.00539E-003	5	..........a	-327.66
	1042	208.6	7.29934E-001	1.03824E-007	0.00000E+000	7.30000E-001	1.01779E-003	5	..........a	-327.66
	1043	208.8	7.19891E-001	9.77549E-008	0.00000E+000	7.20000E-001	1.02399E-003	5	..........a	-327.66
	1044	209	7.09983E-001	9.23046E-008	0.00000E+000	7.10000E-001	1.02729E-003	5	..........a	-327.66
	1045	209.2	6.99907E-001	8.73372E-008	0.00000E+000	7.00000E-001	1.03329E-003	5	..........a	-327.66
	1046	209.4	6.89898E-001	8.26993E-008	0.00000E+000	6.90000E-001	1.02639E-003	5	..........a	-327.66
	1047	209.6	6.79964E-001	7.84041E-008	0.00000E+000	6.80000E-001	1.01009E-003	5	..........a	-327.66
	1048	209.8	6.69952E-001	7.43656E-008	0.00000E+000	6.70000E-001	9.96492E-004	5	..........a	-327.66
	1049	210	6.59925E-001	7.05465E-008	0.00000E+000	6.60000E-001	1.00649E-003	5	..........a	-327.66
	1050	210.2	6.49959E-001	6.69556E-008	0.00000E+000	6.50000E-001	1.01589E-003	5	..........a	-327.66
	1051	210.4	6.39877E-001	6.34810E-008	0.00000E+000	6.40000E-001	1.02979E-003	5	..........a	-327.66
	1052	210.6	6.30014E-001	6.01999E-008	0.00000E+000	6.30000E-001	9.93992E-004	5	..........a	-327.66
	1053	210.8	6.19930E-001	5.70045E-008	0.00000E+000	6.20000E-001	1.02179E-003	5	..........a	-327.66
	1054	211	6.09929E-001	5.39120E-008	0.00000E+000	6.10000E-001	9.94992E-004	5	..........a	-327.66
	1055	211.2	5.99960E-001	5.09408E-008	0.00000E+000	6.00000E-001	1.02299E-003	5	..........a	-327.66
	1056	211.4	5.89993E-001	4.81332E-008	0.00000E+000	5.90000E-001	1.01629E-003	5	..........a	-327.66
	1057	211.6	5.79979E-001	4.52891E-008	0.00000E+000	5.80000E-001	1.00939E-003	5	..........a	-327.66
	1058	211.8	5.69959E-001	4.25560E-008	0.00000E+000	5.70000E-001	1.01549E-003	5	..........a	-327.66
	1059	212	5.59938E-001	3.98515E-008	0.00000E+000	5.60000E-001	1.02829E-003	5	..........a	-327.66
	1060	212.2	5.50032E-001	3.72428E-008	0.00000E+000	5.50000E-001	1.03229E-003	5	..........a	-327.66
	1061	212.4	5.39999E-001	3.46657E-008	0.00000E+000	5.40000E-001	1.01549E-003	5	..........a	-327.66
	1062	212.6	5.29966E-001	3.21349E-008	0.00000E+000	5.30000E-001	1.04959E-003	5	..........a	-327.66
	1063	212.8	5.19978E-001	2.96506E-008	0.00000E+000	5.20000E-001	1.04739E-003	5	..........a	-327.66
	1064	213	5.09987E-001	2.71944E-008	0.00000E+000	5.10000E-001	1.02039E-003	5	..........a	-327.66
	1065	213.2	5.00022E-001	2.48025E-008	0.00000E+000	5.00000E-001	1.02199E-003	5	..........a	-327.66
	1066	213.4	4.89936E-001	2.23769E-008	0.00000E+000	4.90000E-001	1.00989E-003	5	..........a	-327.66
	1067	213.6	4.79935E-001	2.00080E-008	0.00000E+000	4.80000E-001	1.03069E-003	5	..........a	-327.66
	1068	213.8	4.70020E-001	1.76417E-008	0.00000E+000	4.70000E-001	9.93392E-004	5	..........a	-327.66
	1069	214	4.60007E-001	1.53390E-008	0.00000E+000	4.60000E-001	1.01129E-003	5	..........a	-327.66
	1070	214.2	4.49923E-001	1.29729E-008	0.00000E+000	4.50000E-001	1.00959E-003	5	..........a	-327.66
	1071	214.4	4.39961E-001	1.06910E-008	0.00000E+000	4.40000E-001	1.04029E-003	5	..........a	-327.66
	1072	214.6	4.29950E-001	8.36297E-009	0.00000E+000	4.30000E-001	1.01399E-003	5	..........a	-327.66
	1073	214.8	4.20012E-001	6.11157E-009	0.00000E+000	4.20000E-001	1.01269E-003	5	..........a	-327.66
	1074	215	4.09965E-001	3.84028E-009	0.00000E+000	4.10000E-001	1.03299E-003	5	..........a	-327.66
	1075	215.2	3.99997E-001	1.61787E-009	0.00000E+000	4.00000E-001	9.93092E-004	5	..........a	-327.66
	1076	215.4	3.90025E-001	-6.63148E-010	0.00000E+000	3.90000E-001	1.01169E-003	5	..........a	-327.66
	1077	215.6	3.80050E-001	-2.78981E-009	0.00000E+000	3.80000E-001	9.94892E-004	5	..........a	-327.66
	1078	215.8	3.70062E-001	-4.90414E-009	0.00000E+000	3.70000E-001	9.83892E-004	5	..........a	-327.66
	1079	216	3.60002E-001	-6.93092E-009	0.00000E+000	3.60000E-001	1.01169E-003	5	..........a	-327.66
	1080	216.2	3.50071E-001	-8.95142E-009	0.00000E+000	3.50000E-001	1.05119E-003	5	..........a	-327.66
	1081	216.4	3.40084E-001	-1.09596E-008	0.00000E+000	3.40000E-001	1.01299E-003	5	..........a	-327.66
	1082	216.6	3.30023E-001	-1.28642E-008	0.00000E+000	3.30000E-001	1.03319E-003	5	..........a	-327.66
	1083	216.8	3.20062E-001	-1.46988E-008	0.00000E+000	3.20000E-001	1.03809E-003	5	..........a	-327.66
	1084	217	3.10051E-001	-1.65518E-008	0.00000E+000	3.10000E-001	1.02349E-003	5	..........a	-327.66
	1085	217.2	3.00069E-001	-1.82850E-008	0.00000E+000	3.00000E-001	9.99692E-004	5	..........a	-327.66
	1086	217.4	2.90050E-001	-2.00674E-008	0.00000E+000	2.90000E-001	1.02389E-003	5	..........a	-327.66
	1087	217.6	2.79979E-001	-2.17617E-008	0.00000E+000	2.80000E-001	1.01719E-003	5	..........a	-327.66
	1088	217.8	2.70063E-001	-2.33964E-008	0.00000E+000	2.70000E-001	1.02049E-003	5	..........a	-327.66
	1089	218	2.60060E-001	-2.49880E-008	0.00000E+000	2.60000E-001	1.00539E-003	5	..........a	-327.66
	1090	218.2	2.50013E-001	-2.65320E-008	0.00000E+000	2.50000E-001	1.03039E-003	5	..........a	-327.66
	1091	218.4	2.40049E-001	-2.80241E-008	0.00000E+000	2.40000E-001	1.04819E-003	5	..........a	-327.66
	1092	218.6	2.30026E-001	-2.94767E-008	0.00000E+000	2.30000E-001	1.02809E-003	5	..........a	-327.66
	1093	218.8	2.20061E-001	-3.09288E-008	0.00000E+000	2.20000E-001	1.00159E-003	5	..........a	-327.66
	1094	219	2.10015E-001	-3.23230E-008	0.00000E+000	2.10000E-001	1.02169E-003	5	..........a	-327.66
	1095	219.2	2.00040E-001	-3.36872E-008	0.00000E+000	2.00000E-001	1.01819E-003	5	..........a	-327.66
	1096	219.4	1.90124E-001	-3.50360E-008	0.00000E+000	1.90000E-001	1.00139E-003	5	..........a	-327.66
	1097	219.6	1.80108E-001	-3.63834E-008	0.00000E+000	1.80000E-001	1.01029E-003	5	..........a	-327.66
	1098	219.8	1.70057E-001	-3.76970E-008	0.00000E+000	1.70000E-001	1.01909E-003	5	..........a	-327.66
	1099	220	1.60052E-001	-3.90043E-008	0.00000E+000	1.60000E-001	1.02019E-003	5	..........a	-327.66
	1100	220.2	1.50080E-001	-4.03271E-008	0.00000E+000	1.50000E-001	1.02989E-003	5	..........a	-327.66
	1101	220.4	1.40134E-001	-4.17240E-008	0.00000E+000	1.40000E-001	1.00519E-003	5	..........a	-327.66
	1102	220.6	1.30055E-001	-4.30317E-008	0.00000E+000	1.30000E-001	1.02619E-003	5	..........a	-327.66
	1103	220.8	1.20105E-001	-4.43729E-008	0.00000E+000	1.20000E-001	1.03449E-003	5	..........a	-327.66
	1104	221	1.10116E-001	-4.56348E-008	0.00000E+000	1.10000E-001	1.03799E-003	5	..........a	-327.66
	1105	221.2	1.00127E-001	-4.68716E-008	0.00000E+000	1.00000E-001	1.01299E-003	5	..........a	-327.66
	1106	221.4	9.00756E-002	-4.80868E-008	0.00000E+000	9.00000E-002	9.98392E-004	5	..........a	-327.66
	1107	221.6	8.00591E-002	-4.92432E-008	0.00000E+000	8.00000E-002	1.01659E-003	5	..........a	-327.66
	1108	221.8	7.00517E-002	-5.03932E-008	0.00000E+000	7.00000E-002	1.02029E-003	5	..........a	-327.66
	1109	222	6.01369E-002	-5.15445E-008	0.00000E+000	6.00000E-002	9.96692E-004	5	..........a	-327.66
	1110	222.2	5.00528E-002	-5.27119E-008	0.00000E+000	5.00000E-002	1.02329E-003	5	..........a	-327.66
	1111	222.4	4.00332E-002	-5.40209E-008	0.00000E+000	4.00000E-002	1.01329E-003	5	..........a	-327.66
	1112	222.6	3.00915E-002	-5.54506E-008	0.00000E+000	3.00000E-002	1.04039E-003	5	..........a	-327.66
	1113	222.8	2.01680E-002	-5.69061E-008	0.00000E+000	2.00000E-002	1.03329E-003	5	..........a	-327.66
	1114	223	1.01056E-002	-5.80460E-008	0.00000E+000	1.00000E-002	1.00359E-003	5	..........a	-327.66
	1115	223.2	3.62416E-005	-5.95931E-008	0.00000E+000	7.45058E-009	1.04259E-003	5	..........a	-327.66
	1116	223.4	-9.88201E-003	-6.09733E-008	0.00000E+000	-1.00000E-002	1.01209E-003	5	..........a	-327.66
	1117	223.6	-1.98902E-002	-6.12869E-008	0.00000E+000	-2.00000E-002	1.01219E-003	5	..........a	-327.66
	1118	223.8	-2.99272E-002	-6.17021E-008	0.00000E+000	-3.00000E-002	1.03129E-003	5	..........a	-327.66
	1119	224	-3.98916E-002	-6.28097E-008	0.00000E+000	-4.00000E-002	1.01149E-003	5	..........a	-327.66
	1120	224.2	-4.99177E-002	-6.39800E-008	0.00000E+000	-5.00000E-002	1.02379E-003	5	..........a	-327.66