File: example_project/raw_outputs/20240509_ZZE_GM0016_HL03_E08_CV50.DTA
EXPLAIN
TAG	CV
TITLE	LABEL	Cyclic Voltammetry	Test &Identifier
DATE	LABEL	5/9/2024	Date
TIME	LABEL	14:04:35	Time
NOTES	NOTES	1	&Notes...

PSTAT	PSTAT	REF600P-43058	Potentiostat
VINIT	POTEN	0.00000E+000	T	Initial &E (V)
VLIMIT1	POTEN	8.00000E-001	F	Scan Limit &1 (V)
VLIMIT2	POTEN	-6.00000E-001	F	Scan Limit &2 (V)
VFINAL	POTEN	0.00000E+000	T	Final &E (V)
SCANRATE	QUANT	4.99999E+001	&Scan Rate (mV/s)
STEPSIZE	QUANT	1.00000E+001	St&ep Size (mV)
CYCLES	IQUANT	4	C&ycles (#)
IMODE	SELECTOR	0	I/E Range &Mode
IRANGE	QUANT	1.00000E-005	&Max Current (mA)
AREA	QUANT	1.00000E+000	Electrode &Area (cm^2)
ELECTRODETYPE	SELECTOR	0	Electrode Type
STRIPPING	TOGGLE	F	Used for Stripping
POLARITY	TOGGLE	F	Signal Polarity
CONDIT	TWOPARAM	F	1.50000E+001	0.00000E+000	Conditionin&g	Time(s)	E(V)
DELAY	TWOPARAM	T	1.00000E+001	0.00000E+000	Init. De&lay	Time(s)	Stab.(mV/s)
EQDELAY	QUANT	1.00000E+001	Equil. &Time (s)
IRCOMP	SELECTOR	0	IRCom&p
PFCOR	QUANT	5.00000E+001	PF Corr. (ohm)
SAMPLINGMODE	SELECTOR	1	Sampling &Mode
OCVCURVE	TABLE	39
	Pt	T	Vf	Vm	Ach	Over	Temp
	#	s	V vs. Ref.	V	V	bits	deg C
	0	0.258333	-2.08004E-001	-2.08004E-001	2.10792E-004	..........a	-327.66
	1	0.516667	-2.08007E-001	-2.08174E-001	2.04592E-004	..........a	-327.66
	2	0.775	-2.08027E-001	-2.08343E-001	2.16592E-004	..........a	-327.66
	3	1.03333	-2.08084E-001	-2.08508E-001	2.09726E-004	..........a	-327.66
	4	1.29167	-2.08189E-001	-2.08686E-001	2.08992E-004	..........a	-327.66
	5	1.55	-2.08330E-001	-2.08811E-001	2.08859E-004	..........a	-327.66
	6	1.80833	-2.08489E-001	-2.08986E-001	2.12592E-004	..........a	-327.66
	7	2.06667	-2.08652E-001	-2.09167E-001	2.02059E-004	..........a	-327.66
	8	2.325	-2.08815E-001	-2.09343E-001	1.97259E-004	..........a	-327.66
	9	2.58333	-2.08982E-001	-2.09522E-001	2.04259E-004	..........a	-327.66
	10	2.84167	-2.09154E-001	-2.09690E-001	2.04659E-004	..........a	-327.66
	11	3.1	-2.09328E-001	-2.09863E-001	2.09326E-004	..........a	-327.66
	12	3.35833	-2.09504E-001	-2.10037E-001	2.09659E-004	..........a	-327.66
	13	3.61667	-2.09677E-001	-2.10196E-001	2.08992E-004	..........a	-327.66
	14	3.875	-2.09849E-001	-2.10360E-001	2.06059E-004	..........a	-327.66
	15	4.13333	-2.10018E-001	-2.10527E-001	2.06592E-004	..........a	-327.66
	16	4.39167	-2.10184E-001	-2.10695E-001	1.98726E-004	..........a	-327.66
	17	4.65	-2.10349E-001	-2.10858E-001	2.07459E-004	..........a	-327.66
	18	4.90833	-2.10515E-001	-2.11021E-001	2.10592E-004	..........a	-327.66
	19	5.16667	-2.10680E-001	-2.11190E-001	2.04259E-004	..........a	-327.66
	20	5.425	-2.10845E-001	-2.11337E-001	1.93392E-004	..........a	-327.66
	21	5.68333	-2.11008E-001	-2.11501E-001	1.97792E-004	..........a	-327.66
	22	5.94167	-2.11170E-001	-2.11659E-001	1.97792E-004	..........a	-327.66
	23	6.2	-2.11329E-001	-2.11819E-001	1.96259E-004	..........a	-327.66
	24	6.45833	-2.11488E-001	-2.11975E-001	2.02726E-004	..........a	-327.66
	25	6.71667	-2.11646E-001	-2.12093E-001	2.04326E-004	..........a	-327.66
	26	6.975	-2.11800E-001	-2.12237E-001	1.99859E-004	..........a	-327.66
	27	7.23333	-2.11948E-001	-2.12402E-001	1.96392E-004	..........a	-327.66
	28	7.49167	-2.12092E-001	-2.12569E-001	2.04126E-004	..........a	-327.66
	29	7.75	-2.12240E-001	-2.12729E-001	2.11592E-004	..........a	-327.66
	30	8.00833	-2.12394E-001	-2.12884E-001	2.06926E-004	..........a	-327.66
	31	8.26667	-2.12553E-001	-2.13040E-001	2.06459E-004	..........a	-327.66
	32	8.525	-2.12712E-001	-2.13187E-001	2.03392E-004	..........a	-327.66
	33	8.78333	-2.12869E-001	-2.13333E-001	2.11726E-004	..........a	-327.66
	34	9.04167	-2.13023E-001	-2.13464E-001	2.12192E-004	..........a	-327.66
	35	9.3	-2.13172E-001	-2.13618E-001	2.16992E-004	..........a	-327.66
	36	9.5583	-2.13317E-001	-2.13772E-001	2.07259E-004	..........a	-327.66
	37	9.8167	-2.13462E-001	-2.13916E-001	2.05259E-004	..........a	-327.66
	38	10.075	-2.13609E-001	-2.14059E-001	1.98926E-004	..........a	-327.66
EOC	QUANT	-0.2136087	Open Circuit (V)
PSTATMODEL	IQUANT	7	Pstat Model
PSTATSECTION	LABEL	REF600P-43058	Pstat Section
PSTATSERIALNO	LABEL	43058	Pstat Serial Number
CTRLMODE	IQUANT	1	Control Mode
ELECTROMETER	IQUANT	0	RE=0 or CS=1
IESTAB	IQUANT	2	I/E Stability
CASPEED	IQUANT	4	Control Amp Speed
CONVENTION	IQUANT	1	Current Convention
ICHRANGE	IQUANT	2	Ich Range
ICHRANGEMODE	TOGGLE	F	Ich Auto Range
ICHOFFSETENABLE	TOGGLE	F	Ich Offset Enable
ICHOFFSET	QUANT	0	Ich Offset (V)
ICHFILTER	IQUANT	2	Ich Filter
VCHRANGE	IQUANT	2	Vch Range
VCHRANGEMODE	TOGGLE	F	Vch Auto Range
VCHOFFSETENABLE	TOGGLE	F	Vch Offset Enable
VCHOFFSET	QUANT	0	Vch Offset (V)
VCHFILTER	IQUANT	2	Vch Filter
ACHRANGE	IQUANT	2	Ach Range
ACHOFFSETENABLE	TOGGLE	F	Ach Offset Enable
ACHOFFSET	QUANT	0	Ach Offset (V)
ACHFILTER	IQUANT	1	Ach Filter
IERANGELOWERLIMIT	IQUANT	1	I/E Range Lower Limit
IERANGEMODE	TOGGLE	T	I/E AutoRange
IERANGE	IQUANT	4	I/E Range
POSFEEDENABLE	TOGGLE	F	Positive Feedback IR Comp
POSFEEDRESISTANCE	QUANT	0	Positive Feedback Resistance (ohm)
ACHSELECT	IQUANT	4	Ach Select
SENSECABLEID	IQUANT	7	Sense Cable ID
PWRCABLEID	IQUANT	7	Power Cable ID
DCCALDATE	LABEL	3/22/2024	DC Calibration Date
ACCALDATE	LABEL	3/22/2024	AC Calibration Date
THERMOSELECT	IQUANT	1	Thermo Select
FRAMEWORKVERSION	LABEL	7.8.4	Framework Version
INSTRUMENTVERSION	LABEL	4.42	Instrument Version
CURVE1	TABLE
	Pt	T	Vf	Im	Vu	Sig	Ach	IERange	Over	Temp
	#	s	V vs. Ref.	A	V	V	V	#	bits	deg C
	0	0.2	-2.13431E-001	1.56086E-009	0.00000E+000	-2.13600E-001	9.43592E-004	5	..........a	-327.66
	1	0.4	-2.03503E-001	6.68985E-009	0.00000E+000	-2.03600E-001	9.56292E-004	5	..........a	-327.66
	2	0.6	-1.93527E-001	9.65169E-009	0.00000E+000	-1.93600E-001	9.55792E-004	5	..........a	-327.66
	3	0.8	-1.83556E-001	1.19722E-008	0.00000E+000	-1.83600E-001	9.61792E-004	5	..........a	-327.66
	4	1	-1.73547E-001	1.39735E-008	0.00000E+000	-1.73600E-001	9.48592E-004	5	..........a	-327.66
	5	1.2	-1.63510E-001	1.57741E-008	0.00000E+000	-1.63600E-001	9.57692E-004	5	..........a	-327.66
	6	1.4	-1.53619E-001	1.74502E-008	0.00000E+000	-1.53600E-001	9.67692E-004	5	..........a	-327.66
	7	1.6	-1.43555E-001	1.90355E-008	0.00000E+000	-1.43600E-001	9.50892E-004	5	..........a	-327.66
	8	1.8	-1.33535E-001	2.05506E-008	0.00000E+000	-1.33600E-001	9.54892E-004	5	..........a	-327.66
	9	2	-1.23561E-001	2.19955E-008	0.00000E+000	-1.23600E-001	9.62992E-004	5	..........a	-327.66
	10	2.2	-1.13596E-001	2.34577E-008	0.00000E+000	-1.13600E-001	9.52892E-004	5	..........a	-327.66
	11	2.4	-1.03572E-001	2.48752E-008	0.00000E+000	-1.03600E-001	9.66892E-004	5	..........a	-327.66
	12	2.6	-9.35101E-002	2.62652E-008	0.00000E+000	-9.36000E-002	9.60492E-004	5	..........a	-327.66
	13	2.8	-8.35502E-002	2.76653E-008	0.00000E+000	-8.36000E-002	9.60092E-004	5	..........a	-327.66
	14	3	-7.36040E-002	2.90712E-008	0.00000E+000	-7.36000E-002	9.61192E-004	5	..........a	-327.66
	15	3.2	-6.35250E-002	3.04664E-008	0.00000E+000	-6.36000E-002	9.60992E-004	5	..........a	-327.66
	16	3.4	-5.35032E-002	3.19385E-008	0.00000E+000	-5.36000E-002	9.48892E-004	5	..........a	-327.66
	17	3.6	-4.35585E-002	3.33771E-008	0.00000E+000	-4.36000E-002	9.55592E-004	5	..........a	-327.66
	18	3.8	-3.36015E-002	3.48638E-008	0.00000E+000	-3.36000E-002	9.61992E-004	5	..........a	-327.66
	19	4	-2.35543E-002	3.63700E-008	0.00000E+000	-2.36000E-002	9.57992E-004	5	..........a	-327.66
	20	4.2	-1.35181E-002	3.79535E-008	0.00000E+000	-1.36000E-002	9.55192E-004	5	..........a	-327.66
	21	4.4	-3.55421E-003	3.94378E-008	0.00000E+000	-3.59999E-003	9.53692E-004	5	..........a	-327.66
	22	4.6	6.45304E-003	4.11631E-008	0.00000E+000	6.40000E-003	9.55592E-004	5	..........a	-327.66
	23	4.8	1.64463E-002	4.29387E-008	0.00000E+000	1.64000E-002	9.61192E-004	5	..........a	-327.66
	24	5	2.64772E-002	4.47192E-008	0.00000E+000	2.64000E-002	9.38592E-004	5	..........a	-327.66
	25	5.2	3.64985E-002	4.65529E-008	0.00000E+000	3.64000E-002	9.46792E-004	5	..........a	-327.66
	26	5.4	4.63849E-002	4.85744E-008	0.00000E+000	4.64000E-002	9.57092E-004	5	..........a	-327.66
	27	5.6	5.64188E-002	5.07050E-008	0.00000E+000	5.64000E-002	9.64092E-004	5	..........a	-327.66
	28	5.8	6.59749E-002	5.29601E-008	0.00000E+000	6.64000E-002	9.49292E-004	5	..........a	-327.66
	29	6	7.64080E-002	5.54754E-008	0.00000E+000	7.64000E-002	9.68692E-004	5	..........a	-327.66
	30	6.2	8.64443E-002	5.81991E-008	0.00000E+000	8.64000E-002	9.54792E-004	5	..........a	-327.66
	31	6.4	9.63810E-002	6.11403E-008	0.00000E+000	9.64000E-002	9.52192E-004	5	..........a	-327.66
	32	6.6	1.06465E-001	6.43947E-008	0.00000E+000	1.06400E-001	9.49992E-004	5	..........a	-327.66
	33	6.8	1.16417E-001	6.79135E-008	0.00000E+000	1.16400E-001	9.61492E-004	5	..........a	-327.66
	34	7	1.26398E-001	7.17611E-008	0.00000E+000	1.26400E-001	9.57392E-004	5	..........a	-327.66
	35	7.2	1.36463E-001	7.59944E-008	0.00000E+000	1.36400E-001	9.48092E-004	5	..........a	-327.66
	36	7.4	1.46530E-001	8.12605E-008	0.00000E+000	1.46400E-001	9.58892E-004	5	..........a	-327.66
	37	7.6	1.56394E-001	8.91350E-008	0.00000E+000	1.56400E-001	9.72492E-004	5	..........a	-327.66
	38	7.8	1.66424E-001	1.01473E-007	0.00000E+000	1.66400E-001	9.53592E-004	5	..........a	-327.66
	39	8	1.76381E-001	1.09750E-007	0.00000E+000	1.76400E-001	9.65892E-004	5	..........a	-327.66
	40	8.2	1.86444E-001	1.09817E-007	0.00000E+000	1.86400E-001	9.56592E-004	5	..........a	-327.66
	41	8.4	1.96398E-001	1.10586E-007	0.00000E+000	1.96400E-001	9.66892E-004	5	..........a	-327.66
	42	8.6	2.06354E-001	1.12401E-007	0.00000E+000	2.06400E-001	9.61092E-004	5	..........a	-327.66
	43	8.8	2.16369E-001	1.15741E-007	0.00000E+000	2.16400E-001	9.54992E-004	5	..........a	-327.66
	44	9	2.26397E-001	1.20095E-007	0.00000E+000	2.26400E-001	9.44692E-004	5	..........a	-327.66
	45	9.2	2.36394E-001	1.24812E-007	0.00000E+000	2.36400E-001	9.75892E-004	5	..........a	-327.66
	46	9.4	2.46362E-001	1.29541E-007	0.00000E+000	2.46400E-001	9.52492E-004	5	..........a	-327.66
	47	9.6	2.56335E-001	1.34253E-007	0.00000E+000	2.56400E-001	9.74792E-004	5	..........a	-327.66
	48	9.8	2.66366E-001	1.38929E-007	0.00000E+000	2.66400E-001	9.54392E-004	5	..........a	-327.66
	49	10	2.76388E-001	1.43479E-007	0.00000E+000	2.76400E-001	9.54092E-004	5	..........a	-327.66
	50	10.2	2.86326E-001	1.47998E-007	0.00000E+000	2.86400E-001	9.49692E-004	5	..........a	-327.66
	51	10.4	2.96392E-001	1.52514E-007	0.00000E+000	2.96400E-001	9.51292E-004	5	..........a	-327.66
	52	10.6	3.06343E-001	1.57133E-007	0.00000E+000	3.06400E-001	9.46092E-004	5	..........a	-327.66
	53	10.8	3.16399E-001	1.61725E-007	0.00000E+000	3.16400E-001	9.58992E-004	5	..........a	-327.66
	54	11	3.26300E-001	1.66528E-007	0.00000E+000	3.26400E-001	9.63292E-004	5	..........a	-327.66
	55	11.2	3.36316E-001	1.71242E-007	0.00000E+000	3.36400E-001	9.52692E-004	5	..........a	-327.66
	56	11.4	3.46414E-001	1.76181E-007	0.00000E+000	3.46400E-001	9.47392E-004	5	..........a	-327.66
	57	11.6	3.56377E-001	1.81193E-007	0.00000E+000	3.56400E-001	9.65992E-004	5	..........a	-327.66
	58	11.8	3.66324E-001	1.86321E-007	0.00000E+000	3.66400E-001	9.56692E-004	5	..........a	-327.66
	59	12	3.76320E-001	1.91419E-007	0.00000E+000	3.76400E-001	9.52192E-004	5	..........a	-327.66
	60	12.2	3.86333E-001	1.96656E-007	0.00000E+000	3.86400E-001	9.47392E-004	5	..........a	-327.66
	61	12.4	3.96365E-001	2.01713E-007	0.00000E+000	3.96400E-001	9.69392E-004	5	..........a	-327.66
	62	12.6	4.06293E-001	2.07113E-007	0.00000E+000	4.06400E-001	9.59992E-004	5	..........a	-327.66
	63	12.8	4.16292E-001	2.12471E-007	0.00000E+000	4.16400E-001	9.67592E-004	5	..........a	-327.66
	64	13	4.26326E-001	2.17833E-007	0.00000E+000	4.26400E-001	9.65692E-004	5	..........a	-327.66
	65	13.2	4.36361E-001	2.22952E-007	0.00000E+000	4.36400E-001	9.68292E-004	5	..........a	-327.66
	66	13.4	4.46288E-001	2.28037E-007	0.00000E+000	4.46400E-001	9.52292E-004	5	..........a	-327.66
	67	13.6	4.56294E-001	2.33146E-007	0.00000E+000	4.56400E-001	9.67092E-004	5	..........a	-327.66
	68	13.8	4.66289E-001	2.38197E-007	0.00000E+000	4.66400E-001	9.64792E-004	5	..........a	-327.66
	69	14	4.76371E-001	2.43135E-007	0.00000E+000	4.76400E-001	9.62092E-004	5	..........a	-327.66
	70	14.2	4.86261E-001	2.48116E-007	0.00000E+000	4.86400E-001	9.60092E-004	5	..........a	-327.66
	71	14.4	4.96272E-001	2.53046E-007	0.00000E+000	4.96400E-001	9.63792E-004	5	..........a	-327.66
	72	14.6	5.06274E-001	2.58052E-007	0.00000E+000	5.06400E-001	9.51992E-004	5	..........a	-327.66
	73	14.8	5.16344E-001	2.63049E-007	0.00000E+000	5.16400E-001	9.62392E-004	5	..........a	-327.66
	74	15	5.26237E-001	2.68149E-007	0.00000E+000	5.26400E-001	9.50292E-004	5	..........a	-327.66
	75	15.2	5.36268E-001	2.73322E-007	0.00000E+000	5.36400E-001	9.60392E-004	5	..........a	-327.66
	76	15.4	5.46266E-001	2.78651E-007	0.00000E+000	5.46400E-001	9.57192E-004	5	..........a	-327.66
	77	15.6	5.56353E-001	2.84055E-007	0.00000E+000	5.56400E-001	9.48792E-004	5	..........a	-327.66
	78	15.8	5.66245E-001	2.89632E-007	0.00000E+000	5.66400E-001	9.46792E-004	5	..........a	-327.66
	79	16	5.76270E-001	2.95221E-007	0.00000E+000	5.76400E-001	9.53292E-004	5	..........a	-327.66
	80	16.2	5.86236E-001	3.01001E-007	0.00000E+000	5.86400E-001	9.51292E-004	5	..........a	-327.66
	81	16.4	5.96307E-001	3.06866E-007	0.00000E+000	5.96400E-001	9.62492E-004	5	..........a	-327.66
	82	16.6	6.06239E-001	3.12875E-007	0.00000E+000	6.06400E-001	9.55592E-004	5	..........a	-327.66
	83	16.8	6.16212E-001	3.18836E-007	0.00000E+000	6.16400E-001	9.62392E-004	5	..........a	-327.66
	84	17	6.26193E-001	3.24928E-007	0.00000E+000	6.26400E-001	9.52592E-004	5	..........a	-327.66
	85	17.2	6.36301E-001	3.31262E-007	0.00000E+000	6.36400E-001	9.61892E-004	5	..........a	-327.66
	86	17.4	6.46185E-001	3.37607E-007	0.00000E+000	6.46400E-001	9.62592E-004	5	..........a	-327.66
	87	17.6	6.56209E-001	3.44077E-007	0.00000E+000	6.56400E-001	9.57692E-004	5	..........a	-327.66
	88	17.8	6.66150E-001	3.50689E-007	0.00000E+000	6.66400E-001	9.58292E-004	5	..........a	-327.66
	89	18	6.76213E-001	3.57681E-007	0.00000E+000	6.76400E-001	9.42692E-004	5	..........a	-327.66
	90	18.2	6.86174E-001	3.64947E-007	0.00000E+000	6.86400E-001	9.60792E-004	5	..........a	-327.66
	91	18.4	6.96139E-001	3.72425E-007	0.00000E+000	6.96400E-001	9.43992E-004	5	..........a	-327.66
	92	18.6	7.06139E-001	3.80292E-007	0.00000E+000	7.06400E-001	9.52692E-004	5	..........a	-327.66
	93	18.8	7.16244E-001	3.88407E-007	0.00000E+000	7.16400E-001	9.56992E-004	5	..........a	-327.66
	94	19	7.26176E-001	3.97031E-007	0.00000E+000	7.26400E-001	9.51992E-004	5	..........a	-327.66
	95	19.2	7.36177E-001	4.06129E-007	0.00000E+000	7.36400E-001	9.56692E-004	5	..........a	-327.66
	96	19.4	7.46158E-001	4.15863E-007	0.00000E+000	7.46400E-001	9.41992E-004	5	..........a	-327.66
	97	19.6	7.56244E-001	4.25988E-007	0.00000E+000	7.56400E-001	9.53192E-004	5	..........a	-327.66
	98	19.8	7.66144E-001	4.36780E-007	0.00000E+000	7.66400E-001	9.50292E-004	5	..........a	-327.66
	99	20	7.76150E-001	4.48279E-007	0.00000E+000	7.76400E-001	9.53292E-004	5	..........a	-327.66
	100	20.2	7.86120E-001	4.60626E-007	0.00000E+000	7.86400E-001	9.60292E-004	5	..........a	-327.66
	101	20.4	7.96189E-001	4.73915E-007	0.00000E+000	7.96400E-001	9.44292E-004	5	..........a	-327.66
	102	20.6	7.86163E-001	4.00063E-007	0.00000E+000	7.86400E-001	9.44592E-004	5	..........a	-327.66
	103	20.8	7.76177E-001	3.47979E-007	0.00000E+000	7.76400E-001	9.58492E-004	5	..........a	-327.66
	104	21	7.66204E-001	3.07663E-007	0.00000E+000	7.66400E-001	9.50092E-004	5	..........a	-327.66
	105	21.2	7.56311E-001	2.74992E-007	0.00000E+000	7.56400E-001	9.48292E-004	5	..........a	-327.66
	106	21.4	7.46245E-001	2.47840E-007	0.00000E+000	7.46400E-001	9.52192E-004	5	..........a	-327.66
	107	21.6	7.36269E-001	2.24769E-007	0.00000E+000	7.36400E-001	9.63992E-004	5	..........a	-327.66
	108	21.8	7.26251E-001	2.04933E-007	0.00000E+000	7.26400E-001	9.61492E-004	5	..........a	-327.66
	109	22	7.16330E-001	1.87621E-007	0.00000E+000	7.16400E-001	9.58792E-004	5	..........a	-327.66
	110	22.2	7.06242E-001	1.72367E-007	0.00000E+000	7.06400E-001	9.50392E-004	5	..........a	-327.66
	111	22.4	6.96288E-001	1.58855E-007	0.00000E+000	6.96400E-001	9.63192E-004	5	..........a	-327.66
	112	22.6	6.86266E-001	1.46744E-007	0.00000E+000	6.86400E-001	9.50892E-004	5	..........a	-327.66
	113	22.8	6.76329E-001	1.35830E-007	0.00000E+000	6.76400E-001	9.50292E-004	5	..........a	-327.66
	114	23	6.66275E-001	1.25942E-007	0.00000E+000	6.66400E-001	9.58192E-004	5	..........a	-327.66
	115	23.2	6.56325E-001	1.16889E-007	0.00000E+000	6.56400E-001	9.64592E-004	5	..........a	-327.66
	116	23.4	6.46309E-001	1.08688E-007	0.00000E+000	6.46400E-001	9.60592E-004	5	..........a	-327.66
	117	23.6	6.36360E-001	1.01102E-007	0.00000E+000	6.36400E-001	9.55092E-004	5	..........a	-327.66
	118	23.8	6.26310E-001	9.41388E-008	0.00000E+000	6.26400E-001	9.54192E-004	5	..........a	-327.66
	119	24	6.16299E-001	8.77293E-008	0.00000E+000	6.16400E-001	9.57492E-004	5	..........a	-327.66
	120	24.2	6.06322E-001	8.17126E-008	0.00000E+000	6.06400E-001	9.59192E-004	5	..........a	-327.66
	121	24.4	5.96406E-001	7.61728E-008	0.00000E+000	5.96400E-001	9.61192E-004	5	..........a	-327.66
	122	24.6	5.86358E-001	7.09899E-008	0.00000E+000	5.86400E-001	9.52792E-004	5	..........a	-327.66
	123	24.8	5.76399E-001	6.61712E-008	0.00000E+000	5.76400E-001	9.56792E-004	5	..........a	-327.66
	124	25	5.66330E-001	6.15901E-008	0.00000E+000	5.66400E-001	9.72392E-004	5	..........a	-327.66
	125	25.2	5.56407E-001	5.74160E-008	0.00000E+000	5.56400E-001	9.66692E-004	5	..........a	-327.66
	126	25.4	5.46386E-001	5.34769E-008	0.00000E+000	5.46400E-001	9.68992E-004	5	..........a	-327.66
	127	25.6	5.36345E-001	4.90170E-008	0.00000E+000	5.36400E-001	9.58892E-004	5	..........a	-327.66
	128	25.8	5.26330E-001	4.60789E-008	0.00000E+000	5.26400E-001	9.50292E-004	5	..........a	-327.66
	129	26	5.16376E-001	4.28415E-008	0.00000E+000	5.16400E-001	9.63792E-004	5	..........a	-327.66
	130	26.2	5.06388E-001	3.96990E-008	0.00000E+000	5.06400E-001	9.40492E-004	5	..........a	-327.66
	131	26.4	4.96389E-001	3.67642E-008	0.00000E+000	4.96400E-001	9.56892E-004	5	..........a	-327.66
	132	26.6	4.86328E-001	3.39735E-008	0.00000E+000	4.86400E-001	9.54492E-004	5	..........a	-327.66
	133	26.8	4.76425E-001	3.12059E-008	0.00000E+000	4.76400E-001	9.55692E-004	5	..........a	-327.66
	134	27	4.66380E-001	2.85811E-008	0.00000E+000	4.66400E-001	9.59392E-004	5	..........a	-327.66
	135	27.2	4.56387E-001	2.59594E-008	0.00000E+000	4.56400E-001	9.59592E-004	5	..........a	-327.66
	136	27.4	4.46392E-001	2.34130E-008	0.00000E+000	4.46400E-001	9.61492E-004	5	..........a	-327.66
	137	27.6	4.36405E-001	2.09715E-008	0.00000E+000	4.36400E-001	9.60792E-004	5	..........a	-327.66
	138	27.8	4.26435E-001	1.86496E-008	0.00000E+000	4.26400E-001	9.54992E-004	5	..........a	-327.66
	139	28	4.16385E-001	1.62614E-008	0.00000E+000	4.16400E-001	9.52792E-004	5	..........a	-327.66
	140	28.2	4.06358E-001	1.40158E-008	0.00000E+000	4.06400E-001	9.50492E-004	5	..........a	-327.66
	141	28.4	3.96463E-001	1.18428E-008	0.00000E+000	3.96400E-001	9.65192E-004	5	..........a	-327.66
	142	28.6	3.86448E-001	9.60092E-009	0.00000E+000	3.86400E-001	9.46492E-004	5	..........a	-327.66
	143	28.8	3.76389E-001	7.39116E-009	0.00000E+000	3.76400E-001	9.64092E-004	5	..........a	-327.66
	144	29	3.66414E-001	5.34236E-009	0.00000E+000	3.66400E-001	9.47392E-004	5	..........a	-327.66
	145	29.2	3.56398E-001	3.33219E-009	0.00000E+000	3.56400E-001	9.73692E-004	5	..........a	-327.66
	146	29.4	3.46528E-001	1.65573E-010	0.00000E+000	3.46400E-001	9.46592E-004	5	..........a	-327.66
	147	29.6	3.36401E-001	-1.17741E-009	0.00000E+000	3.36400E-001	9.58092E-004	5	..........a	-327.66
	148	29.8	3.26428E-001	-2.88144E-009	0.00000E+000	3.26400E-001	9.52792E-004	5	..........a	-327.66
	149	30	3.16493E-001	-4.66382E-009	0.00000E+000	3.16400E-001	9.51492E-004	5	..........a	-327.66
	150	30.2	3.06466E-001	-6.48761E-009	0.00000E+000	3.06400E-001	9.47292E-004	5	..........a	-327.66
	151	30.4	2.96464E-001	-8.34278E-009	0.00000E+000	2.96400E-001	9.55292E-004	5	..........a	-327.66
	152	30.6	2.86434E-001	-1.02799E-008	0.00000E+000	2.86400E-001	9.59292E-004	5	..........a	-327.66
	153	30.8	2.76452E-001	-1.21816E-008	0.00000E+000	2.76400E-001	9.58792E-004	5	..........a	-327.66
	154	31	2.66470E-001	-1.40795E-008	0.00000E+000	2.66400E-001	9.57392E-004	5	..........a	-327.66
	155	31.2	2.56429E-001	-1.58812E-008	0.00000E+000	2.56400E-001	9.55592E-004	5	..........a	-327.66
	156	31.4	2.46446E-001	-1.76843E-008	0.00000E+000	2.46400E-001	9.57592E-004	5	..........a	-327.66
	157	31.6	2.36477E-001	-1.96565E-008	0.00000E+000	2.36400E-001	9.64192E-004	5	..........a	-327.66
	158	31.8	2.26505E-001	-2.17837E-008	0.00000E+000	2.26400E-001	9.51392E-004	5	..........a	-327.66
	159	32	2.16475E-001	-2.38799E-008	0.00000E+000	2.16400E-001	9.71692E-004	5	..........a	-327.66
	160	32.2	2.06450E-001	-2.59595E-008	0.00000E+000	2.06400E-001	9.56292E-004	5	..........a	-327.66
	161	32.4	1.96465E-001	-2.81806E-008	0.00000E+000	1.96400E-001	9.68292E-004	5	..........a	-327.66
	162	32.6	1.86544E-001	-3.03223E-008	0.00000E+000	1.86400E-001	9.48792E-004	5	..........a	-327.66
	163	32.8	1.76486E-001	-3.25923E-008	0.00000E+000	1.76400E-001	9.55892E-004	5	..........a	-327.66
	164	33	1.66518E-001	-3.47855E-008	0.00000E+000	1.66400E-001	9.57692E-004	5	..........a	-327.66
	165	33.2	1.56478E-001	-3.69268E-008	0.00000E+000	1.56400E-001	9.72992E-004	5	..........a	-327.66
	166	33.4	1.46591E-001	-3.90311E-008	0.00000E+000	1.46400E-001	9.59292E-004	5	..........a	-327.66
	167	33.6	1.36525E-001	-4.10442E-008	0.00000E+000	1.36400E-001	9.58092E-004	5	..........a	-327.66
	168	33.8	1.26497E-001	-4.29006E-008	0.00000E+000	1.26400E-001	9.57492E-004	5	..........a	-327.66
	169	34	1.16507E-001	-4.45749E-008	0.00000E+000	1.16400E-001	9.59792E-004	5	..........a	-327.66
	170	34.2	1.06566E-001	-4.60705E-008	0.00000E+000	1.06400E-001	9.37892E-004	5	..........a	-327.66
	171	34.4	9.64654E-002	-4.72750E-008	0.00000E+000	9.64000E-002	9.50592E-004	5	..........a	-327.66
	172	34.6	8.65115E-002	-4.79628E-008	0.00000E+000	8.64000E-002	9.54292E-004	5	..........a	-327.66
	173	34.8	7.64699E-002	-4.86354E-008	0.00000E+000	7.64000E-002	9.75692E-004	5	..........a	-327.66
	174	35	6.65052E-002	-4.92135E-008	0.00000E+000	6.64000E-002	9.55492E-004	5	..........a	-327.66
	175	35.2	5.64884E-002	-4.98268E-008	0.00000E+000	5.64000E-002	9.67392E-004	5	..........a	-327.66
	176	35.4	4.65034E-002	-5.01101E-008	0.00000E+000	4.64000E-002	9.59692E-004	5	..........a	-327.66
	177	35.6	3.65485E-002	-5.03974E-008	0.00000E+000	3.64000E-002	9.38092E-004	5	..........a	-327.66
	178	35.8	2.65716E-002	-5.06174E-008	0.00000E+000	2.64000E-002	9.56992E-004	5	..........a	-327.66
	179	36	1.65153E-002	-5.09405E-008	0.00000E+000	1.64000E-002	9.58292E-004	5	..........a	-327.66
	180	36.2	6.51549E-003	-5.20563E-008	0.00000E+000	6.40000E-003	9.57192E-004	5	..........a	-327.66
	181	36.4	-3.49541E-003	-5.30738E-008	0.00000E+000	-3.59999E-003	9.65492E-004	5	..........a	-327.66
	182	36.6	-1.34789E-002	-5.26532E-008	0.00000E+000	-1.36000E-002	9.43392E-004	5	..........a	-327.66
	183	36.8	-2.35256E-002	-5.23760E-008	0.00000E+000	-2.36000E-002	9.50392E-004	5	..........a	-327.66
	184	37	-3.35295E-002	-5.26044E-008	0.00000E+000	-3.36000E-002	9.60292E-004	5	..........a	-327.66
	185	37.2	-4.34865E-002	-5.26324E-008	0.00000E+000	-4.36000E-002	9.64492E-004	5	..........a	-327.66
	186	37.4	-5.34499E-002	-5.30060E-008	0.00000E+000	-5.36000E-002	9.44192E-004	5	..........a	-327.66
	187	37.6	-6.34757E-002	-5.29770E-008	0.00000E+000	-6.36000E-002	9.45892E-004	5	..........a	-327.66
	188	37.8	-7.35017E-002	-5.37782E-008	0.00000E+000	-7.36000E-002	9.47292E-004	5	..........a	-327.66
	189	38	-8.34971E-002	-5.43911E-008	0.00000E+000	-8.36000E-002	9.60792E-004	5	..........a	-327.66
	190	38.2	-9.34590E-002	-5.46947E-008	0.00000E+000	-9.36000E-002	9.54092E-004	5	..........a	-327.66
	191	38.4	-1.03509E-001	-5.49061E-008	0.00000E+000	-1.03600E-001	9.62892E-004	5	..........a	-327.66
	192	38.6	-1.13417E-001	-5.59030E-008	0.00000E+000	-1.13600E-001	9.66792E-004	5	..........a	-327.66
	193	38.8	-1.23488E-001	-5.70256E-008	0.00000E+000	-1.23600E-001	9.57392E-004	5	..........a	-327.66
	194	39	-1.33453E-001	-5.73801E-008	0.00000E+000	-1.33600E-001	9.57992E-004	5	..........a	-327.66
	195	39.2	-1.43486E-001	-5.81719E-008	0.00000E+000	-1.43600E-001	9.56492E-004	5	..........a	-327.66
	196	39.4	-1.53527E-001	-5.93915E-008	0.00000E+000	-1.53600E-001	9.68792E-004	5	..........a	-327.66
	197	39.6	-1.63453E-001	-6.06457E-008	0.00000E+000	-1.63600E-001	9.59192E-004	5	..........a	-327.66
	198	39.8	-1.73463E-001	-6.14479E-008	0.00000E+000	-1.73600E-001	9.37792E-004	5	..........a	-327.66
	199	40	-1.83518E-001	-6.30992E-008	0.00000E+000	-1.83600E-001	9.62892E-004	5	..........a	-327.66
	200	40.2	-1.93485E-001	-6.40575E-008	0.00000E+000	-1.93600E-001	9.41192E-004	5	..........a	-327.66
	201	40.4	-2.03460E-001	-6.57525E-008	0.00000E+000	-2.03600E-001	9.55892E-004	5	..........a	-327.66
	202	40.6	-2.13388E-001	-6.71586E-008	0.00000E+000	-2.13600E-001	9.39792E-004	5	..........a	-327.66
	203	40.8	-2.23455E-001	-6.83044E-008	0.00000E+000	-2.23600E-001	9.37192E-004	5	..........a	-327.66
	204	41	-2.33480E-001	-7.02958E-008	0.00000E+000	-2.33600E-001	9.56892E-004	5	..........a	-327.66
	205	41.2	-2.43451E-001	-7.15912E-008	0.00000E+000	-2.43600E-001	9.62292E-004	5	..........a	-327.66
	206	41.4	-2.53416E-001	-7.27863E-008	0.00000E+000	-2.53600E-001	9.46692E-004	5	..........a	-327.66
	207	41.6	-2.63462E-001	-7.43792E-008	0.00000E+000	-2.63600E-001	9.45792E-004	5	..........a	-327.66
	208	41.8	-2.73433E-001	-7.60622E-008	0.00000E+000	-2.73600E-001	9.47692E-004	5	..........a	-327.66
	209	42	-2.83459E-001	-7.83290E-008	0.00000E+000	-2.83600E-001	9.50892E-004	5	..........a	-327.66
	210	42.2	-2.93380E-001	-7.93694E-008	0.00000E+000	-2.93600E-001	9.49092E-004	5	..........a	-327.66
	211	42.4	-3.03456E-001	-8.07238E-008	0.00000E+000	-3.03600E-001	9.58292E-004	5	..........a	-327.66
	212	42.6	-3.13476E-001	-8.25934E-008	0.00000E+000	-3.13600E-001	9.53792E-004	5	..........a	-327.66
	213	42.8	-3.23441E-001	-8.40716E-008	0.00000E+000	-3.23600E-001	9.53492E-004	5	..........a	-327.66
	214	43	-3.33400E-001	-8.58704E-008	0.00000E+000	-3.33600E-001	9.44692E-004	5	..........a	-327.66
	215	43.2	-3.43445E-001	-8.74665E-008	0.00000E+000	-3.43600E-001	9.43692E-004	5	..........a	-327.66
	216	43.4	-3.53462E-001	-8.85871E-008	0.00000E+000	-3.53600E-001	9.56692E-004	5	..........a	-327.66
	217	43.6	-3.63434E-001	-9.04574E-008	0.00000E+000	-3.63600E-001	9.54092E-004	5	..........a	-327.66
	218	43.8	-3.73417E-001	-9.18126E-008	0.00000E+000	-3.73600E-001	9.41992E-004	5	..........a	-327.66
	219	44	-3.83484E-001	-9.33099E-008	0.00000E+000	-3.83600E-001	9.52692E-004	5	..........a	-327.66
	220	44.2	-3.93444E-001	-9.53280E-008	0.00000E+000	-3.93600E-001	9.57992E-004	5	..........a	-327.66
	221	44.4	-4.03439E-001	-9.68958E-008	0.00000E+000	-4.03600E-001	9.49092E-004	5	..........a	-327.66
	222	44.6	-4.13337E-001	-9.83834E-008	0.00000E+000	-4.13600E-001	9.63292E-004	5	..........a	-327.66
	223	44.8	-4.23420E-001	-1.00107E-007	0.00000E+000	-4.23600E-001	9.48892E-004	5	..........a	-327.66
	224	45	-4.33414E-001	-1.01793E-007	0.00000E+000	-4.33600E-001	9.59192E-004	5	..........a	-327.66
	225	45.2	-4.43428E-001	-1.03939E-007	0.00000E+000	-4.43600E-001	9.62192E-004	5	..........a	-327.66
	226	45.4	-4.53388E-001	-1.05581E-007	0.00000E+000	-4.53600E-001	9.46592E-004	5	..........a	-327.66
	227	45.6	-4.63408E-001	-1.07600E-007	0.00000E+000	-4.63600E-001	9.51592E-004	5	..........a	-327.66
	228	45.8	-4.73379E-001	-1.09604E-007	0.00000E+000	-4.73600E-001	9.46292E-004	5	..........a	-327.66
	229	46	-4.83409E-001	-1.11412E-007	0.00000E+000	-4.83600E-001	9.35092E-004	5	..........a	-327.66
	230	46.2	-4.93303E-001	-1.13459E-007	0.00000E+000	-4.93600E-001	9.62792E-004	5	..........a	-327.66
	231	46.4	-5.03411E-001	-1.15756E-007	0.00000E+000	-5.03600E-001	9.55692E-004	5	..........a	-327.66
	232	46.6	-5.13428E-001	-1.17719E-007	0.00000E+000	-5.13600E-001	9.55792E-004	5	..........a	-327.66
	233	46.8	-5.23404E-001	-1.19962E-007	0.00000E+000	-5.23600E-001	9.54192E-004	5	..........a	-327.66
	234	47	-5.33362E-001	-1.21792E-007	0.00000E+000	-5.33600E-001	9.45392E-004	5	..........a	-327.66
	235	47.2	-5.43422E-001	-1.24042E-007	0.00000E+000	-5.43600E-001	9.53992E-004	5	..........a	-327.66
	236	47.4	-5.53395E-001	-1.26388E-007	0.00000E+000	-5.53600E-001	9.64692E-004	5	..........a	-327.66
	237	47.6	-5.63420E-001	-1.28908E-007	0.00000E+000	-5.63600E-001	9.75792E-004	5	..........a	-327.66
	238	47.8	-5.73313E-001	-1.31249E-007	0.00000E+000	-5.73600E-001	9.61992E-004	5	..........a	-327.66
	239	48	-5.83405E-001	-1.33560E-007	0.00000E+000	-5.83600E-001	9.62292E-004	5	..........a	-327.66
	240	48.2	-5.93412E-001	-1.35923E-007	0.00000E+000	-5.93600E-001	9.53992E-004	5	..........a	-327.66
	241	48.4	-6.03413E-001	-1.36974E-007	0.00000E+000	-6.03600E-001	9.65392E-004	5	..........a	-327.66
CURVE2	TABLE
	Pt	T	Vf	Im	Vu	Sig	Ach	IERange	Over	Temp
	#	s	V vs. Ref.	A	V	V	V	#	bits	deg C
	242	48.6	-5.89828E-001	-1.04191E-007	0.00000E+000	-5.90000E-001	9.40392E-004	5	..........a	-327.66
	243	48.8	-5.79794E-001	-8.94014E-008	0.00000E+000	-5.80000E-001	9.55692E-004	5	..........a	-327.66
	244	49	-5.69847E-001	-7.80319E-008	0.00000E+000	-5.70000E-001	9.64592E-004	5	..........a	-327.66
	245	49.2	-5.59886E-001	-6.84801E-008	0.00000E+000	-5.60000E-001	9.63692E-004	5	..........a	-327.66
	246	49.4	-5.49851E-001	-6.05900E-008	0.00000E+000	-5.50000E-001	9.45292E-004	5	..........a	-327.66
	247	49.6	-5.39770E-001	-5.38439E-008	0.00000E+000	-5.40000E-001	9.49892E-004	5	..........a	-327.66
	248	49.8	-5.29848E-001	-4.79965E-008	0.00000E+000	-5.30000E-001	9.71592E-004	5	..........a	-327.66
	249	50	-5.19875E-001	-4.26750E-008	0.00000E+000	-5.20000E-001	9.56492E-004	5	..........a	-327.66
	250	50.2	-5.09888E-001	-3.81937E-008	0.00000E+000	-5.10000E-001	9.40092E-004	5	..........a	-327.66
	251	50.4	-4.99826E-001	-3.39078E-008	0.00000E+000	-5.00000E-001	9.48392E-004	5	..........a	-327.66
	252	50.6	-4.89840E-001	-3.00776E-008	0.00000E+000	-4.90000E-001	9.66592E-004	5	..........a	-327.66
	253	50.8	-4.79842E-001	-2.67690E-008	0.00000E+000	-4.80000E-001	9.60092E-004	5	..........a	-327.66
	254	51	-4.69838E-001	-2.43214E-008	0.00000E+000	-4.70000E-001	9.35192E-004	5	..........a	-327.66
	255	51.2	-4.59822E-001	-2.05528E-008	0.00000E+000	-4.60000E-001	9.48092E-004	5	..........a	-327.66
	256	51.4	-4.49851E-001	-1.77500E-008	0.00000E+000	-4.50000E-001	9.46792E-004	5	..........a	-327.66
	257	51.6	-4.39840E-001	-1.51529E-008	0.00000E+000	-4.40000E-001	9.37092E-004	5	..........a	-327.66
	258	51.8	-4.29873E-001	-1.26863E-008	0.00000E+000	-4.30000E-001	9.56692E-004	5	..........a	-327.66
	259	52	-4.19829E-001	-1.04608E-008	0.00000E+000	-4.20000E-001	9.43792E-004	5	..........a	-327.66
	260	52.2	-4.09853E-001	-8.27134E-009	0.00000E+000	-4.10000E-001	9.65292E-004	5	..........a	-327.66
	261	52.4	-3.99861E-001	-6.09186E-009	0.00000E+000	-4.00000E-001	9.55592E-004	5	..........a	-327.66
	262	52.6	-3.89880E-001	-4.03533E-009	0.00000E+000	-3.90000E-001	9.62392E-004	5	..........a	-327.66
	263	52.8	-3.79859E-001	-2.08531E-009	0.00000E+000	-3.80000E-001	9.36192E-004	5	..........a	-327.66
	264	53	-3.69884E-001	-2.54873E-010	0.00000E+000	-3.70000E-001	9.41792E-004	5	..........a	-327.66
	265	53.2	-3.59943E-001	1.39544E-009	0.00000E+000	-3.60000E-001	9.60892E-004	5	..........a	-327.66
	266	53.4	-3.49919E-001	3.09691E-009	0.00000E+000	-3.50000E-001	9.56892E-004	5	..........a	-327.66
	267	53.6	-3.39829E-001	4.91875E-009	0.00000E+000	-3.40000E-001	9.55792E-004	5	..........a	-327.66
	268	53.8	-3.29915E-001	6.50385E-009	0.00000E+000	-3.30000E-001	9.61892E-004	5	..........a	-327.66
	269	54	-3.19902E-001	8.17873E-009	0.00000E+000	-3.20000E-001	9.53692E-004	5	..........a	-327.66
	270	54.2	-3.09920E-001	9.76143E-009	0.00000E+000	-3.10000E-001	9.61892E-004	5	..........a	-327.66
	271	54.4	-2.99857E-001	1.12790E-008	0.00000E+000	-3.00000E-001	9.53692E-004	5	..........a	-327.66
	272	54.6	-2.89949E-001	1.27810E-008	0.00000E+000	-2.90000E-001	9.56292E-004	5	..........a	-327.66
	273	54.8	-2.79937E-001	1.42132E-008	0.00000E+000	-2.80000E-001	9.55992E-004	5	..........a	-327.66
	274	55	-2.69877E-001	1.57068E-008	0.00000E+000	-2.70000E-001	9.57092E-004	5	..........a	-327.66
	275	55.2	-2.59841E-001	1.72142E-008	0.00000E+000	-2.60000E-001	9.41392E-004	5	..........a	-327.66
	276	55.4	-2.49901E-001	1.86298E-008	0.00000E+000	-2.50000E-001	9.57392E-004	5	..........a	-327.66
	277	55.6	-2.39908E-001	2.00207E-008	0.00000E+000	-2.40000E-001	9.51492E-004	5	..........a	-327.66
	278	55.8	-2.29943E-001	2.14052E-008	0.00000E+000	-2.30000E-001	9.69992E-004	5	..........a	-327.66
	279	56	-2.19889E-001	2.27832E-008	0.00000E+000	-2.20000E-001	9.50792E-004	5	..........a	-327.66
	280	56.2	-2.09922E-001	2.41719E-008	0.00000E+000	-2.10000E-001	9.53092E-004	5	..........a	-327.66
	281	56.4	-1.99960E-001	2.55547E-008	0.00000E+000	-2.00000E-001	9.54292E-004	5	..........a	-327.66
	282	56.6	-1.90141E-001	2.68836E-008	0.00000E+000	-1.90000E-001	9.50592E-004	5	..........a	-327.66
	283	56.8	-1.79941E-001	2.82173E-008	0.00000E+000	-1.80000E-001	9.55792E-004	5	..........a	-327.66
	284	57	-1.69904E-001	2.96258E-008	0.00000E+000	-1.70000E-001	9.60492E-004	5	..........a	-327.66
	285	57.2	-1.59982E-001	3.09469E-008	0.00000E+000	-1.60000E-001	9.71492E-004	5	..........a	-327.66
	286	57.4	-1.49968E-001	3.23258E-008	0.00000E+000	-1.50000E-001	9.45092E-004	5	..........a	-327.66
	287	57.6	-1.39920E-001	3.36640E-008	0.00000E+000	-1.40000E-001	9.53192E-004	5	..........a	-327.66
	288	57.8	-1.29943E-001	3.49320E-008	0.00000E+000	-1.30000E-001	9.67892E-004	5	..........a	-327.66
	289	58	-1.19944E-001	3.63892E-008	0.00000E+000	-1.20000E-001	9.51092E-004	5	..........a	-327.66
	290	58.2	-1.09958E-001	3.78116E-008	0.00000E+000	-1.10000E-001	9.59692E-004	5	..........a	-327.66
	291	58.4	-9.99342E-002	3.92366E-008	0.00000E+000	-1.00000E-001	9.51892E-004	5	..........a	-327.66
	292	58.6	-8.99202E-002	4.06434E-008	0.00000E+000	-9.00000E-002	9.60592E-004	5	..........a	-327.66
	293	58.8	-7.99790E-002	4.21457E-008	0.00000E+000	-8.00000E-002	9.58992E-004	5	..........a	-327.66
	294	59	-6.99728E-002	4.36174E-008	0.00000E+000	-7.00000E-002	9.52192E-004	5	..........a	-327.66
	295	59.2	-5.99120E-002	4.50969E-008	0.00000E+000	-6.00000E-002	9.43192E-004	5	..........a	-327.66
	296	59.4	-4.99088E-002	4.66165E-008	0.00000E+000	-5.00000E-002	9.60892E-004	5	..........a	-327.66
	297	59.6	-3.99362E-002	4.81930E-008	0.00000E+000	-4.00000E-002	9.54792E-004	5	..........a	-327.66
	298	59.8	-2.99654E-002	4.97701E-008	0.00000E+000	-3.00000E-002	9.59992E-004	5	..........a	-327.66
	299	60	-1.99390E-002	5.13702E-008	0.00000E+000	-2.00000E-002	9.72092E-004	5	..........a	-327.66
	300	60.2	-9.88956E-003	5.30367E-008	0.00000E+000	-1.00000E-002	9.71692E-004	5	..........a	-327.66
	301	60.4	-1.07583E-005	5.47272E-008	0.00000E+000	7.45058E-009	9.69592E-004	5	..........a	-327.66
	302	60.6	1.00810E-002	5.64240E-008	0.00000E+000	1.00000E-002	9.52692E-004	5	..........a	-327.66
	303	60.8	2.01166E-002	5.82475E-008	0.00000E+000	2.00000E-002	9.51792E-004	5	..........a	-327.66
	304	61	3.00324E-002	6.00787E-008	0.00000E+000	3.00000E-002	9.65092E-004	5	..........a	-327.66
	305	61.2	4.00070E-002	6.18957E-008	0.00000E+000	4.00000E-002	9.64492E-004	5	..........a	-327.66
	306	61.4	5.00122E-002	6.38683E-008	0.00000E+000	5.00000E-002	9.60892E-004	5	..........a	-327.66
	307	61.6	6.00798E-002	6.58625E-008	0.00000E+000	6.00000E-002	9.53492E-004	5	..........a	-327.66
	308	61.8	7.00219E-002	6.79340E-008	0.00000E+000	7.00000E-002	9.58592E-004	5	..........a	-327.66
	309	62	7.99838E-002	7.00563E-008	0.00000E+000	8.00000E-002	9.72092E-004	5	..........a	-327.66
	310	62.2	9.00789E-002	7.23448E-008	0.00000E+000	9.00000E-002	9.59192E-004	5	..........a	-327.66
	311	62.4	1.00064E-001	7.49998E-008	0.00000E+000	1.00000E-001	9.57692E-004	5	..........a	-327.66
	312	62.6	1.10078E-001	7.88384E-008	0.00000E+000	1.10000E-001	9.62192E-004	5	..........a	-327.66
	313	62.8	1.19988E-001	8.08472E-008	0.00000E+000	1.20000E-001	9.61692E-004	5	..........a	-327.66
	314	63	1.30011E-001	8.30931E-008	0.00000E+000	1.30000E-001	9.78992E-004	5	..........a	-327.66
	315	63.2	1.40068E-001	8.54586E-008	0.00000E+000	1.40000E-001	9.57592E-004	5	..........a	-327.66
	316	63.4	1.50032E-001	8.79795E-008	0.00000E+000	1.50000E-001	9.63992E-004	5	..........a	-327.66
	317	63.6	1.59992E-001	9.07892E-008	0.00000E+000	1.60000E-001	9.51592E-004	5	..........a	-327.66
	318	63.8	1.70042E-001	9.36119E-008	0.00000E+000	1.70000E-001	9.62592E-004	5	..........a	-327.66
	319	64	1.80029E-001	9.64928E-008	0.00000E+000	1.80000E-001	9.49792E-004	5	..........a	-327.66
	320	64.2	1.90066E-001	9.93794E-008	0.00000E+000	1.90000E-001	9.47592E-004	5	..........a	-327.66
	321	64.4	1.99998E-001	1.02273E-007	0.00000E+000	2.00000E-001	9.67992E-004	5	..........a	-327.66
	322	64.6	2.09945E-001	1.04978E-007	0.00000E+000	2.10000E-001	9.65592E-004	5	..........a	-327.66
	323	64.8	2.19967E-001	1.07611E-007	0.00000E+000	2.20000E-001	9.42992E-004	5	..........a	-327.66
	324	65	2.29968E-001	1.09981E-007	0.00000E+000	2.30000E-001	9.58192E-004	5	..........a	-327.66
	325	65.2	2.39978E-001	1.12264E-007	0.00000E+000	2.40000E-001	9.61092E-004	5	..........a	-327.66
	326	65.4	2.49964E-001	1.14454E-007	0.00000E+000	2.50000E-001	9.57792E-004	5	..........a	-327.66
	327	65.6	2.59977E-001	1.16709E-007	0.00000E+000	2.60000E-001	9.55292E-004	5	..........a	-327.66
	328	65.8	2.70053E-001	1.18855E-007	0.00000E+000	2.70000E-001	9.52792E-004	5	..........a	-327.66
	329	66	2.79931E-001	1.21160E-007	0.00000E+000	2.80000E-001	9.70192E-004	5	..........a	-327.66
	330	66.2	2.89965E-001	1.23609E-007	0.00000E+000	2.90000E-001	9.67392E-004	5	..........a	-327.66
	331	66.4	2.99971E-001	1.26222E-007	0.00000E+000	3.00000E-001	9.45492E-004	5	..........a	-327.66
	332	66.6	3.10000E-001	1.28879E-007	0.00000E+000	3.10000E-001	9.60592E-004	5	..........a	-327.66
	333	66.8	3.19962E-001	1.31634E-007	0.00000E+000	3.20000E-001	9.67892E-004	5	..........a	-327.66
	334	67	3.29956E-001	1.34555E-007	0.00000E+000	3.30000E-001	9.71392E-004	5	..........a	-327.66
	335	67.2	3.39996E-001	1.37468E-007	0.00000E+000	3.40000E-001	9.52592E-004	5	..........a	-327.66
	336	67.4	3.49982E-001	1.40442E-007	0.00000E+000	3.50000E-001	9.66392E-004	5	..........a	-327.66
	337	67.6	3.59936E-001	1.43462E-007	0.00000E+000	3.60000E-001	9.57192E-004	5	..........a	-327.66
	338	67.8	3.69966E-001	1.46513E-007	0.00000E+000	3.70000E-001	9.52492E-004	5	..........a	-327.66
	339	68	3.79964E-001	1.49541E-007	0.00000E+000	3.80000E-001	9.49492E-004	5	..........a	-327.66
	340	68.2	3.90006E-001	1.52502E-007	0.00000E+000	3.90000E-001	9.66692E-004	5	..........a	-327.66
	341	68.4	3.99976E-001	1.55477E-007	0.00000E+000	4.00000E-001	9.50992E-004	5	..........a	-327.66
	342	68.6	4.09970E-001	1.58416E-007	0.00000E+000	4.10000E-001	9.53192E-004	5	..........a	-327.66
	343	68.8	4.19933E-001	1.61272E-007	0.00000E+000	4.20000E-001	9.50292E-004	5	..........a	-327.66
	344	69	4.29967E-001	1.64180E-007	0.00000E+000	4.30000E-001	9.75292E-004	5	..........a	-327.66
	345	69.2	4.39901E-001	1.67020E-007	0.00000E+000	4.40000E-001	9.69092E-004	5	..........a	-327.66
	346	69.4	4.49847E-001	1.69778E-007	0.00000E+000	4.50000E-001	9.49492E-004	5	..........a	-327.66
	347	69.6	4.59920E-001	1.72530E-007	0.00000E+000	4.60000E-001	9.56392E-004	5	..........a	-327.66
	348	69.8	4.69968E-001	1.75218E-007	0.00000E+000	4.70000E-001	9.55392E-004	5	..........a	-327.66
	349	70	4.79884E-001	1.77807E-007	0.00000E+000	4.80000E-001	9.51392E-004	5	..........a	-327.66
	350	70.2	4.89890E-001	1.80426E-007	0.00000E+000	4.90000E-001	9.66292E-004	5	..........a	-327.66
	351	70.4	4.99944E-001	1.82983E-007	0.00000E+000	5.00000E-001	9.54492E-004	5	..........a	-327.66
	352	70.6	5.09958E-001	1.85602E-007	0.00000E+000	5.10000E-001	9.66892E-004	5	..........a	-327.66
	353	70.8	5.19906E-001	1.88402E-007	0.00000E+000	5.20000E-001	9.46992E-004	5	..........a	-327.66
	354	71	5.29908E-001	1.91359E-007	0.00000E+000	5.30000E-001	9.63792E-004	5	..........a	-327.66
[...]
	922	184.6	6.09908E-001	1.91149E-007	0.00000E+000	6.10000E-001	9.77992E-004	5	..........a	-327.66
	923	184.8	6.19868E-001	1.98567E-007	0.00000E+000	6.20000E-001	9.56192E-004	5	..........a	-327.66
	924	185	6.29964E-001	2.05108E-007	0.00000E+000	6.30000E-001	9.64092E-004	5	..........a	-327.66
	925	185.2	6.39849E-001	2.10140E-007	0.00000E+000	6.40000E-001	9.57392E-004	5	..........a	-327.66
	926	185.4	6.49870E-001	2.13682E-007	0.00000E+000	6.50000E-001	9.75992E-004	5	..........a	-327.66
	927	185.6	6.59872E-001	2.17267E-007	0.00000E+000	6.60000E-001	9.60492E-004	5	..........a	-327.66
	928	185.8	6.69922E-001	2.21759E-007	0.00000E+000	6.70000E-001	9.48592E-004	5	..........a	-327.66
	929	186	6.79863E-001	2.27034E-007	0.00000E+000	6.80000E-001	9.51492E-004	5	..........a	-327.66
	930	186.2	6.89855E-001	2.33704E-007	0.00000E+000	6.90000E-001	9.68192E-004	5	..........a	-327.66
	931	186.4	6.99835E-001	2.41292E-007	0.00000E+000	7.00000E-001	9.55292E-004	5	..........a	-327.66
	932	186.6	7.09931E-001	2.49752E-007	0.00000E+000	7.10000E-001	9.69292E-004	5	..........a	-327.66
	933	186.8	7.19839E-001	2.59011E-007	0.00000E+000	7.20000E-001	9.68992E-004	5	..........a	-327.66
	934	187	7.29827E-001	2.68845E-007	0.00000E+000	7.30000E-001	9.68392E-004	5	..........a	-327.66
	935	187.2	7.39834E-001	2.79704E-007	0.00000E+000	7.40000E-001	9.62892E-004	5	..........a	-327.66
	936	187.4	7.49889E-001	2.91384E-007	0.00000E+000	7.50000E-001	9.73092E-004	5	..........a	-327.66
	937	187.6	7.59830E-001	3.03583E-007	0.00000E+000	7.60000E-001	9.59992E-004	5	..........a	-327.66
	938	187.8	7.69823E-001	3.15999E-007	0.00000E+000	7.70000E-001	9.80792E-004	5	..........a	-327.66
	939	188	7.79802E-001	3.29206E-007	0.00000E+000	7.80000E-001	9.66892E-004	5	..........a	-327.66
	940	188.2	7.89906E-001	3.42823E-007	0.00000E+000	7.90000E-001	9.63292E-004	5	..........a	-327.66
	941	188.4	7.99780E-001	3.56712E-007	0.00000E+000	8.00000E-001	9.53492E-004	5	..........a	-327.66
	942	188.6	7.89919E-001	2.96483E-007	0.00000E+000	7.90000E-001	9.61992E-004	5	..........a	-327.66
	943	188.8	7.79815E-001	2.56503E-007	0.00000E+000	7.80000E-001	9.50692E-004	5	..........a	-327.66
	944	189	7.69857E-001	2.26466E-007	0.00000E+000	7.70000E-001	9.67292E-004	5	..........a	-327.66
	945	189.2	7.59849E-001	2.02839E-007	0.00000E+000	7.60000E-001	9.64992E-004	5	..........a	-327.66
	946	189.4	7.49946E-001	1.83435E-007	0.00000E+000	7.50000E-001	9.73092E-004	5	..........a	-327.66
	947	189.6	7.39880E-001	1.67138E-007	0.00000E+000	7.40000E-001	9.52492E-004	5	..........a	-327.66
	948	189.8	7.29914E-001	1.53068E-007	0.00000E+000	7.30000E-001	9.64992E-004	5	..........a	-327.66
	949	190	7.19892E-001	1.40875E-007	0.00000E+000	7.20000E-001	9.68292E-004	5	..........a	-327.66
	950	190.2	7.09956E-001	1.30102E-007	0.00000E+000	7.10000E-001	9.61992E-004	5	..........a	-327.66
	951	190.4	6.99907E-001	1.20452E-007	0.00000E+000	7.00000E-001	9.56492E-004	5	..........a	-327.66
	952	190.6	6.89907E-001	1.11766E-007	0.00000E+000	6.90000E-001	9.73292E-004	5	..........a	-327.66
	953	190.8	6.79906E-001	1.03918E-007	0.00000E+000	6.80000E-001	9.61792E-004	5	..........a	-327.66
	954	191	6.69974E-001	9.67526E-008	0.00000E+000	6.70000E-001	9.62092E-004	5	..........a	-327.66
	955	191.2	6.59912E-001	9.01835E-008	0.00000E+000	6.60000E-001	9.60592E-004	5	..........a	-327.66
	956	191.4	6.49908E-001	8.41860E-008	0.00000E+000	6.50000E-001	9.68092E-004	5	..........a	-327.66
	957	191.6	6.39913E-001	7.85408E-008	0.00000E+000	6.40000E-001	9.64792E-004	5	..........a	-327.66
	958	191.8	6.30033E-001	7.31232E-008	0.00000E+000	6.30000E-001	9.57292E-004	5	..........a	-327.66
	959	192	6.19943E-001	6.82840E-008	0.00000E+000	6.20000E-001	9.68592E-004	5	..........a	-327.66
	960	192.2	6.09956E-001	6.37557E-008	0.00000E+000	6.10000E-001	9.69392E-004	5	..........a	-327.66
	961	192.4	5.99972E-001	5.95083E-008	0.00000E+000	6.00000E-001	9.78392E-004	5	..........a	-327.66
	962	192.6	5.90022E-001	5.54237E-008	0.00000E+000	5.90000E-001	9.69992E-004	5	..........a	-327.66
	963	192.8	5.80004E-001	5.15615E-008	0.00000E+000	5.80000E-001	9.52692E-004	5	..........a	-327.66
	964	193	5.69955E-001	4.79207E-008	0.00000E+000	5.70000E-001	9.73092E-004	5	..........a	-327.66
	965	193.2	5.59948E-001	4.44860E-008	0.00000E+000	5.60000E-001	9.71092E-004	5	..........a	-327.66
	966	193.4	5.50040E-001	4.10868E-008	0.00000E+000	5.50000E-001	9.63492E-004	5	..........a	-327.66
	967	193.6	5.40013E-001	3.79170E-008	0.00000E+000	5.40000E-001	9.62592E-004	5	..........a	-327.66
	968	193.8	5.29961E-001	3.48520E-008	0.00000E+000	5.30000E-001	9.64292E-004	5	..........a	-327.66
	969	194	5.19995E-001	3.18096E-008	0.00000E+000	5.20000E-001	9.56292E-004	5	..........a	-327.66
	970	194.2	5.09982E-001	2.88104E-008	0.00000E+000	5.10000E-001	9.68692E-004	5	..........a	-327.66
	971	194.4	5.00070E-001	2.57083E-008	0.00000E+000	5.00000E-001	9.58292E-004	5	..........a	-327.66
	972	194.6	4.89950E-001	2.26824E-008	0.00000E+000	4.90000E-001	9.60892E-004	5	..........a	-327.66
	973	194.8	4.79924E-001	1.91607E-008	0.00000E+000	4.80000E-001	9.63492E-004	5	..........a	-327.66
	974	195	4.70040E-001	1.52225E-008	0.00000E+000	4.70000E-001	9.64992E-004	5	..........a	-327.66
	975	195.2	4.60035E-001	1.13655E-008	0.00000E+000	4.60000E-001	9.50292E-004	5	..........a	-327.66
	976	195.4	4.49951E-001	8.19616E-009	0.00000E+000	4.50000E-001	9.65592E-004	5	..........a	-327.66
	977	195.6	4.39962E-001	5.80571E-009	0.00000E+000	4.40000E-001	9.68592E-004	5	..........a	-327.66
	978	195.8	4.29980E-001	3.91794E-009	0.00000E+000	4.30000E-001	9.61892E-004	5	..........a	-327.66
	979	196	4.20021E-001	2.42640E-009	0.00000E+000	4.20000E-001	9.64192E-004	5	..........a	-327.66
	980	196.2	4.09971E-001	1.01580E-009	0.00000E+000	4.10000E-001	9.60192E-004	5	..........a	-327.66
	981	196.4	3.99997E-001	-3.92148E-010	0.00000E+000	4.00000E-001	9.61992E-004	5	..........a	-327.66
	982	196.6	3.90049E-001	-1.63251E-009	0.00000E+000	3.90000E-001	9.68492E-004	5	..........a	-327.66
	983	196.8	3.80068E-001	-2.88401E-009	0.00000E+000	3.80000E-001	9.56192E-004	5	..........a	-327.66
	984	197	3.70077E-001	-4.02537E-009	0.00000E+000	3.70000E-001	9.52792E-004	5	..........a	-327.66
	985	197.2	3.60050E-001	-5.29834E-009	0.00000E+000	3.60000E-001	9.57592E-004	5	..........a	-327.66
	986	197.4	3.50053E-001	-6.45946E-009	0.00000E+000	3.50000E-001	9.72492E-004	5	..........a	-327.66
	987	197.6	3.40097E-001	-7.49536E-009	0.00000E+000	3.40000E-001	9.48192E-004	5	..........a	-327.66
	988	197.8	3.30056E-001	-8.52918E-009	0.00000E+000	3.30000E-001	9.55592E-004	5	..........a	-327.66
	989	198	3.20078E-001	-9.70115E-009	0.00000E+000	3.20000E-001	9.55792E-004	5	..........a	-327.66
	990	198.2	3.10066E-001	-1.07838E-008	0.00000E+000	3.10000E-001	9.67292E-004	5	..........a	-327.66
	991	198.4	3.00079E-001	-1.17779E-008	0.00000E+000	3.00000E-001	9.54292E-004	5	..........a	-327.66
	992	198.6	2.90065E-001	-1.27220E-008	0.00000E+000	2.90000E-001	9.60692E-004	5	..........a	-327.66
	993	198.8	2.80011E-001	-1.37861E-008	0.00000E+000	2.80000E-001	9.74792E-004	5	..........a	-327.66
	994	199	2.70115E-001	-1.47520E-008	0.00000E+000	2.70000E-001	9.63192E-004	5	..........a	-327.66
	995	199.2	2.60085E-001	-1.57470E-008	0.00000E+000	2.60000E-001	9.57292E-004	5	..........a	-327.66
	996	199.4	2.50019E-001	-1.66198E-008	0.00000E+000	2.50000E-001	9.64392E-004	5	..........a	-327.66
	997	199.6	2.40063E-001	-1.75606E-008	0.00000E+000	2.40000E-001	9.82292E-004	5	..........a	-327.66
	998	199.8	2.30021E-001	-1.85380E-008	0.00000E+000	2.30000E-001	9.85592E-004	5	..........a	-327.66
	999	200	2.19991E-001	-1.95697E-008	0.00000E+000	2.20000E-001	9.45392E-004	5	..........a	-327.66
	1000	200.2	2.10041E-001	-2.06308E-008	0.00000E+000	2.10000E-001	9.64992E-004	5	..........a	-327.66
	1001	200.4	2.00065E-001	-2.17634E-008	0.00000E+000	2.00000E-001	9.64792E-004	5	..........a	-327.66
	1002	200.6	1.90124E-001	-2.28469E-008	0.00000E+000	1.90000E-001	9.55192E-004	5	..........a	-327.66
	1003	200.8	1.80120E-001	-2.39655E-008	0.00000E+000	1.80000E-001	9.56292E-004	5	..........a	-327.66
	1004	201	1.70108E-001	-2.50975E-008	0.00000E+000	1.70000E-001	9.57192E-004	5	..........a	-327.66
	1005	201.2	1.60083E-001	-2.63711E-008	0.00000E+000	1.60000E-001	9.57292E-004	5	..........a	-327.66
	1006	201.4	1.50087E-001	-2.75858E-008	0.00000E+000	1.50000E-001	9.63392E-004	5	..........a	-327.66
	1007	201.6	1.40136E-001	-2.89421E-008	0.00000E+000	1.40000E-001	9.46592E-004	5	..........a	-327.66
	1008	201.8	1.30099E-001	-3.03295E-008	0.00000E+000	1.30000E-001	9.63292E-004	5	..........a	-327.66
	1009	202	1.20048E-001	-3.17752E-008	0.00000E+000	1.20000E-001	9.63492E-004	5	..........a	-327.66
	1010	202.2	1.10115E-001	-3.31456E-008	0.00000E+000	1.10000E-001	9.72592E-004	5	..........a	-327.66
	1011	202.4	1.00136E-001	-3.44733E-008	0.00000E+000	1.00000E-001	9.65992E-004	5	..........a	-327.66
	1012	202.6	9.01303E-002	-3.56663E-008	0.00000E+000	9.00000E-002	9.47492E-004	5	..........a	-327.66
	1013	202.8	8.00453E-002	-3.66906E-008	0.00000E+000	8.00000E-002	9.69192E-004	5	..........a	-327.66
	1014	203	7.00500E-002	-3.77260E-008	0.00000E+000	7.00000E-002	9.61792E-004	5	..........a	-327.66
	1015	203.2	6.01246E-002	-3.85282E-008	0.00000E+000	6.00000E-002	9.70292E-004	5	..........a	-327.66
	1016	203.4	5.00663E-002	-3.91712E-008	0.00000E+000	5.00000E-002	9.68192E-004	5	..........a	-327.66
	1017	203.6	4.00691E-002	-3.98187E-008	0.00000E+000	4.00000E-002	9.65692E-004	5	..........a	-327.66
	1018	203.8	3.00875E-002	-4.06062E-008	0.00000E+000	3.00000E-002	9.77592E-004	5	..........a	-327.66
	1019	204	2.01745E-002	-4.17417E-008	0.00000E+000	2.00000E-002	9.49792E-004	5	..........a	-327.66
	1020	204.2	1.01217E-002	-4.26610E-008	0.00000E+000	1.00000E-002	9.63092E-004	5	..........a	-327.66
	1021	204.4	6.77916E-005	-4.29358E-008	0.00000E+000	7.45058E-009	9.65592E-004	5	..........a	-327.66
	1022	204.6	-9.87701E-003	-4.29681E-008	0.00000E+000	-1.00000E-002	9.58192E-004	5	..........a	-327.66
	1023	204.8	-1.98879E-002	-4.30210E-008	0.00000E+000	-2.00000E-002	9.45192E-004	5	..........a	-327.66
	1024	205	-2.99069E-002	-4.34089E-008	0.00000E+000	-3.00000E-002	9.54392E-004	5	..........a	-327.66
	1025	205.2	-3.98922E-002	-4.41313E-008	0.00000E+000	-4.00000E-002	9.63092E-004	5	..........a	-327.66
	1026	205.4	-4.98812E-002	-4.43942E-008	0.00000E+000	-5.00000E-002	9.49792E-004	5	..........a	-327.66
	1027	205.6	-5.98785E-002	-4.51814E-008	0.00000E+000	-6.00000E-002	9.51392E-004	5	..........a	-327.66
	1028	205.8	-6.98800E-002	-4.64520E-008	0.00000E+000	-7.00000E-002	9.57792E-004	5	..........a	-327.66
	1029	206	-7.98931E-002	-4.67562E-008	0.00000E+000	-8.00000E-002	9.58892E-004	5	..........a	-327.66
	1030	206.2	-8.98801E-002	-4.82663E-008	0.00000E+000	-9.00000E-002	9.54592E-004	5	..........a	-327.66
	1031	206.4	-9.98649E-002	-4.88305E-008	0.00000E+000	-1.00000E-001	9.57692E-004	5	..........a	-327.66
	1032	206.6	-1.09911E-001	-5.04640E-008	0.00000E+000	-1.10000E-001	9.65092E-004	5	..........a	-327.66
	1033	206.8	-1.19884E-001	-5.11092E-008	0.00000E+000	-1.20000E-001	9.71692E-004	5	..........a	-327.66
	1034	207	-1.29907E-001	-5.25230E-008	0.00000E+000	-1.30000E-001	9.64192E-004	5	..........a	-327.66
	1035	207.2	-1.39911E-001	-5.38565E-008	0.00000E+000	-1.40000E-001	9.59492E-004	5	..........a	-327.66
	1036	207.4	-1.49908E-001	-5.53115E-008	0.00000E+000	-1.50000E-001	9.65792E-004	5	..........a	-327.66
	1037	207.6	-1.59910E-001	-5.65770E-008	0.00000E+000	-1.60000E-001	9.69892E-004	5	..........a	-327.66
	1038	207.8	-1.69877E-001	-5.78924E-008	0.00000E+000	-1.70000E-001	9.68192E-004	5	..........a	-327.66
	1039	208	-1.79863E-001	-5.97525E-008	0.00000E+000	-1.80000E-001	9.39992E-004	5	..........a	-327.66
	1040	208.2	-1.89914E-001	-6.12277E-008	0.00000E+000	-1.90000E-001	9.40892E-004	5	..........a	-327.66
	1041	208.4	-1.99902E-001	-6.25193E-008	0.00000E+000	-2.00000E-001	9.68792E-004	5	..........a	-327.66
	1042	208.6	-2.09859E-001	-6.45204E-008	0.00000E+000	-2.10000E-001	9.49092E-004	5	..........a	-327.66
	1043	208.8	-2.19847E-001	-6.59506E-008	0.00000E+000	-2.20000E-001	9.75792E-004	5	..........a	-327.66
	1044	209	-2.29894E-001	-6.74970E-008	0.00000E+000	-2.30000E-001	9.61792E-004	5	..........a	-327.66
	1045	209.2	-2.39877E-001	-6.94880E-008	0.00000E+000	-2.40000E-001	9.50692E-004	5	..........a	-327.66
	1046	209.4	-2.49849E-001	-7.07781E-008	0.00000E+000	-2.50000E-001	9.68792E-004	5	..........a	-327.66
	1047	209.6	-2.59794E-001	-7.24241E-008	0.00000E+000	-2.60000E-001	9.57292E-004	5	..........a	-327.66
	1048	209.8	-2.69844E-001	-7.40696E-008	0.00000E+000	-2.70000E-001	9.58192E-004	5	..........a	-327.66
	1049	210	-2.79859E-001	-7.56927E-008	0.00000E+000	-2.80000E-001	9.62292E-004	5	..........a	-327.66
	1050	210.2	-2.89853E-001	-7.73958E-008	0.00000E+000	-2.90000E-001	9.63392E-004	5	..........a	-327.66
	1051	210.4	-2.99831E-001	-7.89228E-008	0.00000E+000	-3.00000E-001	9.39692E-004	5	..........a	-327.66
	1052	210.6	-3.09862E-001	-8.04818E-008	0.00000E+000	-3.10000E-001	9.55292E-004	5	..........a	-327.66
	1053	210.8	-3.19838E-001	-8.21065E-008	0.00000E+000	-3.20000E-001	9.51292E-004	5	..........a	-327.66
	1054	211	-3.29869E-001	-8.36796E-008	0.00000E+000	-3.30000E-001	9.62092E-004	5	..........a	-327.66
	1055	211.2	-3.39790E-001	-8.51731E-008	0.00000E+000	-3.40000E-001	9.44092E-004	5	..........a	-327.66
	1056	211.4	-3.49839E-001	-8.68197E-008	0.00000E+000	-3.50000E-001	9.50792E-004	5	..........a	-327.66
	1057	211.6	-3.59848E-001	-8.81239E-008	0.00000E+000	-3.60000E-001	9.57392E-004	5	..........a	-327.66
	1058	211.8	-3.69829E-001	-8.94306E-008	0.00000E+000	-3.70000E-001	9.46692E-004	5	..........a	-327.66
	1059	212	-3.79807E-001	-9.09192E-008	0.00000E+000	-3.80000E-001	9.67292E-004	5	..........a	-327.66
	1060	212.2	-3.89855E-001	-9.22530E-008	0.00000E+000	-3.90000E-001	9.54792E-004	5	..........a	-327.66
	1061	212.4	-3.99835E-001	-9.37455E-008	0.00000E+000	-4.00000E-001	9.45392E-004	5	..........a	-327.66
	1062	212.6	-4.09837E-001	-9.51977E-008	0.00000E+000	-4.10000E-001	9.48292E-004	5	..........a	-327.66
	1063	212.8	-4.19771E-001	-9.69168E-008	0.00000E+000	-4.20000E-001	9.48392E-004	5	..........a	-327.66
	1064	213	-4.29825E-001	-9.82784E-008	0.00000E+000	-4.30000E-001	9.47892E-004	5	..........a	-327.66
	1065	213.2	-4.39817E-001	-1.00044E-007	0.00000E+000	-4.40000E-001	9.67492E-004	5	..........a	-327.66
	1066	213.4	-4.49826E-001	-1.01512E-007	0.00000E+000	-4.50000E-001	9.61792E-004	5	..........a	-327.66
	1067	213.6	-4.59784E-001	-1.03204E-007	0.00000E+000	-4.60000E-001	9.70192E-004	5	..........a	-327.66
	1068	213.8	-4.69814E-001	-1.04772E-007	0.00000E+000	-4.70000E-001	9.51492E-004	5	..........a	-327.66
	1069	214	-4.79811E-001	-1.06469E-007	0.00000E+000	-4.80000E-001	9.62092E-004	5	..........a	-327.66
	1070	214.2	-4.89813E-001	-1.08048E-007	0.00000E+000	-4.90000E-001	9.57392E-004	5	..........a	-327.66
	1071	214.4	-4.99798E-001	-1.09667E-007	0.00000E+000	-5.00000E-001	9.39292E-004	5	..........a	-327.66
	1072	214.6	-5.09821E-001	-1.11452E-007	0.00000E+000	-5.10000E-001	9.49892E-004	5	..........a	-327.66
	1073	214.8	-5.19816E-001	-1.13369E-007	0.00000E+000	-5.20000E-001	9.60892E-004	5	..........a	-327.66
	1074	215	-5.29820E-001	-1.14795E-007	0.00000E+000	-5.30000E-001	9.53392E-004	5	..........a	-327.66
	1075	215.2	-5.39747E-001	-1.16645E-007	0.00000E+000	-5.40000E-001	9.38592E-004	5	..........a	-327.66
	1076	215.4	-5.49831E-001	-1.18449E-007	0.00000E+000	-5.50000E-001	9.43192E-004	5	..........a	-327.66
	1077	215.6	-5.59844E-001	-1.20317E-007	0.00000E+000	-5.60000E-001	9.50192E-004	5	..........a	-327.66
	1078	215.8	-5.69816E-001	-1.22181E-007	0.00000E+000	-5.70000E-001	9.63892E-004	5	..........a	-327.66
	1079	216	-5.79782E-001	-1.24069E-007	0.00000E+000	-5.80000E-001	9.45992E-004	5	..........a	-327.66
	1080	216.2	-5.89819E-001	-1.25911E-007	0.00000E+000	-5.90000E-001	9.66992E-004	5	..........a	-327.66
	1081	216.4	-5.99771E-001	-1.27842E-007	0.00000E+000	-6.00000E-001	9.48392E-004	5	..........a	-327.66
CURVE5	TABLE
	Pt	T	Vf	Im	Vu	Sig	Ach	IERange	Over	Temp
	#	s	V vs. Ref.	A	V	V	V	#	bits	deg C
	1082	216.6	-5.89838E-001	-1.02366E-007	0.00000E+000	-5.90000E-001	9.59992E-004	5	..........a	-327.66
	1083	216.8	-5.79803E-001	-8.72823E-008	0.00000E+000	-5.80000E-001	9.60192E-004	5	..........a	-327.66
	1084	217	-5.69841E-001	-7.59994E-008	0.00000E+000	-5.70000E-001	9.50592E-004	5	..........a	-327.66
	1085	217.2	-5.59841E-001	-6.70941E-008	0.00000E+000	-5.60000E-001	9.45792E-004	5	..........a	-327.66
	1086	217.4	-5.49838E-001	-5.96323E-008	0.00000E+000	-5.50000E-001	9.54092E-004	5	..........a	-327.66
	1087	217.6	-5.39793E-001	-5.33027E-008	0.00000E+000	-5.40000E-001	9.43392E-004	5	..........a	-327.66
	1088	217.8	-5.29846E-001	-4.76998E-008	0.00000E+000	-5.30000E-001	9.53792E-004	5	..........a	-327.66
	1089	218	-5.19875E-001	-4.27803E-008	0.00000E+000	-5.20000E-001	9.49892E-004	5	..........a	-327.66
	1090	218.2	-5.09866E-001	-3.83301E-008	0.00000E+000	-5.10000E-001	9.57292E-004	5	..........a	-327.66
	1091	218.4	-4.99828E-001	-3.43691E-008	0.00000E+000	-5.00000E-001	9.53192E-004	5	..........a	-327.66
	1092	218.6	-4.89846E-001	-3.09040E-008	0.00000E+000	-4.90000E-001	9.56992E-004	5	..........a	-327.66
	1093	218.8	-4.79865E-001	-2.74456E-008	0.00000E+000	-4.80000E-001	9.69392E-004	5	..........a	-327.66
	1094	219	-4.69845E-001	-2.43626E-008	0.00000E+000	-4.70000E-001	9.55692E-004	5	..........a	-327.66
	1095	219.2	-4.59831E-001	-2.15286E-008	0.00000E+000	-4.60000E-001	9.56192E-004	5	..........a	-327.66
	1096	219.4	-4.49851E-001	-1.87973E-008	0.00000E+000	-4.50000E-001	9.52992E-004	5	..........a	-327.66
	1097	219.6	-4.39846E-001	-1.62896E-008	0.00000E+000	-4.40000E-001	9.57592E-004	5	..........a	-327.66
	1098	219.8	-4.29857E-001	-1.38970E-008	0.00000E+000	-4.30000E-001	9.70992E-004	5	..........a	-327.66
	1099	220	-4.19834E-001	-1.15846E-008	0.00000E+000	-4.20000E-001	9.50992E-004	5	..........a	-327.66
	1100	220.2	-4.09860E-001	-9.42984E-009	0.00000E+000	-4.10000E-001	9.61492E-004	5	..........a	-327.66
	1101	220.4	-3.99882E-001	-7.24136E-009	0.00000E+000	-4.00000E-001	9.63592E-004	5	..........a	-327.66
	1102	220.6	-3.89884E-001	-5.27763E-009	0.00000E+000	-3.90000E-001	9.55392E-004	5	..........a	-327.66
	1103	220.8	-3.79847E-001	-3.30155E-009	0.00000E+000	-3.80000E-001	9.36592E-004	5	..........a	-327.66
	1104	221	-3.69887E-001	-1.41835E-009	0.00000E+000	-3.70000E-001	9.72692E-004	5	..........a	-327.66
	1105	221.2	-3.59945E-001	-1.41869E-010	0.00000E+000	-3.60000E-001	9.50492E-004	5	..........a	-327.66
	1106	221.4	-3.49904E-001	2.12379E-009	0.00000E+000	-3.50000E-001	9.59692E-004	5	..........a	-327.66
	1107	221.6	-3.39848E-001	3.91143E-009	0.00000E+000	-3.40000E-001	9.57992E-004	5	..........a	-327.66
	1108	221.8	-3.29915E-001	5.58880E-009	0.00000E+000	-3.30000E-001	9.63092E-004	5	..........a	-327.66
	1109	222	-3.19898E-001	7.22419E-009	0.00000E+000	-3.20000E-001	9.55392E-004	5	..........a	-327.66
	1110	222.2	-3.09927E-001	8.83474E-009	0.00000E+000	-3.10000E-001	9.55892E-004	5	..........a	-327.66
	1111	222.4	-2.99863E-001	1.04066E-008	0.00000E+000	-3.00000E-001	9.34792E-004	5	..........a	-327.66
	1112	222.6	-2.89900E-001	1.19324E-008	0.00000E+000	-2.90000E-001	9.53992E-004	5	..........a	-327.66
	1113	222.8	-2.79963E-001	1.33640E-008	0.00000E+000	-2.80000E-001	9.61592E-004	5	..........a	-327.66
	1114	223	-2.69882E-001	1.49169E-008	0.00000E+000	-2.70000E-001	9.49492E-004	5	..........a	-327.66
	1115	223.2	-2.59851E-001	1.64192E-008	0.00000E+000	-2.60000E-001	9.61192E-004	5	..........a	-327.66
	1116	223.4	-2.49902E-001	1.79238E-008	0.00000E+000	-2.50000E-001	9.56692E-004	5	..........a	-327.66
	1117	223.6	-2.39919E-001	1.93584E-008	0.00000E+000	-2.40000E-001	9.50792E-004	5	..........a	-327.66
	1118	223.8	-2.29955E-001	2.07647E-008	0.00000E+000	-2.30000E-001	9.70892E-004	5	..........a	-327.66
	1119	224	-2.19888E-001	2.22372E-008	0.00000E+000	-2.20000E-001	9.41692E-004	5	..........a	-327.66
	1120	224.2	-2.09930E-001	2.36485E-008	0.00000E+000	-2.10000E-001	9.56492E-004	5	..........a	-327.66