File: example_project/raw_outputs/20240321_ZF_GM0016_HL03_E08_CV50k.DTA
EXPLAIN
TAG	CV
TITLE	LABEL	Cyclic Voltammetry	Test &Identifier
DATE	LABEL	3/21/2024	Date
TIME	LABEL	18:19:28	Time
NOTES	NOTES	1	&Notes...

PSTAT	PSTAT	REF600P-43058	Potentiostat
VINIT	POTEN	0.00000E+000	T	Initial &E (V)
VLIMIT1	POTEN	-6.00000E-001	F	Scan Limit &1 (V)
VLIMIT2	POTEN	8.00000E-001	F	Scan Limit &2 (V)
VFINAL	POTEN	0.00000E+000	T	Final &E (V)
SCANRATE	QUANT	4.99999E+004	&Scan Rate (mV/s)
STEPSIZE	QUANT	1.00000E+001	St&ep Size (mV)
CYCLES	IQUANT	10	C&ycles (#)
IMODE	SELECTOR	1	I/E Range &Mode
IRANGE	QUANT	1.00000E-005	&Max Current (mA)
AREA	QUANT	1.00000E+000	Electrode &Area (cm^2)
ELECTRODETYPE	SELECTOR	0	Electrode Type
STRIPPING	TOGGLE	F	Used for Stripping
POLARITY	TOGGLE	F	Signal Polarity
CONDIT	TWOPARAM	F	1.50000E+001	0.00000E+000	Conditionin&g	Time(s)	E(V)
DELAY	TWOPARAM	T	1.00000E+001	0.00000E+000	Init. De&lay	Time(s)	Stab.(mV/s)
EQDELAY	QUANT	1.00000E+001	Equil. &Time (s)
IRCOMP	SELECTOR	0	IRCom&p
PFCOR	QUANT	5.00000E+001	PF Corr. (ohm)
SAMPLINGMODE	SELECTOR	1	Sampling &Mode
OCVCURVE	TABLE	39
	Pt	T	Vf	Vm	Ach	Over	Temp
	#	s	V vs. Ref.	V	V	bits	deg C
	0	0.258333	4.45342E-001	4.45342E-001	2.45356E-004	..........a	-327.66
	1	0.516667	4.45349E-001	4.45692E-001	2.49089E-004	..........a	-327.66
	2	0.775	4.45390E-001	4.46012E-001	2.48556E-004	..........a	-327.66
	3	1.03333	4.45506E-001	4.46371E-001	2.42022E-004	..........a	-327.66
	4	1.29167	4.45715E-001	4.46710E-001	2.44889E-004	..........a	-327.66
	5	1.55	4.46003E-001	4.47107E-001	2.50889E-004	..........a	-327.66
	6	1.80833	4.46337E-001	4.47438E-001	2.42556E-004	..........a	-327.66
	7	2.06667	4.46693E-001	4.47788E-001	2.41422E-004	..........a	-327.66
	8	2.325	4.47053E-001	4.48115E-001	2.59156E-004	..........a	-327.66
	9	2.58333	4.47411E-001	4.48642E-001	2.55356E-004	..........a	-327.66
	10	2.84167	4.47772E-001	4.48815E-001	2.56022E-004	..........a	-327.66
	11	3.1	4.48135E-001	4.49086E-001	2.47422E-004	..........a	-327.66
	12	3.35833	4.48481E-001	4.49369E-001	2.36422E-004	..........a	-327.66
	13	3.61667	4.48788E-001	4.49415E-001	2.41756E-004	..........a	-327.66
	14	3.875	4.49051E-001	4.49702E-001	2.38622E-004	..........a	-327.66
	15	4.13333	4.49287E-001	4.50538E-001	2.46756E-004	..........a	-327.66
	16	4.39167	4.49553E-001	4.50765E-001	2.52356E-004	..........a	-327.66
	17	4.65	4.49900E-001	4.51181E-001	2.56822E-004	..........a	-327.66
	18	4.90833	4.50309E-001	4.51472E-001	2.50156E-004	..........a	-327.66
	19	5.16667	4.50725E-001	4.51980E-001	2.51956E-004	..........a	-327.66
	20	5.425	4.51119E-001	4.52107E-001	2.58489E-004	..........a	-327.66
	21	5.68333	4.51487E-001	4.52402E-001	2.38089E-004	..........a	-327.66
	22	5.94167	4.51822E-001	4.52816E-001	2.54222E-004	..........a	-327.66
	23	6.2	4.52132E-001	4.53092E-001	2.52222E-004	..........a	-327.66
	24	6.45833	4.52442E-001	4.53595E-001	2.56622E-004	..........a	-327.66
	25	6.71667	4.52772E-001	4.53757E-001	2.54556E-004	..........a	-327.66
	26	6.975	4.53114E-001	4.54054E-001	2.50156E-004	..........a	-327.66
	27	7.23333	4.53447E-001	4.54423E-001	2.58089E-004	..........a	-327.66
	28	7.49167	4.53763E-001	4.54748E-001	2.52756E-004	..........a	-327.66
	29	7.75	4.54077E-001	4.55213E-001	2.60756E-004	..........a	-327.66
	30	8.00833	4.54406E-001	4.55377E-001	2.42689E-004	..........a	-327.66
	31	8.26667	4.54746E-001	4.55683E-001	2.44422E-004	..........a	-327.66
	32	8.525	4.55075E-001	4.56021E-001	2.62289E-004	..........a	-327.66
	33	8.78333	4.55385E-001	4.56342E-001	2.47089E-004	..........a	-327.66
	34	9.04167	4.55692E-001	4.56795E-001	2.66356E-004	..........a	-327.66
	35	9.3	4.56011E-001	4.56944E-001	2.61689E-004	..........a	-327.66
	36	9.5583	4.56340E-001	4.57255E-001	2.48356E-004	..........a	-327.66
	37	9.8167	4.56659E-001	4.57612E-001	2.60022E-004	..........a	-327.66
	38	10.075	4.56963E-001	4.57914E-001	2.45089E-004	..........a	-327.66
EOC	QUANT	0.4569635	Open Circuit (V)
PSTATMODEL	IQUANT	7	Pstat Model
PSTATSECTION	LABEL	REF600P-43058	Pstat Section
PSTATSERIALNO	LABEL	43058	Pstat Serial Number
CTRLMODE	IQUANT	1	Control Mode
ELECTROMETER	IQUANT	0	RE=0 or CS=1
IESTAB	IQUANT	2	I/E Stability
CASPEED	IQUANT	4	Control Amp Speed
CONVENTION	IQUANT	1	Current Convention
ICHRANGE	IQUANT	2	Ich Range
ICHRANGEMODE	TOGGLE	F	Ich Auto Range
ICHOFFSETENABLE	TOGGLE	F	Ich Offset Enable
ICHOFFSET	QUANT	0	Ich Offset (V)
ICHFILTER	IQUANT	1	Ich Filter
VCHRANGE	IQUANT	2	Vch Range
VCHRANGEMODE	TOGGLE	F	Vch Auto Range
VCHOFFSETENABLE	TOGGLE	F	Vch Offset Enable
VCHOFFSET	QUANT	0	Vch Offset (V)
VCHFILTER	IQUANT	1	Vch Filter
ACHRANGE	IQUANT	2	Ach Range
ACHOFFSETENABLE	TOGGLE	F	Ach Offset Enable
ACHOFFSET	QUANT	0	Ach Offset (V)
ACHFILTER	IQUANT	1	Ach Filter
IERANGELOWERLIMIT	IQUANT	1	I/E Range Lower Limit
IERANGEMODE	TOGGLE	F	I/E AutoRange
IERANGE	IQUANT	4	I/E Range
POSFEEDENABLE	TOGGLE	F	Positive Feedback IR Comp
POSFEEDRESISTANCE	QUANT	0	Positive Feedback Resistance (ohm)
ACHSELECT	IQUANT	4	Ach Select
SENSECABLEID	IQUANT	7	Sense Cable ID
PWRCABLEID	IQUANT	7	Power Cable ID
DCCALDATE	LABEL	12/18/2023	DC Calibration Date
ACCALDATE	LABEL	12/18/2023	AC Calibration Date
THERMOSELECT	IQUANT	1	Thermo Select
FRAMEWORKVERSION	LABEL	7.8.4	Framework Version
INSTRUMENTVERSION	LABEL	4.42	Instrument Version
CURVE1	TABLE
	Pt	T	Vf	Im	Vu	Sig	Ach	IERange	Over	Temp
	#	s	V vs. Ref.	A	V	V	V	#	bits	deg C
	0	0.0002	4.57070E-001	1.97884E-011	0.00000E+000	4.56950E-001	8.00223E-005	4	..........a	-327.66
	1	0.0004	4.46770E-001	-1.52130E-011	0.00000E+000	4.46950E-001	8.00223E-005	4	..........a	-327.66
	2	0.0006	4.36870E-001	-5.32144E-011	0.00000E+000	4.36950E-001	8.00223E-005	4	..........a	-327.66
	3	0.0008	4.27170E-001	-9.42160E-011	0.00000E+000	4.26950E-001	8.00223E-005	4	..........a	-327.66
	4	0.001	4.17070E-001	-1.34218E-010	0.00000E+000	4.16950E-001	8.00223E-005	4	..........a	-327.66
	5	0.0012	4.07070E-001	-1.77219E-010	0.00000E+000	4.06950E-001	8.00223E-005	4	..........a	-327.66
	6	0.0014	3.97070E-001	-2.19221E-010	0.00000E+000	3.96950E-001	8.00223E-005	4	..........a	-327.66
	7	0.0016	3.87070E-001	-2.61222E-010	0.00000E+000	3.86950E-001	8.00223E-005	4	..........a	-327.66
	8	0.0018	3.76970E-001	-3.10224E-010	0.00000E+000	3.76950E-001	8.00223E-005	4	..........a	-327.66
	9	0.002	3.66870E-001	-3.52226E-010	0.00000E+000	3.66950E-001	8.00223E-005	4	..........a	-327.66
	10	0.0022	3.56970E-001	-4.05228E-010	0.00000E+000	3.56950E-001	8.00223E-005	4	..........a	-327.66
	11	0.0024	3.46870E-001	-4.60230E-010	0.00000E+000	3.46950E-001	8.00223E-005	4	..........a	-327.66
	12	0.0026	3.37070E-001	-5.14232E-010	0.00000E+000	3.36950E-001	8.00223E-005	4	..........a	-327.66
	13	0.0028	3.27070E-001	-5.58234E-010	0.00000E+000	3.26950E-001	8.00223E-005	4	..........a	-327.66
	14	0.003	3.16970E-001	-6.19236E-010	0.00000E+000	3.16950E-001	8.00223E-005	4	..........a	-327.66
	15	0.0032	3.06870E-001	-6.72238E-010	0.00000E+000	3.06950E-001	8.00223E-005	4	..........a	-327.66
	16	0.0034	2.96920E-001	-7.29240E-010	0.00000E+000	2.96950E-001	8.00223E-005	4	..........a	-327.66
	17	0.0036	2.86970E-001	-7.84242E-010	0.00000E+000	2.86950E-001	8.00223E-005	4	..........a	-327.66
	18	0.0038	2.76970E-001	-8.46245E-010	0.00000E+000	2.76950E-001	8.00223E-005	4	..........a	-327.66
	19	0.004	2.66870E-001	-9.10247E-010	0.00000E+000	2.66950E-001	8.00223E-005	4	..........a	-327.66
	20	0.0042	2.56970E-001	-9.78250E-010	0.00000E+000	2.56950E-001	8.00223E-005	4	..........a	-327.66
	21	0.0044	2.46870E-001	-1.03725E-009	0.00000E+000	2.46950E-001	8.00223E-005	4	..........a	-327.66
	22	0.0046	2.36770E-001	-1.10725E-009	0.00000E+000	2.36950E-001	8.00223E-005	4	..........a	-327.66
	23	0.0048	2.26970E-001	-1.17526E-009	0.00000E+000	2.26950E-001	8.00223E-005	4	..........a	-327.66
	24	0.005	2.17070E-001	-1.24626E-009	0.00000E+000	2.16950E-001	8.00223E-005	4	..........a	-327.66
	25	0.0052	2.06970E-001	-1.32226E-009	0.00000E+000	2.06950E-001	8.00223E-005	4	..........a	-327.66
	26	0.0054	1.97070E-001	-1.39727E-009	0.00000E+000	1.96950E-001	8.00223E-005	4	..........a	-327.66
	27	0.0056	1.86970E-001	-1.47827E-009	0.00000E+000	1.86950E-001	8.00223E-005	4	..........a	-327.66
	28	0.0058	1.77070E-001	-1.55727E-009	0.00000E+000	1.76950E-001	8.00223E-005	4	..........a	-327.66
	29	0.006	1.67070E-001	-1.63828E-009	0.00000E+000	1.66950E-001	8.00223E-005	4	..........a	-327.66
	30	0.0062	1.57070E-001	-1.72228E-009	0.00000E+000	1.56950E-001	8.00223E-005	4	..........a	-327.66
	31	0.0064	1.46970E-001	-1.80928E-009	0.00000E+000	1.46950E-001	8.00223E-005	4	..........a	-327.66
	32	0.0066	1.37170E-001	-1.88828E-009	0.00000E+000	1.36950E-001	1.80022E-004	4	..........a	-327.66
	33	0.0068	1.27070E-001	-1.99929E-009	0.00000E+000	1.26950E-001	8.00223E-005	4	..........a	-327.66
	34	0.007	1.17070E-001	-2.09429E-009	0.00000E+000	1.16950E-001	-2.19978E-004	4	..........a	-327.66
	35	0.0072	1.06970E-001	-2.19430E-009	0.00000E+000	1.06950E-001	8.00223E-005	4	..........a	-327.66
	36	0.0074	9.70695E-002	-2.29130E-009	0.00000E+000	9.69500E-002	8.00223E-005	4	..........a	-327.66
	37	0.0076	8.69695E-002	-2.39930E-009	0.00000E+000	8.69500E-002	8.00223E-005	4	..........a	-327.66
	38	0.0078	7.69695E-002	-2.51431E-009	0.00000E+000	7.69500E-002	8.00223E-005	4	..........a	-327.66
	39	0.008	6.69695E-002	-2.62831E-009	0.00000E+000	6.69500E-002	8.00223E-005	4	..........a	-327.66
	40	0.0082	5.70695E-002	-2.73632E-009	0.00000E+000	5.69500E-002	8.00223E-005	4	..........a	-327.66
	41	0.0084	4.70695E-002	-2.85432E-009	0.00000E+000	4.69500E-002	8.00223E-005	4	..........a	-327.66
	42	0.0086	3.70695E-002	-2.98033E-009	0.00000E+000	3.69500E-002	8.00223E-005	4	..........a	-327.66
	43	0.0088	2.68695E-002	-3.10633E-009	0.00000E+000	2.69500E-002	8.00223E-005	4	..........a	-327.66
	44	0.009	1.70695E-002	-3.22834E-009	0.00000E+000	1.69500E-002	8.00223E-005	4	..........a	-327.66
	45	0.0092	6.96952E-003	-3.36334E-009	0.00000E+000	6.95001E-003	8.00223E-005	4	..........a	-327.66
	46	0.0094	-3.03048E-003	-3.49535E-009	0.00000E+000	-3.05000E-003	8.00223E-005	4	..........a	-327.66
	47	0.0096	-1.29805E-002	-3.62435E-009	0.00000E+000	-1.30500E-002	8.00223E-005	4	..........a	-327.66
	48	0.0098	-2.31305E-002	-3.76436E-009	0.00000E+000	-2.30500E-002	8.00223E-005	4	..........a	-327.66
	49	0.01	-3.31305E-002	-3.90636E-009	0.00000E+000	-3.30500E-002	8.00223E-005	4	..........a	-327.66
	50	0.0102	-4.29305E-002	-4.04737E-009	0.00000E+000	-4.30500E-002	8.00223E-005	4	..........a	-327.66
	51	0.0104	-5.31305E-002	-4.18837E-009	0.00000E+000	-5.30500E-002	8.00223E-005	4	..........a	-327.66
	52	0.0106	-6.28305E-002	-4.34238E-009	0.00000E+000	-6.30500E-002	8.00223E-005	4	..........a	-327.66
	53	0.0108	-7.31305E-002	-4.49038E-009	0.00000E+000	-7.30500E-002	8.00223E-005	4	..........a	-327.66
	54	0.011	-8.30305E-002	-4.64439E-009	0.00000E+000	-8.30500E-002	-4.19978E-004	4	..........a	-327.66
	55	0.0112	-9.31305E-002	-4.79240E-009	0.00000E+000	-9.30500E-002	8.00223E-005	4	..........a	-327.66
	56	0.0114	-1.02930E-001	-4.94640E-009	0.00000E+000	-1.03050E-001	8.00223E-005	4	..........a	-327.66
	57	0.0116	-1.13130E-001	-5.10241E-009	0.00000E+000	-1.13050E-001	8.00223E-005	4	..........a	-327.66
	58	0.0118	-1.23130E-001	-5.26041E-009	0.00000E+000	-1.23050E-001	8.00223E-005	4	..........a	-327.66
	59	0.012	-1.33130E-001	-5.41542E-009	0.00000E+000	-1.33050E-001	8.00223E-005	4	..........a	-327.66
	60	0.0122	-1.42930E-001	-5.57243E-009	0.00000E+000	-1.43050E-001	8.00223E-005	4	..........a	-327.66
	61	0.0124	-1.53030E-001	-5.73043E-009	0.00000E+000	-1.53050E-001	8.00223E-005	4	..........a	-327.66
	62	0.0126	-1.63080E-001	-5.89044E-009	0.00000E+000	-1.63050E-001	8.00223E-005	4	..........a	-327.66
	63	0.0128	-1.73030E-001	-6.05244E-009	0.00000E+000	-1.73050E-001	8.00223E-005	4	..........a	-327.66
	64	0.013	-1.82930E-001	-6.20645E-009	0.00000E+000	-1.83050E-001	8.00223E-005	4	..........a	-327.66
	65	0.0132	-1.93030E-001	-6.36646E-009	0.00000E+000	-1.93050E-001	8.00223E-005	4	..........a	-327.66
	66	0.0134	-2.03030E-001	-6.53046E-009	0.00000E+000	-2.03050E-001	8.00223E-005	4	..........a	-327.66
	67	0.0136	-2.12830E-001	-6.68747E-009	0.00000E+000	-2.13050E-001	8.00223E-005	4	..........a	-327.66
	68	0.0138	-2.23030E-001	-6.85048E-009	0.00000E+000	-2.23050E-001	8.00223E-005	4	..........a	-327.66
	69	0.014	-2.32930E-001	-7.00748E-009	0.00000E+000	-2.33050E-001	8.00223E-005	4	..........a	-327.66
	70	0.0142	-2.42930E-001	-7.17049E-009	0.00000E+000	-2.43050E-001	8.00223E-005	4	..........a	-327.66
	71	0.0144	-2.53030E-001	-7.33049E-009	0.00000E+000	-2.53050E-001	8.00223E-005	4	..........a	-327.66
	72	0.0146	-2.62830E-001	-7.48650E-009	0.00000E+000	-2.63050E-001	8.00223E-005	4	..........a	-327.66
	73	0.0148	-2.73030E-001	-7.64351E-009	0.00000E+000	-2.73050E-001	8.00223E-005	4	..........a	-327.66
	74	0.015	-2.83030E-001	-7.80951E-009	0.00000E+000	-2.83050E-001	-3.19978E-004	4	..........a	-327.66
	75	0.0152	-2.92880E-001	-7.96752E-009	0.00000E+000	-2.93050E-001	8.00223E-005	4	..........a	-327.66
	76	0.0154	-3.02930E-001	-8.12452E-009	0.00000E+000	-3.03050E-001	8.00223E-005	4	..........a	-327.66
	77	0.0156	-3.12930E-001	-8.28253E-009	0.00000E+000	-3.13050E-001	8.00223E-005	4	..........a	-327.66
	78	0.0158	-3.23030E-001	-8.44754E-009	0.00000E+000	-3.23050E-001	8.00223E-005	4	..........a	-327.66
	79	0.016	-3.33030E-001	-8.60254E-009	0.00000E+000	-3.33050E-001	8.00223E-005	4	..........a	-327.66
	80	0.0162	-3.42730E-001	-8.75555E-009	0.00000E+000	-3.43050E-001	8.00223E-005	4	..........a	-327.66
	81	0.0164	-3.52830E-001	-8.91755E-009	0.00000E+000	-3.53050E-001	8.00223E-005	4	..........a	-327.66
	82	0.0166	-3.62830E-001	-9.06756E-009	0.00000E+000	-3.63050E-001	8.00223E-005	4	..........a	-327.66
	83	0.0168	-3.72930E-001	-9.22657E-009	0.00000E+000	-3.73050E-001	8.00223E-005	4	..........a	-327.66
	84	0.017	-3.82930E-001	-9.38357E-009	0.00000E+000	-3.83050E-001	8.00223E-005	4	..........a	-327.66
	85	0.0172	-3.92930E-001	-9.54158E-009	0.00000E+000	-3.93050E-001	8.00223E-005	4	..........a	-327.66
	86	0.0174	-4.02730E-001	-9.69558E-009	0.00000E+000	-4.03050E-001	8.00223E-005	4	..........a	-327.66
	87	0.0176	-4.13030E-001	-9.84559E-009	0.00000E+000	-4.13050E-001	8.00223E-005	4	..........a	-327.66
	88	0.0178	-4.22830E-001	-9.99960E-009	0.00000E+000	-4.23050E-001	8.00223E-005	4	..........a	-327.66
	89	0.018	-4.32930E-001	-1.01576E-008	0.00000E+000	-4.33050E-001	8.00223E-005	4	..........a	-327.66
	90	0.0182	-4.42930E-001	-1.03086E-008	0.00000E+000	-4.43050E-001	8.00223E-005	4	..........a	-327.66
	91	0.0184	-4.53030E-001	-1.04626E-008	0.00000E+000	-4.53050E-001	8.00223E-005	4	..........a	-327.66
	92	0.0186	-4.62730E-001	-1.06176E-008	0.00000E+000	-4.63050E-001	-3.19978E-004	4	..........a	-327.66
	93	0.0188	-4.72930E-001	-1.07746E-008	0.00000E+000	-4.73050E-001	8.00223E-005	4	..........a	-327.66
	94	0.019	-4.82930E-001	-1.09246E-008	0.00000E+000	-4.83050E-001	8.00223E-005	4	..........a	-327.66
	95	0.0192	-4.93130E-001	-1.10806E-008	0.00000E+000	-4.93050E-001	8.00223E-005	4	..........a	-327.66
	96	0.0194	-5.02930E-001	-1.12306E-008	0.00000E+000	-5.03050E-001	8.00223E-005	4	..........a	-327.66
	97	0.0196	-5.13030E-001	-1.13917E-008	0.00000E+000	-5.13050E-001	8.00223E-005	4	..........a	-327.66
	98	0.0198	-5.22931E-001	-1.15497E-008	0.00000E+000	-5.23050E-001	-2.19978E-004	4	..........a	-327.66
	99	0.02	-5.33031E-001	-1.17077E-008	0.00000E+000	-5.33050E-001	8.00223E-005	4	..........a	-327.66
	100	0.0202	-5.42830E-001	-1.18677E-008	0.00000E+000	-5.43050E-001	8.00223E-005	4	..........a	-327.66
	101	0.0204	-5.52830E-001	-1.20277E-008	0.00000E+000	-5.53050E-001	8.00223E-005	4	..........a	-327.66
	102	0.0206	-5.62831E-001	-1.21897E-008	0.00000E+000	-5.63050E-001	8.00223E-005	4	..........a	-327.66
	103	0.0208	-5.72730E-001	-1.23567E-008	0.00000E+000	-5.73050E-001	8.00223E-005	4	..........a	-327.66
	104	0.021	-5.82830E-001	-1.25227E-008	0.00000E+000	-5.83050E-001	8.00223E-005	4	..........a	-327.66
	105	0.0212	-5.92730E-001	-1.26917E-008	0.00000E+000	-5.93050E-001	8.00223E-005	4	..........a	-327.66
	106	0.0214	-6.02930E-001	-1.28607E-008	0.00000E+000	-6.03050E-001	8.00223E-005	4	..........a	-327.66
	107	0.0216	-5.92830E-001	-1.29127E-008	0.00000E+000	-5.93050E-001	8.00223E-005	4	..........a	-327.66
	108	0.0218	-5.82830E-001	-1.29397E-008	0.00000E+000	-5.83050E-001	8.00223E-005	4	..........a	-327.66
	109	0.022	-5.72830E-001	-1.29517E-008	0.00000E+000	-5.73050E-001	8.00223E-005	4	..........a	-327.66
	110	0.0222	-5.62831E-001	-1.29527E-008	0.00000E+000	-5.63050E-001	8.00223E-005	4	..........a	-327.66
	111	0.0224	-5.52630E-001	-1.29397E-008	0.00000E+000	-5.53050E-001	8.00223E-005	4	..........a	-327.66
	112	0.0226	-5.42930E-001	-1.29227E-008	0.00000E+000	-5.43050E-001	8.00223E-005	4	..........a	-327.66
	113	0.0228	-5.32930E-001	-1.28967E-008	0.00000E+000	-5.33050E-001	8.00223E-005	4	..........a	-327.66
	114	0.023	-5.22730E-001	-1.28627E-008	0.00000E+000	-5.23050E-001	8.00223E-005	4	..........a	-327.66
	115	0.0232	-5.12931E-001	-1.28247E-008	0.00000E+000	-5.13050E-001	8.00223E-005	4	..........a	-327.66
	116	0.0234	-5.02831E-001	-1.27887E-008	0.00000E+000	-5.03050E-001	8.00223E-005	4	..........a	-327.66
	117	0.0236	-4.92730E-001	-1.27427E-008	0.00000E+000	-4.93050E-001	8.00223E-005	4	..........a	-327.66
	118	0.0238	-4.83030E-001	-1.26907E-008	0.00000E+000	-4.83050E-001	8.00223E-005	4	..........a	-327.66
	119	0.024	-4.72630E-001	-1.26387E-008	0.00000E+000	-4.73050E-001	8.00223E-005	4	..........a	-327.66
	120	0.0242	-4.62930E-001	-1.25847E-008	0.00000E+000	-4.63050E-001	8.00223E-005	4	..........a	-327.66
	121	0.0244	-4.52830E-001	-1.25287E-008	0.00000E+000	-4.53050E-001	8.00223E-005	4	..........a	-327.66
	122	0.0246	-4.42930E-001	-1.24677E-008	0.00000E+000	-4.43050E-001	8.00223E-005	4	..........a	-327.66
	123	0.0248	-4.32930E-001	-1.24067E-008	0.00000E+000	-4.33050E-001	8.00223E-005	4	..........a	-327.66
	124	0.025	-4.22730E-001	-1.23407E-008	0.00000E+000	-4.23050E-001	8.00223E-005	4	..........a	-327.66
	125	0.0252	-4.13030E-001	-1.22747E-008	0.00000E+000	-4.13050E-001	8.00223E-005	4	..........a	-327.66
	126	0.0254	-4.02930E-001	-1.22127E-008	0.00000E+000	-4.03050E-001	8.00223E-005	4	..........a	-327.66
	127	0.0256	-3.93030E-001	-1.21387E-008	0.00000E+000	-3.93050E-001	8.00223E-005	4	..........a	-327.66
	128	0.0258	-3.82830E-001	-1.20697E-008	0.00000E+000	-3.83050E-001	8.00223E-005	4	..........a	-327.66
	129	0.026	-3.72930E-001	-1.19997E-008	0.00000E+000	-3.73050E-001	8.00223E-005	4	..........a	-327.66
	130	0.0262	-3.62730E-001	-1.19267E-008	0.00000E+000	-3.63050E-001	8.00223E-005	4	..........a	-327.66
	131	0.0264	-3.52930E-001	-1.18497E-008	0.00000E+000	-3.53050E-001	8.00223E-005	4	..........a	-327.66
	132	0.0266	-3.42830E-001	-1.17747E-008	0.00000E+000	-3.43050E-001	8.00223E-005	4	..........a	-327.66
	133	0.0268	-3.32730E-001	-1.17027E-008	0.00000E+000	-3.33050E-001	8.00223E-005	4	..........a	-327.66
	134	0.027	-3.23030E-001	-1.16167E-008	0.00000E+000	-3.23050E-001	8.00223E-005	4	..........a	-327.66
	135	0.0272	-3.12830E-001	-1.15437E-008	0.00000E+000	-3.13050E-001	8.00223E-005	4	..........a	-327.66
	136	0.0274	-3.02830E-001	-1.14647E-008	0.00000E+000	-3.03050E-001	8.00223E-005	4	..........a	-327.66
	137	0.0276	-2.93030E-001	-1.13836E-008	0.00000E+000	-2.93050E-001	8.00223E-005	4	..........a	-327.66
	138	0.0278	-2.82930E-001	-1.13066E-008	0.00000E+000	-2.83050E-001	8.00223E-005	4	..........a	-327.66
	139	0.028	-2.72930E-001	-1.12206E-008	0.00000E+000	-2.73050E-001	8.00223E-005	4	..........a	-327.66
	140	0.0282	-2.62830E-001	-1.11426E-008	0.00000E+000	-2.63050E-001	8.00223E-005	4	..........a	-327.66
	141	0.0284	-2.52930E-001	-1.10606E-008	0.00000E+000	-2.53050E-001	-2.19978E-004	4	..........a	-327.66
	142	0.0286	-2.43030E-001	-1.09726E-008	0.00000E+000	-2.43050E-001	8.00223E-005	4	..........a	-327.66
	143	0.0288	-2.32930E-001	-1.08886E-008	0.00000E+000	-2.33050E-001	8.00223E-005	4	..........a	-327.66
	144	0.029	-2.22930E-001	-1.08076E-008	0.00000E+000	-2.23050E-001	8.00223E-005	4	..........a	-327.66
	145	0.0292	-2.13130E-001	-1.07186E-008	0.00000E+000	-2.13050E-001	8.00223E-005	4	..........a	-327.66
	146	0.0294	-2.03130E-001	-1.06316E-008	0.00000E+000	-2.03050E-001	8.00223E-005	4	..........a	-327.66
	147	0.0296	-1.93030E-001	-1.05436E-008	0.00000E+000	-1.93050E-001	8.00223E-005	4	..........a	-327.66
	148	0.0298	-1.82930E-001	-1.04616E-008	0.00000E+000	-1.83050E-001	8.00223E-005	4	..........a	-327.66
	149	0.03	-1.73030E-001	-1.03676E-008	0.00000E+000	-1.73050E-001	8.00223E-005	4	..........a	-327.66
	150	0.0302	-1.62730E-001	-1.02796E-008	0.00000E+000	-1.63050E-001	8.00223E-005	4	..........a	-327.66
	151	0.0304	-1.53030E-001	-1.01946E-008	0.00000E+000	-1.53050E-001	8.00223E-005	4	..........a	-327.66
	152	0.0306	-1.42930E-001	-1.01026E-008	0.00000E+000	-1.43050E-001	8.00223E-005	4	..........a	-327.66
	153	0.0308	-1.33130E-001	-1.00126E-008	0.00000E+000	-1.33050E-001	8.00223E-005	4	..........a	-327.66
	154	0.031	-1.22930E-001	-9.91859E-009	0.00000E+000	-1.23050E-001	8.00223E-005	4	..........a	-327.66
	155	0.0312	-1.13130E-001	-9.82659E-009	0.00000E+000	-1.13050E-001	8.00223E-005	4	..........a	-327.66
	156	0.0314	-1.02830E-001	-9.73459E-009	0.00000E+000	-1.03050E-001	8.00223E-005	4	..........a	-327.66
	157	0.0316	-9.30305E-002	-9.63958E-009	0.00000E+000	-9.30500E-002	8.00223E-005	4	..........a	-327.66
	158	0.0318	-8.28305E-002	-9.54658E-009	0.00000E+000	-8.30500E-002	8.00223E-005	4	..........a	-327.66
	159	0.032	-7.29305E-002	-9.45358E-009	0.00000E+000	-7.30500E-002	8.00223E-005	4	..........a	-327.66
	160	0.0322	-6.29305E-002	-9.36357E-009	0.00000E+000	-6.30500E-002	8.00223E-005	4	..........a	-327.66
	161	0.0324	-5.31305E-002	-9.26357E-009	0.00000E+000	-5.30500E-002	8.00223E-005	4	..........a	-327.66
	162	0.0326	-4.28305E-002	-9.17156E-009	0.00000E+000	-4.30500E-002	8.00223E-005	4	..........a	-327.66
	163	0.0328	-3.31305E-002	-9.07256E-009	0.00000E+000	-3.30500E-002	-3.19978E-004	4	..........a	-327.66
	164	0.033	-2.29305E-002	-8.98056E-009	0.00000E+000	-2.30500E-002	8.00223E-005	4	..........a	-327.66
	165	0.0332	-1.30305E-002	-8.87855E-009	0.00000E+000	-1.30500E-002	-2.19978E-004	4	..........a	-327.66
	166	0.0334	-2.93048E-003	-8.78255E-009	0.00000E+000	-3.05000E-003	8.00223E-005	4	..........a	-327.66
	167	0.0336	6.96952E-003	-8.68255E-009	0.00000E+000	6.95001E-003	8.00223E-005	4	..........a	-327.66
	168	0.0338	1.70695E-002	-8.58354E-009	0.00000E+000	1.69500E-002	8.00223E-005	4	..........a	-327.66
	169	0.034	2.69695E-002	-8.48754E-009	0.00000E+000	2.69500E-002	8.00223E-005	4	..........a	-327.66
	170	0.0342	3.69695E-002	-8.38753E-009	0.00000E+000	3.69500E-002	8.00223E-005	4	..........a	-327.66
	171	0.0344	4.70195E-002	-8.28853E-009	0.00000E+000	4.69500E-002	8.00223E-005	4	..........a	-327.66
	172	0.0346	5.70695E-002	-8.18653E-009	0.00000E+000	5.69500E-002	8.00223E-005	4	..........a	-327.66
	173	0.0348	6.69695E-002	-8.08352E-009	0.00000E+000	6.69500E-002	8.00223E-005	4	..........a	-327.66
	174	0.035	7.70695E-002	-7.98652E-009	0.00000E+000	7.69500E-002	8.00223E-005	4	..........a	-327.66
	175	0.0352	8.70695E-002	-7.88452E-009	0.00000E+000	8.69500E-002	8.00223E-005	4	..........a	-327.66
	176	0.0354	9.70695E-002	-7.77851E-009	0.00000E+000	9.69500E-002	8.00223E-005	4	..........a	-327.66
	177	0.0356	1.07270E-001	-7.67551E-009	0.00000E+000	1.06950E-001	8.00223E-005	4	..........a	-327.66
	178	0.0358	1.16870E-001	-7.57050E-009	0.00000E+000	1.16950E-001	8.00223E-005	4	..........a	-327.66
	179	0.036	1.27070E-001	-7.46850E-009	0.00000E+000	1.26950E-001	8.00223E-005	4	..........a	-327.66
	180	0.0362	1.37070E-001	-7.36550E-009	0.00000E+000	1.36950E-001	8.00223E-005	4	..........a	-327.66
	181	0.0364	1.47070E-001	-7.26149E-009	0.00000E+000	1.46950E-001	8.00223E-005	4	..........a	-327.66
	182	0.0366	1.57070E-001	-7.15049E-009	0.00000E+000	1.56950E-001	-3.19978E-004	4	..........a	-327.66
	183	0.0368	1.67270E-001	-7.04748E-009	0.00000E+000	1.66950E-001	8.00223E-005	4	..........a	-327.66
	184	0.037	1.77070E-001	-6.94848E-009	0.00000E+000	1.76950E-001	8.00223E-005	4	..........a	-327.66
	185	0.0372	1.86870E-001	-6.83147E-009	0.00000E+000	1.86950E-001	8.00223E-005	4	..........a	-327.66
	186	0.0374	1.97070E-001	-6.72447E-009	0.00000E+000	1.96950E-001	8.00223E-005	4	..........a	-327.66
	187	0.0376	2.06970E-001	-6.61247E-009	0.00000E+000	2.06950E-001	-3.19978E-004	4	..........a	-327.66
	188	0.0378	2.16870E-001	-6.49546E-009	0.00000E+000	2.16950E-001	8.00223E-005	4	..........a	-327.66
	189	0.038	2.26970E-001	-6.39346E-009	0.00000E+000	2.26950E-001	8.00223E-005	4	..........a	-327.66
	190	0.0382	2.36870E-001	-6.27745E-009	0.00000E+000	2.36950E-001	8.00223E-005	4	..........a	-327.66
	191	0.0384	2.46970E-001	-6.16745E-009	0.00000E+000	2.46950E-001	8.00223E-005	4	..........a	-327.66
	192	0.0386	2.56970E-001	-6.05444E-009	0.00000E+000	2.56950E-001	8.00223E-005	4	..........a	-327.66
	193	0.0388	2.66970E-001	-5.93544E-009	0.00000E+000	2.66950E-001	8.00223E-005	4	..........a	-327.66
	194	0.039	2.77170E-001	-5.82744E-009	0.00000E+000	2.76950E-001	8.00223E-005	4	..........a	-327.66
	195	0.0392	2.86870E-001	-5.70643E-009	0.00000E+000	2.86950E-001	8.00223E-005	4	..........a	-327.66
	196	0.0394	2.97070E-001	-5.58643E-009	0.00000E+000	2.96950E-001	8.00223E-005	4	..........a	-327.66
	197	0.0396	3.06870E-001	-5.47142E-009	0.00000E+000	3.06950E-001	8.00223E-005	4	..........a	-327.66
	198	0.0398	3.16770E-001	-5.35042E-009	0.00000E+000	3.16950E-001	8.00223E-005	4	..........a	-327.66
	199	0.04	3.26870E-001	-5.23141E-009	0.00000E+000	3.26950E-001	8.00223E-005	4	..........a	-327.66
	200	0.0402	3.37070E-001	-5.11641E-009	0.00000E+000	3.36950E-001	8.00223E-005	4	..........a	-327.66
	201	0.0404	3.46870E-001	-4.98940E-009	0.00000E+000	3.46950E-001	8.00223E-005	4	..........a	-327.66
	202	0.0406	3.57070E-001	-4.87240E-009	0.00000E+000	3.56950E-001	8.00223E-005	4	..........a	-327.66
	203	0.0408	3.66870E-001	-4.74739E-009	0.00000E+000	3.66950E-001	8.00223E-005	4	..........a	-327.66
	204	0.041	3.77070E-001	-4.62639E-009	0.00000E+000	3.76950E-001	8.00223E-005	4	..........a	-327.66
	205	0.0412	3.87070E-001	-4.50639E-009	0.00000E+000	3.86950E-001	8.00223E-005	4	..........a	-327.66
	206	0.0414	3.96970E-001	-4.38638E-009	0.00000E+000	3.96950E-001	8.00223E-005	4	..........a	-327.66
	207	0.0416	4.06970E-001	-4.25038E-009	0.00000E+000	4.06950E-001	8.00223E-005	4	..........a	-327.66
	208	0.0418	4.16970E-001	-4.12837E-009	0.00000E+000	4.16950E-001	8.00223E-005	4	..........a	-327.66
	209	0.042	4.26970E-001	-4.00237E-009	0.00000E+000	4.26950E-001	8.00223E-005	4	..........a	-327.66
	210	0.0422	4.36970E-001	-3.86936E-009	0.00000E+000	4.36950E-001	8.00223E-005	4	..........a	-327.66
	211	0.0424	4.46870E-001	-3.74036E-009	0.00000E+000	4.46950E-001	8.00223E-005	4	..........a	-327.66
	212	0.0426	4.57070E-001	-3.60935E-009	0.00000E+000	4.56950E-001	8.00223E-005	4	..........a	-327.66
	213	0.0428	4.66970E-001	-3.47835E-009	0.00000E+000	4.66950E-001	8.00223E-005	4	..........a	-327.66
	214	0.043	4.76870E-001	-3.34634E-009	0.00000E+000	4.76950E-001	-4.19978E-004	4	..........a	-327.66
	215	0.0432	4.86870E-001	-3.21134E-009	0.00000E+000	4.86950E-001	8.00223E-005	4	..........a	-327.66
	216	0.0434	4.97070E-001	-3.07933E-009	0.00000E+000	4.96950E-001	8.00223E-005	4	..........a	-327.66
	217	0.0436	5.06869E-001	-2.94333E-009	0.00000E+000	5.06950E-001	-3.19978E-004	4	..........a	-327.66
	218	0.0438	5.16819E-001	-2.80732E-009	0.00000E+000	5.16950E-001	-3.19978E-004	4	..........a	-327.66
	219	0.044	5.27070E-001	-2.66731E-009	0.00000E+000	5.26950E-001	8.00223E-005	4	..........a	-327.66
	220	0.0442	5.36869E-001	-2.52631E-009	0.00000E+000	5.36950E-001	8.00223E-005	4	..........a	-327.66
	221	0.0444	5.47069E-001	-2.38630E-009	0.00000E+000	5.46950E-001	8.00223E-005	4	..........a	-327.66
	222	0.0446	5.56870E-001	-2.23730E-009	0.00000E+000	5.56950E-001	8.00223E-005	4	..........a	-327.66
	223	0.0448	5.66869E-001	-2.09429E-009	0.00000E+000	5.66950E-001	8.00223E-005	4	..........a	-327.66
	224	0.045	5.77169E-001	-1.94329E-009	0.00000E+000	5.76950E-001	8.00223E-005	4	..........a	-327.66
	225	0.0452	5.86969E-001	-1.79928E-009	0.00000E+000	5.86950E-001	8.00223E-005	4	..........a	-327.66
	226	0.0454	5.96969E-001	-1.64928E-009	0.00000E+000	5.96950E-001	-2.19978E-004	4	..........a	-327.66
	227	0.0456	6.06869E-001	-1.49627E-009	0.00000E+000	6.06950E-001	8.00223E-005	4	..........a	-327.66
	228	0.0458	6.16969E-001	-1.34026E-009	0.00000E+000	6.16950E-001	8.00223E-005	4	..........a	-327.66
	229	0.046	6.26869E-001	-1.18126E-009	0.00000E+000	6.26950E-001	8.00223E-005	4	..........a	-327.66
	230	0.0462	6.36869E-001	-1.02325E-009	0.00000E+000	6.36950E-001	8.00223E-005	4	..........a	-327.66
	231	0.0464	6.46869E-001	-8.62245E-010	0.00000E+000	6.46950E-001	8.00223E-005	4	..........a	-327.66
	232	0.0466	6.56969E-001	-6.98239E-010	0.00000E+000	6.56950E-001	8.00223E-005	4	..........a	-327.66
	233	0.0468	6.66869E-001	-5.27233E-010	0.00000E+000	6.66950E-001	8.00223E-005	4	..........a	-327.66
	234	0.047	6.76870E-001	-3.51226E-010	0.00000E+000	6.76950E-001	8.00223E-005	4	..........a	-327.66
	235	0.0472	6.86969E-001	-1.84219E-010	0.00000E+000	6.86950E-001	8.00223E-005	4	..........a	-327.66
	236	0.0474	6.96970E-001	-8.21268E-012	0.00000E+000	6.96950E-001	8.00223E-005	4	..........a	-327.66
	237	0.0476	7.06869E-001	1.63794E-010	0.00000E+000	7.06950E-001	1.80022E-004	4	..........a	-327.66
	238	0.0478	7.16869E-001	3.49801E-010	0.00000E+000	7.16950E-001	-1.19978E-004	4	..........a	-327.66
	239	0.048	7.26869E-001	5.34808E-010	0.00000E+000	7.26950E-001	8.00223E-005	4	..........a	-327.66
	240	0.0482	7.36969E-001	7.21815E-010	0.00000E+000	7.36950E-001	8.00223E-005	4	..........a	-327.66
	241	0.0484	7.46870E-001	9.12823E-010	0.00000E+000	7.46950E-001	8.00223E-005	4	..........a	-327.66
	242	0.0486	7.56769E-001	1.10983E-009	0.00000E+000	7.56950E-001	8.00223E-005	4	..........a	-327.66
	243	0.0488	7.66769E-001	1.31084E-009	0.00000E+000	7.66950E-001	8.00223E-005	4	..........a	-327.66
	244	0.049	7.77070E-001	1.51285E-009	0.00000E+000	7.76950E-001	8.00223E-005	4	..........a	-327.66
	245	0.0492	7.86969E-001	1.71385E-009	0.00000E+000	7.86950E-001	8.00223E-005	4	..........a	-327.66
	246	0.0494	7.96669E-001	1.92986E-009	0.00000E+000	7.96950E-001	8.00223E-005	4	..........a	-327.66
CURVE2	TABLE
	Pt	T	Vf	Im	Vu	Sig	Ach	IERange	Over	Temp
	#	s	V vs. Ref.	A	V	V	V	#	bits	deg C
	247	0.0496	7.89970E-001	2.05087E-009	0.00000E+000	7.90000E-001	8.00223E-005	4	..........a	-327.66
	248	0.0498	7.79869E-001	2.12587E-009	0.00000E+000	7.80000E-001	8.00223E-005	4	..........a	-327.66
	249	0.05	7.70069E-001	2.18487E-009	0.00000E+000	7.70000E-001	8.00223E-005	4	..........a	-327.66
	250	0.0502	7.59969E-001	2.22387E-009	0.00000E+000	7.60000E-001	8.00223E-005	4	..........a	-327.66
	251	0.0504	7.50069E-001	2.24587E-009	0.00000E+000	7.50000E-001	8.00223E-005	4	..........a	-327.66
	252	0.0506	7.39769E-001	2.26187E-009	0.00000E+000	7.40000E-001	8.00223E-005	4	..........a	-327.66
	253	0.0508	7.30069E-001	2.26087E-009	0.00000E+000	7.30000E-001	8.00223E-005	4	..........a	-327.66
	254	0.051	7.19869E-001	2.26387E-009	0.00000E+000	7.20000E-001	8.00223E-005	4	..........a	-327.66
	255	0.0512	7.09969E-001	2.24587E-009	0.00000E+000	7.10000E-001	8.00223E-005	4	..........a	-327.66
	256	0.0514	6.99769E-001	2.22787E-009	0.00000E+000	7.00000E-001	8.00223E-005	4	..........a	-327.66
	257	0.0516	6.89969E-001	2.20987E-009	0.00000E+000	6.90000E-001	8.00223E-005	4	..........a	-327.66
	258	0.0518	6.79869E-001	2.18087E-009	0.00000E+000	6.80000E-001	8.00223E-005	4	..........a	-327.66
	259	0.052	6.69869E-001	2.14887E-009	0.00000E+000	6.70000E-001	8.00223E-005	4	..........a	-327.66
	260	0.0522	6.60069E-001	2.11787E-009	0.00000E+000	6.60000E-001	8.00223E-005	4	..........a	-327.66
	261	0.0524	6.49969E-001	2.08287E-009	0.00000E+000	6.50000E-001	8.00223E-005	4	..........a	-327.66
	262	0.0526	6.39969E-001	2.04087E-009	0.00000E+000	6.40000E-001	8.00223E-005	4	..........a	-327.66
	263	0.0528	6.30019E-001	1.99986E-009	0.00000E+000	6.30000E-001	8.00223E-005	4	..........a	-327.66
	264	0.053	6.20070E-001	1.95186E-009	0.00000E+000	6.20000E-001	8.00223E-005	4	..........a	-327.66
	265	0.0532	6.10070E-001	1.90986E-009	0.00000E+000	6.10000E-001	8.00223E-005	4	..........a	-327.66
	266	0.0534	5.99970E-001	1.85986E-009	0.00000E+000	6.00000E-001	-1.19978E-004	4	..........a	-327.66
	267	0.0536	5.90069E-001	1.81186E-009	0.00000E+000	5.90000E-001	8.00223E-005	4	..........a	-327.66
	268	0.0538	5.79969E-001	1.75786E-009	0.00000E+000	5.80000E-001	8.00223E-005	4	..........a	-327.66
	269	0.054	5.69969E-001	1.70585E-009	0.00000E+000	5.70000E-001	8.00223E-005	4	..........a	-327.66
	270	0.0542	5.60070E-001	1.64985E-009	0.00000E+000	5.60000E-001	8.00223E-005	4	..........a	-327.66
	271	0.0544	5.49969E-001	1.59485E-009	0.00000E+000	5.50000E-001	8.00223E-005	4	..........a	-327.66
	272	0.0546	5.39970E-001	1.54085E-009	0.00000E+000	5.40000E-001	8.00223E-005	4	..........a	-327.66
	273	0.0548	5.30069E-001	1.47984E-009	0.00000E+000	5.30000E-001	8.00223E-005	4	..........a	-327.66
	274	0.055	5.19870E-001	1.41884E-009	0.00000E+000	5.20000E-001	8.00223E-005	4	..........a	-327.66
	275	0.0552	5.09969E-001	1.35684E-009	0.00000E+000	5.10000E-001	8.00223E-005	4	..........a	-327.66
	276	0.0554	4.99870E-001	1.29584E-009	0.00000E+000	5.00000E-001	8.00223E-005	4	..........a	-327.66
	277	0.0556	4.90070E-001	1.23484E-009	0.00000E+000	4.90000E-001	8.00223E-005	4	..........a	-327.66
	278	0.0558	4.79970E-001	1.16683E-009	0.00000E+000	4.80000E-001	8.00223E-005	4	..........a	-327.66
	279	0.056	4.69970E-001	1.10083E-009	0.00000E+000	4.70000E-001	8.00223E-005	4	..........a	-327.66
	280	0.0562	4.60170E-001	1.03183E-009	0.00000E+000	4.60000E-001	8.00223E-005	4	..........a	-327.66
	281	0.0564	4.49970E-001	9.65825E-010	0.00000E+000	4.50000E-001	8.00223E-005	4	..........a	-327.66
	282	0.0566	4.39820E-001	8.95822E-010	0.00000E+000	4.40000E-001	-3.19978E-004	4	..........a	-327.66
	283	0.0568	4.30170E-001	8.24819E-010	0.00000E+000	4.30000E-001	8.00223E-005	4	..........a	-327.66
	284	0.057	4.19970E-001	7.50816E-010	0.00000E+000	4.20000E-001	8.00223E-005	4	..........a	-327.66
	285	0.0572	4.10170E-001	6.81814E-010	0.00000E+000	4.10000E-001	8.00223E-005	4	..........a	-327.66
	286	0.0574	4.00070E-001	6.03811E-010	0.00000E+000	4.00000E-001	8.00223E-005	4	..........a	-327.66
	287	0.0576	3.90070E-001	5.29808E-010	0.00000E+000	3.90000E-001	8.00223E-005	4	..........a	-327.66
	288	0.0578	3.80270E-001	4.52805E-010	0.00000E+000	3.80000E-001	8.00223E-005	4	..........a	-327.66
	289	0.058	3.69970E-001	3.71802E-010	0.00000E+000	3.70000E-001	8.00223E-005	4	..........a	-327.66
	290	0.0582	3.60170E-001	2.93799E-010	0.00000E+000	3.60000E-001	8.00223E-005	4	..........a	-327.66
	291	0.0584	3.50070E-001	2.12796E-010	0.00000E+000	3.50000E-001	8.00223E-005	4	..........a	-327.66
	292	0.0586	3.40070E-001	1.25792E-010	0.00000E+000	3.40000E-001	8.00223E-005	4	..........a	-327.66
	293	0.0588	3.29970E-001	4.37893E-011	0.00000E+000	3.30000E-001	8.00223E-005	4	..........a	-327.66
	294	0.059	3.19870E-001	-4.12139E-011	0.00000E+000	3.20000E-001	8.00223E-005	4	..........a	-327.66
	295	0.0592	3.09970E-001	-1.33217E-010	0.00000E+000	3.10000E-001	-4.19978E-004	4	..........a	-327.66
	296	0.0594	2.99970E-001	-2.23221E-010	0.00000E+000	3.00000E-001	8.00223E-005	4	..........a	-327.66
	297	0.0596	2.90070E-001	-3.15224E-010	0.00000E+000	2.90000E-001	8.00223E-005	4	..........a	-327.66
	298	0.0598	2.79970E-001	-4.07228E-010	0.00000E+000	2.80000E-001	8.00223E-005	4	..........a	-327.66
	299	0.06	2.70470E-001	-4.99232E-010	0.00000E+000	2.70000E-001	8.00223E-005	4	..........a	-327.66
	300	0.0602	2.60070E-001	-5.94235E-010	0.00000E+000	2.60000E-001	8.00223E-005	4	..........a	-327.66
	301	0.0604	2.49970E-001	-6.92239E-010	0.00000E+000	2.50000E-001	8.00223E-005	4	..........a	-327.66
	302	0.0606	2.39870E-001	-7.96243E-010	0.00000E+000	2.40000E-001	8.00223E-005	4	..........a	-327.66
	303	0.0608	2.29970E-001	-8.95247E-010	0.00000E+000	2.30000E-001	8.00223E-005	4	..........a	-327.66
	304	0.061	2.20070E-001	-1.00225E-009	0.00000E+000	2.20000E-001	8.00223E-005	4	..........a	-327.66
	305	0.0612	2.09970E-001	-1.10125E-009	0.00000E+000	2.10000E-001	8.00223E-005	4	..........a	-327.66
	306	0.0614	2.00070E-001	-1.21026E-009	0.00000E+000	2.00000E-001	8.00223E-005	4	..........a	-327.66
	307	0.0616	1.90070E-001	-1.31826E-009	0.00000E+000	1.90000E-001	8.00223E-005	4	..........a	-327.66
	308	0.0618	1.80270E-001	-1.42727E-009	0.00000E+000	1.80000E-001	8.00223E-005	4	..........a	-327.66
	309	0.062	1.70270E-001	-1.54127E-009	0.00000E+000	1.70000E-001	8.00223E-005	4	..........a	-327.66
	310	0.0622	1.59970E-001	-1.65628E-009	0.00000E+000	1.60000E-001	8.00223E-005	4	..........a	-327.66
	311	0.0624	1.49970E-001	-1.76928E-009	0.00000E+000	1.50000E-001	8.00223E-005	4	..........a	-327.66
	312	0.0626	1.39970E-001	-1.88528E-009	0.00000E+000	1.40000E-001	-1.19978E-004	4	..........a	-327.66
	313	0.0628	1.30070E-001	-2.00329E-009	0.00000E+000	1.30000E-001	8.00223E-005	4	..........a	-327.66
	314	0.063	1.20170E-001	-2.12229E-009	0.00000E+000	1.20000E-001	8.00223E-005	4	..........a	-327.66
	315	0.0632	1.10070E-001	-2.24530E-009	0.00000E+000	1.10000E-001	8.00223E-005	4	..........a	-327.66
	316	0.0634	1.00270E-001	-2.36230E-009	0.00000E+000	1.00000E-001	8.00223E-005	4	..........a	-327.66
	317	0.0636	8.99695E-002	-2.49331E-009	0.00000E+000	9.00000E-002	8.00223E-005	4	..........a	-327.66
	318	0.0638	7.99695E-002	-2.61231E-009	0.00000E+000	8.00000E-002	8.00223E-005	4	..........a	-327.66
	319	0.064	6.99695E-002	-2.73832E-009	0.00000E+000	7.00000E-002	8.00223E-005	4	..........a	-327.66
	320	0.0642	5.99695E-002	-2.86232E-009	0.00000E+000	6.00000E-002	8.00223E-005	4	..........a	-327.66
	321	0.0644	5.00695E-002	-2.98733E-009	0.00000E+000	5.00000E-002	8.00223E-005	4	..........a	-327.66
	322	0.0646	4.01695E-002	-3.11233E-009	0.00000E+000	4.00000E-002	8.00223E-005	4	..........a	-327.66
	323	0.0648	3.01695E-002	-3.23834E-009	0.00000E+000	3.00000E-002	8.00223E-005	4	..........a	-327.66
	324	0.065	2.01695E-002	-3.36634E-009	0.00000E+000	2.00000E-002	8.00223E-005	4	..........a	-327.66
	325	0.0652	1.00695E-002	-3.49235E-009	0.00000E+000	1.00000E-002	8.00223E-005	4	..........a	-327.66
	326	0.0654	2.69519E-004	-3.61235E-009	0.00000E+000	7.45058E-009	8.00223E-005	4	..........a	-327.66
	327	0.0656	-9.93048E-003	-3.73936E-009	0.00000E+000	-1.00000E-002	8.00223E-005	4	..........a	-327.66
	328	0.0658	-1.98305E-002	-3.86836E-009	0.00000E+000	-2.00000E-002	8.00223E-005	4	..........a	-327.66
	329	0.066	-2.98305E-002	-3.99637E-009	0.00000E+000	-3.00000E-002	8.00223E-005	4	..........a	-327.66
	330	0.0662	-3.98305E-002	-4.11737E-009	0.00000E+000	-4.00000E-002	8.00223E-005	4	..........a	-327.66
	331	0.0664	-5.00305E-002	-4.24038E-009	0.00000E+000	-5.00000E-002	8.00223E-005	4	..........a	-327.66
	332	0.0666	-5.97305E-002	-4.36638E-009	0.00000E+000	-6.00000E-002	8.00223E-005	4	..........a	-327.66
	333	0.0668	-6.99305E-002	-4.48638E-009	0.00000E+000	-7.00000E-002	8.00223E-005	4	..........a	-327.66
	334	0.067	-7.99305E-002	-4.61039E-009	0.00000E+000	-8.00000E-002	8.00223E-005	4	..........a	-327.66
	335	0.0672	-8.99305E-002	-4.72839E-009	0.00000E+000	-9.00000E-002	8.00223E-005	4	..........a	-327.66
	336	0.0674	-9.99305E-002	-4.84840E-009	0.00000E+000	-1.00000E-001	8.00223E-005	4	..........a	-327.66
	337	0.0676	-1.10030E-001	-4.97040E-009	0.00000E+000	-1.10000E-001	8.00223E-005	4	..........a	-327.66
	338	0.0678	-1.19830E-001	-5.08541E-009	0.00000E+000	-1.20000E-001	8.00223E-005	4	..........a	-327.66
	339	0.068	-1.30030E-001	-5.20441E-009	0.00000E+000	-1.30000E-001	8.00223E-005	4	..........a	-327.66
	340	0.0682	-1.39930E-001	-5.32042E-009	0.00000E+000	-1.40000E-001	8.00223E-005	4	..........a	-327.66
	341	0.0684	-1.49930E-001	-5.43542E-009	0.00000E+000	-1.50000E-001	8.00223E-005	4	..........a	-327.66
	342	0.0686	-1.59930E-001	-5.54743E-009	0.00000E+000	-1.60000E-001	8.00223E-005	4	..........a	-327.66
	343	0.0688	-1.69980E-001	-5.66143E-009	0.00000E+000	-1.70000E-001	8.00223E-005	4	..........a	-327.66
	344	0.069	-1.79730E-001	-5.77843E-009	0.00000E+000	-1.80000E-001	8.00223E-005	4	..........a	-327.66
[...]
	2605	0.5212	-3.90030E-001	-4.30638E-009	0.00000E+000	-3.90000E-001	8.00223E-005	4	..........a	-327.66
	2606	0.5214	-3.99930E-001	-4.41538E-009	0.00000E+000	-4.00000E-001	8.00223E-005	4	..........a	-327.66
	2607	0.5216	-4.09830E-001	-4.51739E-009	0.00000E+000	-4.10000E-001	8.00223E-005	4	..........a	-327.66
	2608	0.5218	-4.19730E-001	-4.62639E-009	0.00000E+000	-4.20000E-001	8.00223E-005	4	..........a	-327.66
	2609	0.522	-4.29930E-001	-4.74039E-009	0.00000E+000	-4.30000E-001	8.00223E-005	4	..........a	-327.66
	2610	0.5222	-4.40030E-001	-4.84540E-009	0.00000E+000	-4.40000E-001	8.00223E-005	4	..........a	-327.66
	2611	0.5224	-4.49930E-001	-4.95040E-009	0.00000E+000	-4.50000E-001	8.00223E-005	4	..........a	-327.66
	2612	0.5226	-4.59830E-001	-5.06041E-009	0.00000E+000	-4.60000E-001	8.00223E-005	4	..........a	-327.66
	2613	0.5228	-4.69930E-001	-5.16741E-009	0.00000E+000	-4.70000E-001	8.00223E-005	4	..........a	-327.66
	2614	0.523	-4.79830E-001	-5.28042E-009	0.00000E+000	-4.80000E-001	8.00223E-005	4	..........a	-327.66
	2615	0.5232	-4.89830E-001	-5.38942E-009	0.00000E+000	-4.90000E-001	8.00223E-005	4	..........a	-327.66
	2616	0.5234	-4.99930E-001	-5.50242E-009	0.00000E+000	-5.00000E-001	8.00223E-005	4	..........a	-327.66
	2617	0.5236	-5.09930E-001	-5.61443E-009	0.00000E+000	-5.10000E-001	8.00223E-005	4	..........a	-327.66
	2618	0.5238	-5.19830E-001	-5.72843E-009	0.00000E+000	-5.20000E-001	8.00223E-005	4	..........a	-327.66
	2619	0.524	-5.29930E-001	-5.85044E-009	0.00000E+000	-5.30000E-001	8.00223E-005	4	..........a	-327.66
	2620	0.5242	-5.39730E-001	-5.96344E-009	0.00000E+000	-5.40000E-001	8.00223E-005	4	..........a	-327.66
	2621	0.5244	-5.49830E-001	-6.08745E-009	0.00000E+000	-5.50000E-001	8.00223E-005	4	..........a	-327.66
	2622	0.5246	-5.59830E-001	-6.21445E-009	0.00000E+000	-5.60000E-001	8.00223E-005	4	..........a	-327.66
	2623	0.5248	-5.69830E-001	-6.33746E-009	0.00000E+000	-5.70000E-001	8.00223E-005	4	..........a	-327.66
	2624	0.525	-5.79830E-001	-6.46346E-009	0.00000E+000	-5.80000E-001	8.00223E-005	4	..........a	-327.66
	2625	0.5252	-5.89930E-001	-6.58947E-009	0.00000E+000	-5.90000E-001	8.00223E-005	4	..........a	-327.66
	2626	0.5254	-5.99730E-001	-6.72447E-009	0.00000E+000	-6.00000E-001	8.00223E-005	4	..........a	-327.66
	2627	0.5256	-5.89930E-001	-6.74947E-009	0.00000E+000	-5.90000E-001	8.00223E-005	4	..........a	-327.66
	2628	0.5258	-5.79830E-001	-6.75747E-009	0.00000E+000	-5.80000E-001	8.00223E-005	4	..........a	-327.66
	2629	0.526	-5.69930E-001	-6.75247E-009	0.00000E+000	-5.70000E-001	8.00223E-005	4	..........a	-327.66
	2630	0.5262	-5.59830E-001	-6.74047E-009	0.00000E+000	-5.60000E-001	8.00223E-005	4	..........a	-327.66
	2631	0.5264	-5.49931E-001	-6.72047E-009	0.00000E+000	-5.50000E-001	8.00223E-005	4	..........a	-327.66
	2632	0.5266	-5.39730E-001	-6.69447E-009	0.00000E+000	-5.40000E-001	8.00223E-005	4	..........a	-327.66
	2633	0.5268	-5.29831E-001	-6.66247E-009	0.00000E+000	-5.30000E-001	8.00223E-005	4	..........a	-327.66
	2634	0.527	-5.19830E-001	-6.63047E-009	0.00000E+000	-5.20000E-001	8.00223E-005	4	..........a	-327.66
	2635	0.5272	-5.09930E-001	-6.59347E-009	0.00000E+000	-5.10000E-001	8.00223E-005	4	..........a	-327.66
	2636	0.5274	-4.99830E-001	-6.54846E-009	0.00000E+000	-5.00000E-001	8.00223E-005	4	..........a	-327.66
	2637	0.5276	-4.89930E-001	-6.49646E-009	0.00000E+000	-4.90000E-001	8.00223E-005	4	..........a	-327.66
	2638	0.5278	-4.79930E-001	-6.45546E-009	0.00000E+000	-4.80000E-001	8.00223E-005	4	..........a	-327.66
	2639	0.528	-4.69930E-001	-6.40946E-009	0.00000E+000	-4.70000E-001	8.00223E-005	4	..........a	-327.66
	2640	0.5282	-4.59730E-001	-6.35846E-009	0.00000E+000	-4.60000E-001	8.00223E-005	4	..........a	-327.66
	2641	0.5284	-4.49980E-001	-6.30645E-009	0.00000E+000	-4.50000E-001	1.80022E-004	4	..........a	-327.66
	2642	0.5286	-4.39830E-001	-6.25145E-009	0.00000E+000	-4.40000E-001	8.00223E-005	4	..........a	-327.66
	2643	0.5288	-4.29930E-001	-6.19645E-009	0.00000E+000	-4.30000E-001	8.00223E-005	4	..........a	-327.66
	2644	0.529	-4.19730E-001	-6.13445E-009	0.00000E+000	-4.20000E-001	8.00223E-005	4	..........a	-327.66
	2645	0.5292	-4.09930E-001	-6.08045E-009	0.00000E+000	-4.10000E-001	8.00223E-005	4	..........a	-327.66
	2646	0.5294	-3.99930E-001	-6.01644E-009	0.00000E+000	-4.00000E-001	8.00223E-005	4	..........a	-327.66
	2647	0.5296	-3.89830E-001	-5.95944E-009	0.00000E+000	-3.90000E-001	8.00223E-005	4	..........a	-327.66
	2648	0.5298	-3.79830E-001	-5.89844E-009	0.00000E+000	-3.80000E-001	8.00223E-005	4	..........a	-327.66
	2649	0.53	-3.69930E-001	-5.83244E-009	0.00000E+000	-3.70000E-001	8.00223E-005	4	..........a	-327.66
	2650	0.5302	-3.59930E-001	-5.76943E-009	0.00000E+000	-3.60000E-001	8.00223E-005	4	..........a	-327.66
	2651	0.5304	-3.50030E-001	-5.70943E-009	0.00000E+000	-3.50000E-001	8.00223E-005	4	..........a	-327.66
	2652	0.5306	-3.39730E-001	-5.63843E-009	0.00000E+000	-3.40000E-001	8.00223E-005	4	..........a	-327.66
	2653	0.5308	-3.29930E-001	-5.57443E-009	0.00000E+000	-3.30000E-001	8.00223E-005	4	..........a	-327.66
	2654	0.531	-3.19930E-001	-5.50642E-009	0.00000E+000	-3.20000E-001	8.00223E-005	4	..........a	-327.66
	2655	0.5312	-3.09930E-001	-5.43942E-009	0.00000E+000	-3.10000E-001	8.00223E-005	4	..........a	-327.66
	2656	0.5314	-2.99730E-001	-5.37242E-009	0.00000E+000	-3.00000E-001	8.00223E-005	4	..........a	-327.66
	2657	0.5316	-2.89730E-001	-5.30042E-009	0.00000E+000	-2.90000E-001	8.00223E-005	4	..........a	-327.66
	2658	0.5318	-2.79830E-001	-5.22741E-009	0.00000E+000	-2.80000E-001	8.00223E-005	4	..........a	-327.66
	2659	0.532	-2.69930E-001	-5.15941E-009	0.00000E+000	-2.70000E-001	8.00223E-005	4	..........a	-327.66
	2660	0.5322	-2.59930E-001	-5.08541E-009	0.00000E+000	-2.60000E-001	8.00223E-005	4	..........a	-327.66
	2661	0.5324	-2.50030E-001	-5.01540E-009	0.00000E+000	-2.50000E-001	8.00223E-005	4	..........a	-327.66
	2662	0.5326	-2.39830E-001	-4.94640E-009	0.00000E+000	-2.40000E-001	8.00223E-005	4	..........a	-327.66
	2663	0.5328	-2.29830E-001	-4.87140E-009	0.00000E+000	-2.30000E-001	-3.19978E-004	4	..........a	-327.66
	2664	0.533	-2.19830E-001	-4.79240E-009	0.00000E+000	-2.20000E-001	8.00223E-005	4	..........a	-327.66
	2665	0.5332	-2.10030E-001	-4.72239E-009	0.00000E+000	-2.10000E-001	-3.19978E-004	4	..........a	-327.66
	2666	0.5334	-1.99830E-001	-4.64739E-009	0.00000E+000	-2.00000E-001	8.00223E-005	4	..........a	-327.66
	2667	0.5336	-1.89930E-001	-4.57039E-009	0.00000E+000	-1.90000E-001	8.00223E-005	4	..........a	-327.66
	2668	0.5338	-1.79830E-001	-4.49439E-009	0.00000E+000	-1.80000E-001	8.00223E-005	4	..........a	-327.66
	2669	0.534	-1.69930E-001	-4.42038E-009	0.00000E+000	-1.70000E-001	8.00223E-005	4	..........a	-327.66
	2670	0.5342	-1.60030E-001	-4.34438E-009	0.00000E+000	-1.60000E-001	-3.19978E-004	4	..........a	-327.66
	2671	0.5344	-1.49930E-001	-4.27138E-009	0.00000E+000	-1.50000E-001	8.00223E-005	4	..........a	-327.66
	2672	0.5346	-1.39930E-001	-4.18837E-009	0.00000E+000	-1.40000E-001	8.00223E-005	4	..........a	-327.66
	2673	0.5348	-1.29930E-001	-4.11137E-009	0.00000E+000	-1.30000E-001	8.00223E-005	4	..........a	-327.66
	2674	0.535	-1.19930E-001	-4.03237E-009	0.00000E+000	-1.20000E-001	8.00223E-005	4	..........a	-327.66
	2675	0.5352	-1.09830E-001	-3.95236E-009	0.00000E+000	-1.10000E-001	8.00223E-005	4	..........a	-327.66
	2676	0.5354	-9.98305E-002	-3.87436E-009	0.00000E+000	-1.00000E-001	8.00223E-005	4	..........a	-327.66
	2677	0.5356	-9.00305E-002	-3.79036E-009	0.00000E+000	-9.00000E-002	8.00223E-005	4	..........a	-327.66
	2678	0.5358	-8.00305E-002	-3.71636E-009	0.00000E+000	-8.00000E-002	8.00223E-005	4	..........a	-327.66
	2679	0.536	-6.99305E-002	-3.63635E-009	0.00000E+000	-7.00000E-002	8.00223E-005	4	..........a	-327.66
	2680	0.5362	-5.97305E-002	-3.55635E-009	0.00000E+000	-6.00000E-002	8.00223E-005	4	..........a	-327.66
	2681	0.5364	-4.99305E-002	-3.47435E-009	0.00000E+000	-5.00000E-002	8.00223E-005	4	..........a	-327.66
	2682	0.5366	-3.99305E-002	-3.39234E-009	0.00000E+000	-4.00000E-002	8.00223E-005	4	..........a	-327.66
	2683	0.5368	-3.00305E-002	-3.30734E-009	0.00000E+000	-3.00000E-002	8.00223E-005	4	..........a	-327.66
	2684	0.537	-1.99305E-002	-3.22434E-009	0.00000E+000	-2.00000E-002	-4.19978E-004	4	..........a	-327.66
	2685	0.5372	-9.93048E-003	-3.14233E-009	0.00000E+000	-1.00000E-002	8.00223E-005	4	..........a	-327.66
	2686	0.5374	1.69519E-004	-3.05633E-009	0.00000E+000	7.45058E-009	8.00223E-005	4	..........a	-327.66
	2687	0.5376	1.00695E-002	-2.97833E-009	0.00000E+000	1.00000E-002	8.00223E-005	4	..........a	-327.66
	2688	0.5378	2.01695E-002	-2.89032E-009	0.00000E+000	2.00000E-002	8.00223E-005	4	..........a	-327.66
	2689	0.538	3.00695E-002	-2.80532E-009	0.00000E+000	3.00000E-002	8.00223E-005	4	..........a	-327.66
	2690	0.5382	4.01695E-002	-2.71932E-009	0.00000E+000	4.00000E-002	8.00223E-005	4	..........a	-327.66
	2691	0.5384	5.00695E-002	-2.63931E-009	0.00000E+000	5.00000E-002	8.00223E-005	4	..........a	-327.66
	2692	0.5386	6.00695E-002	-2.55031E-009	0.00000E+000	6.00000E-002	8.00223E-005	4	..........a	-327.66
	2693	0.5388	7.00695E-002	-2.46631E-009	0.00000E+000	7.00000E-002	8.00223E-005	4	..........a	-327.66
	2694	0.539	8.00695E-002	-2.37430E-009	0.00000E+000	8.00000E-002	8.00223E-005	4	..........a	-327.66
	2695	0.5392	9.01695E-002	-2.28330E-009	0.00000E+000	9.00000E-002	8.00223E-005	4	..........a	-327.66
	2696	0.5394	1.00170E-001	-2.19930E-009	0.00000E+000	1.00000E-001	8.00223E-005	4	..........a	-327.66
	2697	0.5396	1.09970E-001	-2.11129E-009	0.00000E+000	1.10000E-001	8.00223E-005	4	..........a	-327.66
	2698	0.5398	1.20070E-001	-2.02229E-009	0.00000E+000	1.20000E-001	8.00223E-005	4	..........a	-327.66
	2699	0.54	1.30070E-001	-1.93029E-009	0.00000E+000	1.30000E-001	8.00223E-005	4	..........a	-327.66
	2700	0.5402	1.40070E-001	-1.84028E-009	0.00000E+000	1.40000E-001	8.00223E-005	4	..........a	-327.66
	2701	0.5404	1.50070E-001	-1.74728E-009	0.00000E+000	1.50000E-001	8.00223E-005	4	..........a	-327.66
	2702	0.5406	1.60070E-001	-1.65928E-009	0.00000E+000	1.60000E-001	8.00223E-005	4	..........a	-327.66
	2703	0.5408	1.69870E-001	-1.56327E-009	0.00000E+000	1.70000E-001	8.00223E-005	4	..........a	-327.66
	2704	0.541	1.80170E-001	-1.47427E-009	0.00000E+000	1.80000E-001	8.00223E-005	4	..........a	-327.66
	2705	0.5412	1.90070E-001	-1.37327E-009	0.00000E+000	1.90000E-001	8.00223E-005	4	..........a	-327.66
	2706	0.5414	2.00070E-001	-1.28126E-009	0.00000E+000	2.00000E-001	8.00223E-005	4	..........a	-327.66
	2707	0.5416	2.09970E-001	-1.18626E-009	0.00000E+000	2.10000E-001	8.00223E-005	4	..........a	-327.66
	2708	0.5418	2.20270E-001	-1.08825E-009	0.00000E+000	2.20000E-001	8.00223E-005	4	..........a	-327.66
	2709	0.542	2.29970E-001	-9.89250E-010	0.00000E+000	2.30000E-001	-3.19978E-004	4	..........a	-327.66
	2710	0.5422	2.40070E-001	-8.95247E-010	0.00000E+000	2.40000E-001	8.00223E-005	4	..........a	-327.66
	2711	0.5424	2.49970E-001	-8.02243E-010	0.00000E+000	2.50000E-001	8.00223E-005	4	..........a	-327.66
	2712	0.5426	2.60170E-001	-6.94239E-010	0.00000E+000	2.60000E-001	8.00223E-005	4	..........a	-327.66
	2713	0.5428	2.70070E-001	-5.90235E-010	0.00000E+000	2.70000E-001	8.00223E-005	4	..........a	-327.66
	2714	0.543	2.79870E-001	-4.84231E-010	0.00000E+000	2.80000E-001	8.00223E-005	4	..........a	-327.66
	2715	0.5432	2.89970E-001	-3.90227E-010	0.00000E+000	2.90000E-001	-2.19978E-004	4	..........a	-327.66
	2716	0.5434	3.00170E-001	-2.84223E-010	0.00000E+000	3.00000E-001	8.00223E-005	4	..........a	-327.66
	2717	0.5436	3.09870E-001	-1.73219E-010	0.00000E+000	3.10000E-001	8.00223E-005	4	..........a	-327.66
	2718	0.5438	3.19870E-001	-7.22151E-011	0.00000E+000	3.20000E-001	8.00223E-005	4	..........a	-327.66
	2719	0.544	3.30070E-001	3.77891E-011	0.00000E+000	3.30000E-001	8.00223E-005	4	..........a	-327.66
	2720	0.5442	3.40070E-001	1.52794E-010	0.00000E+000	3.40000E-001	8.00223E-005	4	..........a	-327.66
	2721	0.5444	3.49920E-001	2.56797E-010	0.00000E+000	3.50000E-001	8.00223E-005	4	..........a	-327.66
	2722	0.5446	3.59970E-001	3.61802E-010	0.00000E+000	3.60000E-001	8.00223E-005	4	..........a	-327.66
	2723	0.5448	3.70170E-001	4.75806E-010	0.00000E+000	3.70000E-001	-3.19978E-004	4	..........a	-327.66
	2724	0.545	3.80070E-001	5.85810E-010	0.00000E+000	3.80000E-001	8.00223E-005	4	..........a	-327.66
	2725	0.5452	3.90070E-001	6.99815E-010	0.00000E+000	3.90000E-001	8.00223E-005	4	..........a	-327.66
	2726	0.5454	3.99970E-001	8.13819E-010	0.00000E+000	4.00000E-001	8.00223E-005	4	..........a	-327.66
	2727	0.5456	4.09870E-001	9.25823E-010	0.00000E+000	4.10000E-001	8.00223E-005	4	..........a	-327.66
	2728	0.5458	4.19970E-001	1.03983E-009	0.00000E+000	4.20000E-001	8.00223E-005	4	..........a	-327.66
	2729	0.546	4.30070E-001	1.15783E-009	0.00000E+000	4.30000E-001	8.00223E-005	4	..........a	-327.66
	2730	0.5462	4.40020E-001	1.27784E-009	0.00000E+000	4.40000E-001	8.00223E-005	4	..........a	-327.66
	2731	0.5464	4.49970E-001	1.38984E-009	0.00000E+000	4.50000E-001	8.00223E-005	4	..........a	-327.66
	2732	0.5466	4.60070E-001	1.51085E-009	0.00000E+000	4.60000E-001	8.00223E-005	4	..........a	-327.66
	2733	0.5468	4.69870E-001	1.63285E-009	0.00000E+000	4.70000E-001	8.00223E-005	4	..........a	-327.66
	2734	0.547	4.79870E-001	1.75486E-009	0.00000E+000	4.80000E-001	8.00223E-005	4	..........a	-327.66
	2735	0.5472	4.89970E-001	1.87786E-009	0.00000E+000	4.90000E-001	8.00223E-005	4	..........a	-327.66
	2736	0.5474	5.00069E-001	2.00586E-009	0.00000E+000	5.00000E-001	8.00223E-005	4	..........a	-327.66
	2737	0.5476	5.09969E-001	2.12887E-009	0.00000E+000	5.10000E-001	8.00223E-005	4	..........a	-327.66
	2738	0.5478	5.20169E-001	2.25387E-009	0.00000E+000	5.20000E-001	8.00223E-005	4	..........a	-327.66
	2739	0.548	5.30069E-001	2.38388E-009	0.00000E+000	5.30000E-001	8.00223E-005	4	..........a	-327.66
	2740	0.5482	5.40069E-001	2.51688E-009	0.00000E+000	5.40000E-001	8.00223E-005	4	..........a	-327.66
	2741	0.5484	5.50020E-001	2.65189E-009	0.00000E+000	5.50000E-001	8.00223E-005	4	..........a	-327.66
	2742	0.5486	5.60070E-001	2.77989E-009	0.00000E+000	5.60000E-001	8.00223E-005	4	..........a	-327.66
	2743	0.5488	5.70069E-001	2.91490E-009	0.00000E+000	5.70000E-001	8.00223E-005	4	..........a	-327.66
	2744	0.549	5.79969E-001	3.05390E-009	0.00000E+000	5.80000E-001	8.00223E-005	4	..........a	-327.66
	2745	0.5492	5.89869E-001	3.19391E-009	0.00000E+000	5.90000E-001	8.00223E-005	4	..........a	-327.66
	2746	0.5494	5.99970E-001	3.33592E-009	0.00000E+000	6.00000E-001	8.00223E-005	4	..........a	-327.66
	2747	0.5496	6.09869E-001	3.47792E-009	0.00000E+000	6.10000E-001	8.00223E-005	4	..........a	-327.66
	2748	0.5498	6.19869E-001	3.62693E-009	0.00000E+000	6.20000E-001	8.00223E-005	4	..........a	-327.66
	2749	0.55	6.30069E-001	3.77393E-009	0.00000E+000	6.30000E-001	8.00223E-005	4	..........a	-327.66
	2750	0.5502	6.39769E-001	3.92294E-009	0.00000E+000	6.40000E-001	8.00223E-005	4	..........a	-327.66
	2751	0.5504	6.49870E-001	4.07194E-009	0.00000E+000	6.50000E-001	8.00223E-005	4	..........a	-327.66
	2752	0.5506	6.60069E-001	4.23595E-009	0.00000E+000	6.60000E-001	8.00223E-005	4	..........a	-327.66
	2753	0.5508	6.69919E-001	4.38996E-009	0.00000E+000	6.70000E-001	8.00223E-005	4	..........a	-327.66
	2754	0.551	6.79969E-001	4.54996E-009	0.00000E+000	6.80000E-001	8.00223E-005	4	..........a	-327.66
	2755	0.5512	6.89770E-001	4.71597E-009	0.00000E+000	6.90000E-001	8.00223E-005	4	..........a	-327.66
	2756	0.5514	6.99969E-001	4.88097E-009	0.00000E+000	7.00000E-001	8.00223E-005	4	..........a	-327.66
	2757	0.5516	7.09870E-001	5.05298E-009	0.00000E+000	7.10000E-001	8.00223E-005	4	..........a	-327.66
	2758	0.5518	7.19769E-001	5.21999E-009	0.00000E+000	7.20000E-001	8.00223E-005	4	..........a	-327.66
	2759	0.552	7.30020E-001	5.39799E-009	0.00000E+000	7.30000E-001	8.00223E-005	4	..........a	-327.66
	2760	0.5522	7.39869E-001	5.57700E-009	0.00000E+000	7.40000E-001	8.00223E-005	4	..........a	-327.66
	2761	0.5524	7.49969E-001	5.76401E-009	0.00000E+000	7.50000E-001	8.00223E-005	4	..........a	-327.66
	2762	0.5526	7.59669E-001	5.94502E-009	0.00000E+000	7.60000E-001	8.00223E-005	4	..........a	-327.66
	2763	0.5528	7.69769E-001	6.13902E-009	0.00000E+000	7.70000E-001	8.00223E-005	4	..........a	-327.66
	2764	0.553	7.79669E-001	6.33203E-009	0.00000E+000	7.80000E-001	8.00223E-005	4	..........a	-327.66
	2765	0.5532	7.89869E-001	6.52804E-009	0.00000E+000	7.90000E-001	8.00223E-005	4	..........a	-327.66
	2766	0.5534	7.99869E-001	6.73205E-009	0.00000E+000	8.00000E-001	8.00223E-005	4	..........a	-327.66
CURVE11	TABLE
	Pt	T	Vf	Im	Vu	Sig	Ach	IERange	Over	Temp
	#	s	V vs. Ref.	A	V	V	V	#	bits	deg C
	2767	0.5536	7.89869E-001	6.82805E-009	0.00000E+000	7.90000E-001	-3.19978E-004	4	..........a	-327.66
	2768	0.5538	7.79869E-001	6.89005E-009	0.00000E+000	7.80000E-001	8.00223E-005	4	..........a	-327.66
	2769	0.554	7.69870E-001	6.93805E-009	0.00000E+000	7.70000E-001	8.00223E-005	4	..........a	-327.66
	2770	0.5542	7.59769E-001	6.96505E-009	0.00000E+000	7.60000E-001	8.00223E-005	4	..........a	-327.66
	2771	0.5544	7.49969E-001	6.97406E-009	0.00000E+000	7.50000E-001	8.00223E-005	4	..........a	-327.66
	2772	0.5546	7.39969E-001	6.97906E-009	0.00000E+000	7.40000E-001	8.00223E-005	4	..........a	-327.66
	2773	0.5548	7.29869E-001	6.97106E-009	0.00000E+000	7.30000E-001	8.00223E-005	4	..........a	-327.66
	2774	0.555	7.19819E-001	6.95405E-009	0.00000E+000	7.20000E-001	8.00223E-005	4	..........a	-327.66
	2775	0.5552	7.09870E-001	6.93205E-009	0.00000E+000	7.10000E-001	8.00223E-005	4	..........a	-327.66
	2776	0.5554	6.99869E-001	6.90705E-009	0.00000E+000	7.00000E-001	8.00223E-005	4	..........a	-327.66
	2777	0.5556	6.89969E-001	6.87405E-009	0.00000E+000	6.90000E-001	8.00223E-005	4	..........a	-327.66
	2778	0.5558	6.79869E-001	6.83705E-009	0.00000E+000	6.80000E-001	8.00223E-005	4	..........a	-327.66
	2779	0.556	6.69969E-001	6.79405E-009	0.00000E+000	6.70000E-001	8.00223E-005	4	..........a	-327.66
	2780	0.5562	6.59869E-001	6.74605E-009	0.00000E+000	6.60000E-001	8.00223E-005	4	..........a	-327.66
	2781	0.5564	6.49969E-001	6.70204E-009	0.00000E+000	6.50000E-001	8.00223E-005	4	..........a	-327.66
	2782	0.5566	6.39769E-001	6.65204E-009	0.00000E+000	6.40000E-001	-3.19978E-004	4	..........a	-327.66
	2783	0.5568	6.29869E-001	6.59204E-009	0.00000E+000	6.30000E-001	8.00223E-005	4	..........a	-327.66
	2784	0.557	6.19769E-001	6.53804E-009	0.00000E+000	6.20000E-001	8.00223E-005	4	..........a	-327.66
	2785	0.5572	6.09969E-001	6.48404E-009	0.00000E+000	6.10000E-001	8.00223E-005	4	..........a	-327.66
	2786	0.5574	5.99869E-001	6.42103E-009	0.00000E+000	6.00000E-001	8.00223E-005	4	..........a	-327.66
	2787	0.5576	5.89969E-001	6.36203E-009	0.00000E+000	5.90000E-001	8.00223E-005	4	..........a	-327.66
	2788	0.5578	5.80169E-001	6.29703E-009	0.00000E+000	5.80000E-001	8.00223E-005	4	..........a	-327.66
	2789	0.558	5.69969E-001	6.23103E-009	0.00000E+000	5.70000E-001	8.00223E-005	4	..........a	-327.66
	2790	0.5582	5.59869E-001	6.16702E-009	0.00000E+000	5.60000E-001	8.00223E-005	4	..........a	-327.66
	2791	0.5584	5.49969E-001	6.09902E-009	0.00000E+000	5.50000E-001	8.00223E-005	4	..........a	-327.66
	2792	0.5586	5.39769E-001	6.02902E-009	0.00000E+000	5.40000E-001	8.00223E-005	4	..........a	-327.66
	2793	0.5588	5.29970E-001	5.95402E-009	0.00000E+000	5.30000E-001	8.00223E-005	4	..........a	-327.66
	2794	0.559	5.19870E-001	5.88101E-009	0.00000E+000	5.20000E-001	8.00223E-005	4	..........a	-327.66
	2795	0.5592	5.09870E-001	5.81301E-009	0.00000E+000	5.10000E-001	8.00223E-005	4	..........a	-327.66
	2796	0.5594	5.00219E-001	5.73301E-009	0.00000E+000	5.00000E-001	8.00223E-005	4	..........a	-327.66
	2797	0.5596	4.89970E-001	5.65000E-009	0.00000E+000	4.90000E-001	8.00223E-005	4	..........a	-327.66
	2798	0.5598	4.79870E-001	5.58000E-009	0.00000E+000	4.80000E-001	8.00223E-005	4	..........a	-327.66
	2799	0.56	4.69970E-001	5.50200E-009	0.00000E+000	4.70000E-001	8.00223E-005	4	..........a	-327.66
	2800	0.5602	4.60070E-001	5.42200E-009	0.00000E+000	4.60000E-001	8.00223E-005	4	..........a	-327.66