File: example_project/raw_outputs/20240424_ZE_GM0016_HL03_E08_CV50.DTA
EXPLAIN
TAG	CV
TITLE	LABEL	Cyclic Voltammetry	Test &Identifier
DATE	LABEL	4/24/2024	Date
TIME	LABEL	18:29:05	Time
NOTES	NOTES	1	&Notes...

PSTAT	PSTAT	REF600P-43058	Potentiostat
VINIT	POTEN	0.00000E+000	T	Initial &E (V)
VLIMIT1	POTEN	-6.00000E-001	F	Scan Limit &1 (V)
VLIMIT2	POTEN	8.00000E-001	F	Scan Limit &2 (V)
VFINAL	POTEN	0.00000E+000	T	Final &E (V)
SCANRATE	QUANT	4.99999E+001	&Scan Rate (mV/s)
STEPSIZE	QUANT	1.00000E+001	St&ep Size (mV)
CYCLES	IQUANT	4	C&ycles (#)
IMODE	SELECTOR	0	I/E Range &Mode
IRANGE	QUANT	1.00000E-005	&Max Current (mA)
AREA	QUANT	1.00000E+000	Electrode &Area (cm^2)
ELECTRODETYPE	SELECTOR	0	Electrode Type
STRIPPING	TOGGLE	F	Used for Stripping
POLARITY	TOGGLE	F	Signal Polarity
CONDIT	TWOPARAM	F	1.50000E+001	0.00000E+000	Conditionin&g	Time(s)	E(V)
DELAY	TWOPARAM	T	1.00000E+001	0.00000E+000	Init. De&lay	Time(s)	Stab.(mV/s)
EQDELAY	QUANT	1.00000E+001	Equil. &Time (s)
IRCOMP	SELECTOR	0	IRCom&p
PFCOR	QUANT	5.00000E+001	PF Corr. (ohm)
SAMPLINGMODE	SELECTOR	1	Sampling &Mode
OCVCURVE	TABLE	39
	Pt	T	Vf	Vm	Ach	Over	Temp
	#	s	V vs. Ref.	V	V	bits	deg C
	0	0.258333	-8.93286E-002	-8.93286E-002	2.05459E-004	..........a	-327.66
	1	0.516667	-8.93348E-002	-8.96498E-002	2.07326E-004	..........a	-327.66
	2	0.775	-8.93726E-002	-8.99645E-002	2.06926E-004	..........a	-327.66
	3	1.03333	-8.94806E-002	-9.02772E-002	2.00259E-004	..........a	-327.66
	4	1.29167	-8.96761E-002	-9.05805E-002	2.11126E-004	..........a	-327.66
	5	1.55	-8.99403E-002	-9.08907E-002	2.14326E-004	..........a	-327.66
	6	1.80833	-9.02397E-002	-9.11738E-002	2.04392E-004	..........a	-327.66
	7	2.06667	-9.05482E-002	-9.14602E-002	2.05326E-004	..........a	-327.66
	8	2.325	-9.08522E-002	-9.17436E-002	1.97926E-004	..........a	-327.66
	9	2.58333	-9.11478E-002	-9.20193E-002	2.07592E-004	..........a	-327.66
	10	2.84167	-9.14359E-002	-9.23011E-002	2.08259E-004	..........a	-327.66
	11	3.1	-9.17189E-002	-9.25699E-002	2.00992E-004	..........a	-327.66
	12	3.35833	-9.19981E-002	-9.28310E-002	2.04192E-004	..........a	-327.66
	13	3.61667	-9.22733E-002	-9.30984E-002	2.06459E-004	..........a	-327.66
	14	3.875	-9.25443E-002	-9.33613E-002	2.04926E-004	..........a	-327.66
	15	4.13333	-9.28115E-002	-9.36133E-002	2.08659E-004	..........a	-327.66
	16	4.39167	-9.30753E-002	-9.38660E-002	1.94526E-004	..........a	-327.66
	17	4.65	-9.33354E-002	-9.41121E-002	2.06926E-004	..........a	-327.66
	18	4.90833	-9.35914E-002	-9.43606E-002	2.01859E-004	..........a	-327.66
	19	5.16667	-9.38435E-002	-9.46013E-002	2.06392E-004	..........a	-327.66
	20	5.425	-9.40923E-002	-9.48442E-002	2.07592E-004	..........a	-327.66
	21	5.68333	-9.43382E-002	-9.50754E-002	2.14792E-004	..........a	-327.66
	22	5.94167	-9.45811E-002	-9.53088E-002	2.16059E-004	..........a	-327.66
	23	6.2	-9.48203E-002	-9.55364E-002	2.07259E-004	..........a	-327.66
	24	6.45833	-9.50560E-002	-9.57664E-002	2.08726E-004	..........a	-327.66
	25	6.71667	-9.52885E-002	-9.59934E-002	2.07726E-004	..........a	-327.66
	26	6.975	-9.55186E-002	-9.62091E-002	1.99926E-004	..........a	-327.66
	27	7.23333	-9.57462E-002	-9.64311E-002	2.01259E-004	..........a	-327.66
	28	7.49167	-9.59710E-002	-9.66518E-002	2.08392E-004	..........a	-327.66
	29	7.75	-9.61933E-002	-9.68710E-002	2.07992E-004	..........a	-327.66
	30	8.00833	-9.64139E-002	-9.70816E-002	2.05459E-004	..........a	-327.66
	31	8.26667	-9.66330E-002	-9.72937E-002	2.05992E-004	..........a	-327.66
	32	8.525	-9.68499E-002	-9.75051E-002	2.04792E-004	..........a	-327.66
	33	8.78333	-9.70643E-002	-9.77112E-002	2.11926E-004	..........a	-327.66
	34	9.04167	-9.72765E-002	-9.79220E-002	1.99792E-004	..........a	-327.66
	35	9.3	-9.74866E-002	-9.81121E-002	2.14059E-004	..........a	-327.66
	36	9.5583	-9.76942E-002	-9.83206E-002	2.08792E-004	..........a	-327.66
	37	9.8167	-9.78989E-002	-9.85163E-002	1.91592E-004	..........a	-327.66
	38	10.075	-9.81009E-002	-9.87056E-002	1.98592E-004	..........a	-327.66
EOC	QUANT	-0.0981009	Open Circuit (V)
PSTATMODEL	IQUANT	7	Pstat Model
PSTATSECTION	LABEL	REF600P-43058	Pstat Section
PSTATSERIALNO	LABEL	43058	Pstat Serial Number
CTRLMODE	IQUANT	1	Control Mode
ELECTROMETER	IQUANT	0	RE=0 or CS=1
IESTAB	IQUANT	2	I/E Stability
CASPEED	IQUANT	4	Control Amp Speed
CONVENTION	IQUANT	1	Current Convention
ICHRANGE	IQUANT	2	Ich Range
ICHRANGEMODE	TOGGLE	F	Ich Auto Range
ICHOFFSETENABLE	TOGGLE	F	Ich Offset Enable
ICHOFFSET	QUANT	0	Ich Offset (V)
ICHFILTER	IQUANT	2	Ich Filter
VCHRANGE	IQUANT	2	Vch Range
VCHRANGEMODE	TOGGLE	F	Vch Auto Range
VCHOFFSETENABLE	TOGGLE	F	Vch Offset Enable
VCHOFFSET	QUANT	0	Vch Offset (V)
VCHFILTER	IQUANT	2	Vch Filter
ACHRANGE	IQUANT	2	Ach Range
ACHOFFSETENABLE	TOGGLE	F	Ach Offset Enable
ACHOFFSET	QUANT	0	Ach Offset (V)
ACHFILTER	IQUANT	1	Ach Filter
IERANGELOWERLIMIT	IQUANT	1	I/E Range Lower Limit
IERANGEMODE	TOGGLE	T	I/E AutoRange
IERANGE	IQUANT	4	I/E Range
POSFEEDENABLE	TOGGLE	F	Positive Feedback IR Comp
POSFEEDRESISTANCE	QUANT	0	Positive Feedback Resistance (ohm)
ACHSELECT	IQUANT	4	Ach Select
SENSECABLEID	IQUANT	7	Sense Cable ID
PWRCABLEID	IQUANT	7	Power Cable ID
DCCALDATE	LABEL	3/22/2024	DC Calibration Date
ACCALDATE	LABEL	3/22/2024	AC Calibration Date
THERMOSELECT	IQUANT	1	Thermo Select
FRAMEWORKVERSION	LABEL	7.8.4	Framework Version
INSTRUMENTVERSION	LABEL	4.42	Instrument Version
CURVE1	TABLE
	Pt	T	Vf	Im	Vu	Sig	Ach	IERange	Over	Temp
	#	s	V vs. Ref.	A	V	V	V	#	bits	deg C
	0	0.2	-9.80187E-002	9.83003E-010	0.00000E+000	-9.81000E-002	9.70392E-004	5	..........a	-327.66
	1	0.4	-1.08088E-001	-1.09118E-009	0.00000E+000	-1.08100E-001	9.50492E-004	5	..........a	-327.66
	2	0.6	-1.18056E-001	-2.53556E-009	0.00000E+000	-1.18100E-001	9.59492E-004	5	..........a	-327.66
	3	0.8	-1.28098E-001	-3.81714E-009	0.00000E+000	-1.28100E-001	9.62192E-004	5	..........a	-327.66
	4	1	-1.37964E-001	-5.06699E-009	0.00000E+000	-1.38100E-001	9.55092E-004	5	..........a	-327.66
	5	1.2	-1.48073E-001	-6.28930E-009	0.00000E+000	-1.48100E-001	9.55092E-004	5	..........a	-327.66
	6	1.4	-1.58090E-001	-7.46414E-009	0.00000E+000	-1.58100E-001	9.71292E-004	5	..........a	-327.66
	7	1.6	-1.68053E-001	-8.62994E-009	0.00000E+000	-1.68100E-001	9.64092E-004	5	..........a	-327.66
	8	1.8	-1.77979E-001	-9.78753E-009	0.00000E+000	-1.78100E-001	9.66492E-004	5	..........a	-327.66
	9	2	-1.88067E-001	-1.09190E-008	0.00000E+000	-1.88100E-001	9.66092E-004	5	..........a	-327.66
	10	2.2	-1.98044E-001	-1.20222E-008	0.00000E+000	-1.98100E-001	9.71292E-004	5	..........a	-327.66
	11	2.4	-2.07996E-001	-1.31283E-008	0.00000E+000	-2.08100E-001	9.68192E-004	5	..........a	-327.66
	12	2.6	-2.17995E-001	-1.41569E-008	0.00000E+000	-2.18100E-001	9.58692E-004	5	..........a	-327.66
	13	2.8	-2.27998E-001	-1.52260E-008	0.00000E+000	-2.28100E-001	9.50292E-004	5	..........a	-327.66
	14	3	-2.38002E-001	-1.63081E-008	0.00000E+000	-2.38100E-001	9.67892E-004	5	..........a	-327.66
	15	3.2	-2.48025E-001	-1.73771E-008	0.00000E+000	-2.48100E-001	9.56692E-004	5	..........a	-327.66
	16	3.4	-2.57946E-001	-1.84708E-008	0.00000E+000	-2.58100E-001	9.54092E-004	5	..........a	-327.66
	17	3.6	-2.67997E-001	-1.95903E-008	0.00000E+000	-2.68100E-001	9.53292E-004	5	..........a	-327.66
	18	3.8	-2.78021E-001	-2.07393E-008	0.00000E+000	-2.78100E-001	9.55892E-004	5	..........a	-327.66
	19	4	-2.88044E-001	-2.18896E-008	0.00000E+000	-2.88100E-001	9.67192E-004	5	..........a	-327.66
	20	4.2	-2.97963E-001	-2.31009E-008	0.00000E+000	-2.98100E-001	9.57492E-004	5	..........a	-327.66
	21	4.4	-3.08025E-001	-2.43011E-008	0.00000E+000	-3.08100E-001	9.63392E-004	5	..........a	-327.66
	22	4.6	-3.17936E-001	-2.55775E-008	0.00000E+000	-3.18100E-001	9.59592E-004	5	..........a	-327.66
	23	4.8	-3.28016E-001	-2.68633E-008	0.00000E+000	-3.28100E-001	9.47692E-004	5	..........a	-327.66
	24	5	-3.37981E-001	-2.81702E-008	0.00000E+000	-3.38100E-001	9.54292E-004	5	..........a	-327.66
	25	5.2	-3.47983E-001	-2.94856E-008	0.00000E+000	-3.48100E-001	9.55292E-004	5	..........a	-327.66
	26	5.4	-3.58027E-001	-3.08371E-008	0.00000E+000	-3.58100E-001	9.67592E-004	5	..........a	-327.66
	27	5.6	-3.68022E-001	-3.22272E-008	0.00000E+000	-3.68100E-001	9.61492E-004	5	..........a	-327.66
	28	5.8	-3.77969E-001	-3.35310E-008	0.00000E+000	-3.78100E-001	9.62492E-004	5	..........a	-327.66
	29	6	-3.87953E-001	-3.48206E-008	0.00000E+000	-3.88100E-001	9.63192E-004	5	..........a	-327.66
	30	6.2	-3.97977E-001	-3.60935E-008	0.00000E+000	-3.98100E-001	9.52592E-004	5	..........a	-327.66
	31	6.4	-4.08030E-001	-3.73326E-008	0.00000E+000	-4.08100E-001	9.58792E-004	5	..........a	-327.66
	32	6.6	-4.17984E-001	-3.85727E-008	0.00000E+000	-4.18100E-001	9.63192E-004	5	..........a	-327.66
	33	6.8	-4.27924E-001	-3.97152E-008	0.00000E+000	-4.28100E-001	9.61092E-004	5	..........a	-327.66
	34	7	-4.37964E-001	-4.09034E-008	0.00000E+000	-4.38100E-001	9.55392E-004	5	..........a	-327.66
	35	7.2	-4.47953E-001	-4.20353E-008	0.00000E+000	-4.48100E-001	9.48992E-004	5	..........a	-327.66
	36	7.4	-4.57962E-001	-4.30870E-008	0.00000E+000	-4.58100E-001	9.49592E-004	5	..........a	-327.66
	37	7.6	-4.67923E-001	-4.41789E-008	0.00000E+000	-4.68100E-001	9.48892E-004	5	..........a	-327.66
	38	7.8	-4.77920E-001	-4.52120E-008	0.00000E+000	-4.78100E-001	9.64792E-004	5	..........a	-327.66
	39	8	-4.87969E-001	-4.62370E-008	0.00000E+000	-4.88100E-001	9.58092E-004	5	..........a	-327.66
	40	8.2	-4.97929E-001	-4.73166E-008	0.00000E+000	-4.98100E-001	9.58692E-004	5	..........a	-327.66
	41	8.4	-5.07940E-001	-4.83865E-008	0.00000E+000	-5.08100E-001	9.48192E-004	5	..........a	-327.66
	42	8.6	-5.17937E-001	-4.94476E-008	0.00000E+000	-5.18100E-001	9.60092E-004	5	..........a	-327.66
	43	8.8	-5.27937E-001	-5.04965E-008	0.00000E+000	-5.28100E-001	9.50492E-004	5	..........a	-327.66
	44	9	-5.37930E-001	-5.15824E-008	0.00000E+000	-5.38100E-001	9.75392E-004	5	..........a	-327.66
	45	9.2	-5.47955E-001	-5.26704E-008	0.00000E+000	-5.48100E-001	9.51892E-004	5	..........a	-327.66
	46	9.4	-5.57987E-001	-5.37807E-008	0.00000E+000	-5.58100E-001	9.57092E-004	5	..........a	-327.66
	47	9.6	-5.67946E-001	-5.49140E-008	0.00000E+000	-5.68100E-001	9.73292E-004	5	..........a	-327.66
	48	9.8	-5.77911E-001	-5.60327E-008	0.00000E+000	-5.78100E-001	9.54792E-004	5	..........a	-327.66
	49	10	-5.87941E-001	-5.72668E-008	0.00000E+000	-5.88100E-001	9.68692E-004	5	..........a	-327.66
	50	10.2	-5.97975E-001	-5.85168E-008	0.00000E+000	-5.98100E-001	9.70892E-004	5	..........a	-327.66
	51	10.4	-5.87975E-001	-5.07604E-008	0.00000E+000	-5.88100E-001	9.67392E-004	5	..........a	-327.66
	52	10.6	-5.77933E-001	-4.59142E-008	0.00000E+000	-5.78100E-001	9.65292E-004	5	..........a	-327.66
	53	10.8	-5.67982E-001	-4.21707E-008	0.00000E+000	-5.68100E-001	9.70892E-004	5	..........a	-327.66
	54	11	-5.57956E-001	-3.90452E-008	0.00000E+000	-5.58100E-001	9.77892E-004	5	..........a	-327.66
	55	11.2	-5.47955E-001	-3.63596E-008	0.00000E+000	-5.48100E-001	9.50992E-004	5	..........a	-327.66
	56	11.4	-5.37939E-001	-3.39938E-008	0.00000E+000	-5.38100E-001	9.82092E-004	5	..........a	-327.66
	57	11.6	-5.27970E-001	-3.18698E-008	0.00000E+000	-5.28100E-001	9.75292E-004	5	..........a	-327.66
	58	11.8	-5.17946E-001	-2.98936E-008	0.00000E+000	-5.18100E-001	9.82292E-004	5	..........a	-327.66
	59	12	-5.07959E-001	-2.80414E-008	0.00000E+000	-5.08100E-001	9.59192E-004	5	..........a	-327.66
	60	12.2	-4.97897E-001	-2.63110E-008	0.00000E+000	-4.98100E-001	9.66492E-004	5	..........a	-327.66
	61	12.4	-4.87933E-001	-2.46745E-008	0.00000E+000	-4.88100E-001	9.87192E-004	5	..........a	-327.66
	62	12.6	-4.78044E-001	-2.30978E-008	0.00000E+000	-4.78100E-001	9.68492E-004	5	..........a	-327.66
	63	12.8	-4.67962E-001	-2.15981E-008	0.00000E+000	-4.68100E-001	9.50492E-004	5	..........a	-327.66
	64	13	-4.57932E-001	-2.01515E-008	0.00000E+000	-4.58100E-001	9.70292E-004	5	..........a	-327.66
	65	13.2	-4.47942E-001	-1.87827E-008	0.00000E+000	-4.48100E-001	9.62692E-004	5	..........a	-327.66
	66	13.4	-4.37980E-001	-1.74459E-008	0.00000E+000	-4.38100E-001	9.79192E-004	5	..........a	-327.66
	67	13.6	-4.27932E-001	-1.61701E-008	0.00000E+000	-4.28100E-001	9.49892E-004	5	..........a	-327.66
	68	13.8	-4.17893E-001	-1.48999E-008	0.00000E+000	-4.18100E-001	9.73092E-004	5	..........a	-327.66
	69	14	-4.07963E-001	-1.36870E-008	0.00000E+000	-4.08100E-001	9.62892E-004	5	..........a	-327.66
	70	14.2	-3.98026E-001	-1.25137E-008	0.00000E+000	-3.98100E-001	9.55992E-004	5	..........a	-327.66
	71	14.4	-3.88014E-001	-1.13568E-008	0.00000E+000	-3.88100E-001	9.49292E-004	5	..........a	-327.66
	72	14.6	-3.77958E-001	-1.02414E-008	0.00000E+000	-3.78100E-001	9.58592E-004	5	..........a	-327.66
	73	14.8	-3.68021E-001	-9.13978E-009	0.00000E+000	-3.68100E-001	9.56392E-004	5	..........a	-327.66
	74	15	-3.57981E-001	-8.06287E-009	0.00000E+000	-3.58100E-001	9.75492E-004	5	..........a	-327.66
	75	15.2	-3.48010E-001	-6.98953E-009	0.00000E+000	-3.48100E-001	9.61492E-004	5	..........a	-327.66
	76	15.4	-3.37961E-001	-5.94433E-009	0.00000E+000	-3.38100E-001	9.65592E-004	5	..........a	-327.66
	77	15.6	-3.28027E-001	-4.92967E-009	0.00000E+000	-3.28100E-001	9.68092E-004	5	..........a	-327.66
	78	15.8	-3.17901E-001	-3.94431E-009	0.00000E+000	-3.18100E-001	9.61992E-004	5	..........a	-327.66
	79	16	-3.08022E-001	-2.97386E-009	0.00000E+000	-3.08100E-001	9.53992E-004	5	..........a	-327.66
	80	16.2	-2.97998E-001	-2.01546E-009	0.00000E+000	-2.98100E-001	9.71392E-004	5	..........a	-327.66
	81	16.4	-2.88058E-001	-1.07078E-009	0.00000E+000	-2.88100E-001	9.56792E-004	5	..........a	-327.66
	82	16.6	-2.78137E-001	-1.88041E-010	0.00000E+000	-2.78100E-001	9.54192E-004	5	..........a	-327.66
	83	16.8	-2.67971E-001	7.61055E-010	0.00000E+000	-2.68100E-001	9.63892E-004	5	..........a	-327.66
	84	17	-2.57945E-001	1.67838E-009	0.00000E+000	-2.58100E-001	9.75692E-004	5	..........a	-327.66
	85	17.2	-2.48062E-001	2.53180E-009	0.00000E+000	-2.48100E-001	9.74592E-004	5	..........a	-327.66
	86	17.4	-2.38028E-001	3.40415E-009	0.00000E+000	-2.38100E-001	9.73892E-004	5	..........a	-327.66
	87	17.6	-2.28017E-001	4.25606E-009	0.00000E+000	-2.28100E-001	9.65792E-004	5	..........a	-327.66
	88	17.8	-2.18000E-001	5.07108E-009	0.00000E+000	-2.18100E-001	9.62092E-004	5	..........a	-327.66
	89	18	-2.08049E-001	5.87849E-009	0.00000E+000	-2.08100E-001	9.53892E-004	5	..........a	-327.66
	90	18.2	-1.98069E-001	6.67622E-009	0.00000E+000	-1.98100E-001	9.72692E-004	5	..........a	-327.66
	91	18.4	-1.88041E-001	7.50070E-009	0.00000E+000	-1.88100E-001	9.64692E-004	5	..........a	-327.66
	92	18.6	-1.78009E-001	8.27008E-009	0.00000E+000	-1.78100E-001	9.75192E-004	5	..........a	-327.66
	93	18.8	-1.68076E-001	9.07638E-009	0.00000E+000	-1.68100E-001	9.47892E-004	5	..........a	-327.66
	94	19	-1.58030E-001	9.84122E-009	0.00000E+000	-1.58100E-001	9.75092E-004	5	..........a	-327.66
	95	19.2	-1.48085E-001	1.06201E-008	0.00000E+000	-1.48100E-001	9.56492E-004	5	..........a	-327.66
	96	19.4	-1.37955E-001	1.14080E-008	0.00000E+000	-1.38100E-001	9.72392E-004	5	..........a	-327.66
	97	19.6	-1.28125E-001	1.21603E-008	0.00000E+000	-1.28100E-001	9.70992E-004	5	..........a	-327.66
	98	19.8	-1.18149E-001	1.29282E-008	0.00000E+000	-1.18100E-001	9.50192E-004	5	..........a	-327.66
	99	20	-1.08102E-001	1.37022E-008	0.00000E+000	-1.08100E-001	9.53692E-004	5	..........a	-327.66
	100	20.2	-9.80143E-002	1.44796E-008	0.00000E+000	-9.81000E-002	9.75292E-004	5	..........a	-327.66
	101	20.4	-8.80996E-002	1.52619E-008	0.00000E+000	-8.81000E-002	9.49192E-004	5	..........a	-327.66
	102	20.6	-7.80640E-002	1.60551E-008	0.00000E+000	-7.81000E-002	9.65792E-004	5	..........a	-327.66
	103	20.8	-6.80867E-002	1.69228E-008	0.00000E+000	-6.81000E-002	9.47192E-004	5	..........a	-327.66
	104	21	-5.80355E-002	1.77077E-008	0.00000E+000	-5.81000E-002	9.73892E-004	5	..........a	-327.66
	105	21.2	-4.81124E-002	1.85728E-008	0.00000E+000	-4.81000E-002	9.80292E-004	5	..........a	-327.66
	106	21.4	-3.80364E-002	1.94599E-008	0.00000E+000	-3.81000E-002	9.67092E-004	5	..........a	-327.66
	107	21.6	-2.80925E-002	2.03781E-008	0.00000E+000	-2.81000E-002	9.63092E-004	5	..........a	-327.66
	108	21.8	-1.80185E-002	2.13371E-008	0.00000E+000	-1.81000E-002	9.65892E-004	5	..........a	-327.66
	109	22	-8.04026E-003	2.22994E-008	0.00000E+000	-8.10000E-003	9.75492E-004	5	..........a	-327.66
	110	22.2	1.89249E-003	2.32301E-008	0.00000E+000	1.90000E-003	9.53992E-004	5	..........a	-327.66
	111	22.4	1.19540E-002	2.42316E-008	0.00000E+000	1.19000E-002	9.67992E-004	5	..........a	-327.66
	112	22.6	2.19768E-002	2.52073E-008	0.00000E+000	2.19000E-002	9.78492E-004	5	..........a	-327.66
	113	22.8	3.19327E-002	2.62089E-008	0.00000E+000	3.19000E-002	9.68492E-004	5	..........a	-327.66
	114	23	4.19668E-002	2.72303E-008	0.00000E+000	4.19000E-002	9.66792E-004	5	..........a	-327.66
	115	23.2	5.19002E-002	2.82564E-008	0.00000E+000	5.19000E-002	9.56392E-004	5	..........a	-327.66
	116	23.4	6.19854E-002	2.93162E-008	0.00000E+000	6.19000E-002	9.59892E-004	5	..........a	-327.66
	117	23.6	7.19144E-002	3.03696E-008	0.00000E+000	7.19000E-002	9.70292E-004	5	..........a	-327.66
	118	23.8	8.19476E-002	3.14731E-008	0.00000E+000	8.19000E-002	9.59192E-004	5	..........a	-327.66
	119	24	9.16088E-002	3.25917E-008	0.00000E+000	9.19000E-002	9.56092E-004	5	..........a	-327.66
	120	24.2	1.01943E-001	3.37729E-008	0.00000E+000	1.01900E-001	9.66092E-004	5	..........a	-327.66
	121	24.4	1.11938E-001	3.50234E-008	0.00000E+000	1.11900E-001	9.53892E-004	5	..........a	-327.66
	122	24.6	1.21948E-001	3.64009E-008	0.00000E+000	1.21900E-001	9.65992E-004	5	..........a	-327.66
	123	24.8	1.31922E-001	3.92164E-008	0.00000E+000	1.31900E-001	9.70492E-004	5	..........a	-327.66
	124	25	1.41979E-001	4.81213E-008	0.00000E+000	1.41900E-001	9.77192E-004	5	..........a	-327.66
	125	25.2	1.51907E-001	5.86647E-008	0.00000E+000	1.51900E-001	9.59992E-004	5	..........a	-327.66
	126	25.4	1.61929E-001	5.05572E-008	0.00000E+000	1.61900E-001	9.61392E-004	5	..........a	-327.66
	127	25.6	1.71929E-001	4.71913E-008	0.00000E+000	1.71900E-001	9.52292E-004	5	..........a	-327.66
	128	25.8	1.81981E-001	4.67884E-008	0.00000E+000	1.81900E-001	9.73492E-004	5	..........a	-327.66
	129	26	1.91907E-001	4.75133E-008	0.00000E+000	1.91900E-001	9.70492E-004	5	..........a	-327.66
	130	26.2	2.01877E-001	4.86347E-008	0.00000E+000	2.01900E-001	9.81092E-004	5	..........a	-327.66
	131	26.4	2.11905E-001	5.00138E-008	0.00000E+000	2.11900E-001	9.57992E-004	5	..........a	-327.66
	132	26.6	2.21938E-001	5.14855E-008	0.00000E+000	2.21900E-001	9.77392E-004	5	..........a	-327.66
	133	26.8	2.31899E-001	5.31286E-008	0.00000E+000	2.31900E-001	9.77292E-004	5	..........a	-327.66
	134	27	2.41895E-001	5.47816E-008	0.00000E+000	2.41900E-001	9.60992E-004	5	..........a	-327.66
	135	27.2	2.51876E-001	5.64731E-008	0.00000E+000	2.51900E-001	9.48292E-004	5	..........a	-327.66
	136	27.4	2.61947E-001	5.82323E-008	0.00000E+000	2.61900E-001	9.70192E-004	5	..........a	-327.66
	137	27.6	2.71856E-001	5.99616E-008	0.00000E+000	2.71900E-001	9.61692E-004	5	..........a	-327.66
	138	27.8	2.81855E-001	6.16967E-008	0.00000E+000	2.81900E-001	9.70792E-004	5	..........a	-327.66
	139	28	2.91883E-001	6.35066E-008	0.00000E+000	2.91900E-001	9.61192E-004	5	..........a	-327.66
	140	28.2	3.01962E-001	6.53323E-008	0.00000E+000	3.01900E-001	9.71892E-004	5	..........a	-327.66
	141	28.4	3.11879E-001	6.72187E-008	0.00000E+000	3.11900E-001	9.75892E-004	5	..........a	-327.66
	142	28.6	3.21833E-001	6.92267E-008	0.00000E+000	3.21900E-001	9.57992E-004	5	..........a	-327.66
	143	28.8	3.31895E-001	7.13666E-008	0.00000E+000	3.31900E-001	9.48292E-004	5	..........a	-327.66
	144	29	3.41950E-001	7.36399E-008	0.00000E+000	3.41900E-001	9.65292E-004	5	..........a	-327.66
	145	29.2	3.51887E-001	7.60726E-008	0.00000E+000	3.51900E-001	9.67492E-004	5	..........a	-327.66
	146	29.4	3.61876E-001	7.86483E-008	0.00000E+000	3.61900E-001	9.66292E-004	5	..........a	-327.66
	147	29.6	3.71866E-001	8.13472E-008	0.00000E+000	3.71900E-001	9.65492E-004	5	..........a	-327.66
	148	29.8	3.81932E-001	8.42655E-008	0.00000E+000	3.81900E-001	9.54192E-004	5	..........a	-327.66
	149	30	3.91872E-001	8.72953E-008	0.00000E+000	3.91900E-001	9.51892E-004	5	..........a	-327.66
	150	30.2	4.01860E-001	9.03903E-008	0.00000E+000	4.01900E-001	9.67192E-004	5	..........a	-327.66
	151	30.4	4.11854E-001	9.36142E-008	0.00000E+000	4.11900E-001	9.48192E-004	5	..........a	-327.66
	152	30.6	4.21879E-001	9.68681E-008	0.00000E+000	4.21900E-001	9.49192E-004	5	..........a	-327.66
	153	30.8	4.31830E-001	1.00157E-007	0.00000E+000	4.31900E-001	9.70292E-004	5	..........a	-327.66
	154	31	4.41815E-001	1.03480E-007	0.00000E+000	4.41900E-001	9.61892E-004	5	..........a	-327.66
	155	31.2	4.51844E-001	1.06832E-007	0.00000E+000	4.51900E-001	9.48492E-004	5	..........a	-327.66
	156	31.4	4.61913E-001	1.10154E-007	0.00000E+000	4.61900E-001	9.44592E-004	5	..........a	-327.66
	157	31.6	4.71823E-001	1.13476E-007	0.00000E+000	4.71900E-001	9.50692E-004	5	..........a	-327.66
	158	31.8	4.81839E-001	1.16800E-007	0.00000E+000	4.81900E-001	9.80892E-004	5	..........a	-327.66
	159	32	4.91830E-001	1.20151E-007	0.00000E+000	4.91900E-001	9.43892E-004	5	..........a	-327.66
	160	32.2	5.01901E-001	1.23423E-007	0.00000E+000	5.01900E-001	9.56992E-004	5	..........a	-327.66
	161	32.4	5.11787E-001	1.26700E-007	0.00000E+000	5.11900E-001	9.60392E-004	5	..........a	-327.66
	162	32.6	5.21812E-001	1.29924E-007	0.00000E+000	5.21900E-001	9.47192E-004	5	..........a	-327.66
	163	32.8	5.31820E-001	1.33060E-007	0.00000E+000	5.31900E-001	9.62592E-004	5	..........a	-327.66
	164	33	5.41895E-001	1.36135E-007	0.00000E+000	5.41900E-001	9.55292E-004	5	..........a	-327.66
	165	33.2	5.51808E-001	1.39134E-007	0.00000E+000	5.51900E-001	9.55492E-004	5	..........a	-327.66
	166	33.4	5.61820E-001	1.42098E-007	0.00000E+000	5.61900E-001	9.71192E-004	5	..........a	-327.66
	167	33.6	5.71812E-001	1.45009E-007	0.00000E+000	5.71900E-001	9.72392E-004	5	..........a	-327.66
	168	33.8	5.81921E-001	1.47861E-007	0.00000E+000	5.81900E-001	9.52592E-004	5	..........a	-327.66
	169	34	5.91797E-001	1.50614E-007	0.00000E+000	5.91900E-001	9.54992E-004	5	..........a	-327.66
	170	34.2	6.01826E-001	1.53372E-007	0.00000E+000	6.01900E-001	9.58692E-004	5	..........a	-327.66
	171	34.4	6.11808E-001	1.56107E-007	0.00000E+000	6.11900E-001	9.64492E-004	5	..........a	-327.66
	172	34.6	6.21824E-001	1.58823E-007	0.00000E+000	6.21900E-001	9.55592E-004	5	..........a	-327.66
	173	34.8	6.31742E-001	1.61551E-007	0.00000E+000	6.31900E-001	9.71492E-004	5	..........a	-327.66
	174	35	6.41753E-001	1.64272E-007	0.00000E+000	6.41900E-001	9.66792E-004	5	..........a	-327.66
	175	35.2	6.51768E-001	1.66997E-007	0.00000E+000	6.51900E-001	9.52192E-004	5	..........a	-327.66
	176	35.4	6.61883E-001	1.69750E-007	0.00000E+000	6.61900E-001	9.47192E-004	5	..........a	-327.66
	177	35.6	6.71749E-001	1.72551E-007	0.00000E+000	6.71900E-001	9.56092E-004	5	..........a	-327.66
	178	35.8	6.81769E-001	1.75442E-007	0.00000E+000	6.81900E-001	9.57492E-004	5	..........a	-327.66
	179	36	6.91721E-001	1.78396E-007	0.00000E+000	6.91900E-001	9.51592E-004	5	..........a	-327.66
	180	36.2	7.01796E-001	1.81518E-007	0.00000E+000	7.01900E-001	9.40892E-004	5	..........a	-327.66
	181	36.4	7.11757E-001	1.84751E-007	0.00000E+000	7.11900E-001	9.48892E-004	5	..........a	-327.66
	182	36.6	7.21730E-001	1.88186E-007	0.00000E+000	7.21900E-001	9.67792E-004	5	..........a	-327.66
	183	36.8	7.31623E-001	1.91805E-007	0.00000E+000	7.31900E-001	9.51992E-004	5	..........a	-327.66
	184	37	7.41850E-001	1.95693E-007	0.00000E+000	7.41900E-001	9.51292E-004	5	..........a	-327.66
	185	37.2	7.51775E-001	1.99949E-007	0.00000E+000	7.51900E-001	9.62092E-004	5	..........a	-327.66
	186	37.4	7.61759E-001	2.04654E-007	0.00000E+000	7.61900E-001	9.59092E-004	5	..........a	-327.66
	187	37.6	7.71749E-001	2.09912E-007	0.00000E+000	7.71900E-001	9.64092E-004	5	..........a	-327.66
	188	37.8	7.81835E-001	2.15499E-007	0.00000E+000	7.81900E-001	9.45592E-004	5	..........a	-327.66
	189	38	7.91737E-001	2.21273E-007	0.00000E+000	7.91900E-001	9.65192E-004	5	..........a	-327.66
	190	38.2	8.01745E-001	2.27155E-007	0.00000E+000	8.01900E-001	9.59892E-004	5	..........a	-327.66
CURVE2	TABLE
	Pt	T	Vf	Im	Vu	Sig	Ach	IERange	Over	Temp
	#	s	V vs. Ref.	A	V	V	V	#	bits	deg C
	191	38.4	7.89948E-001	1.79019E-007	0.00000E+000	7.90000E-001	9.66392E-004	5	..........a	-327.66
	192	38.6	7.79846E-001	1.51722E-007	0.00000E+000	7.80000E-001	9.66892E-004	5	..........a	-327.66
	193	38.8	7.69827E-001	1.31795E-007	0.00000E+000	7.70000E-001	9.65492E-004	5	..........a	-327.66
	194	39	7.59883E-001	1.16500E-007	0.00000E+000	7.60000E-001	9.65292E-004	5	..........a	-327.66
	195	39.2	7.49962E-001	1.04417E-007	0.00000E+000	7.50000E-001	9.49592E-004	5	..........a	-327.66
	196	39.4	7.39915E-001	9.46615E-008	0.00000E+000	7.40000E-001	9.56792E-004	5	..........a	-327.66
	197	39.6	7.29902E-001	8.65715E-008	0.00000E+000	7.30000E-001	9.73792E-004	5	..........a	-327.66
	198	39.8	7.19892E-001	7.97374E-008	0.00000E+000	7.20000E-001	9.64992E-004	5	..........a	-327.66
	199	40	7.09967E-001	7.39028E-008	0.00000E+000	7.10000E-001	9.74792E-004	5	..........a	-327.66
	200	40.2	6.99921E-001	6.88121E-008	0.00000E+000	7.00000E-001	9.47992E-004	5	..........a	-327.66
	201	40.4	6.89856E-001	6.43279E-008	0.00000E+000	6.90000E-001	9.72592E-004	5	..........a	-327.66
	202	40.6	6.79964E-001	6.02826E-008	0.00000E+000	6.80000E-001	9.59692E-004	5	..........a	-327.66
	203	40.8	6.69973E-001	5.66352E-008	0.00000E+000	6.70000E-001	9.68992E-004	5	..........a	-327.66
	204	41	6.59943E-001	5.32724E-008	0.00000E+000	6.60000E-001	9.80392E-004	5	..........a	-327.66
	205	41.2	6.49923E-001	5.01952E-008	0.00000E+000	6.50000E-001	9.66492E-004	5	..........a	-327.66
	206	41.4	6.39884E-001	4.73156E-008	0.00000E+000	6.40000E-001	9.68392E-004	5	..........a	-327.66
	207	41.6	6.30009E-001	4.46339E-008	0.00000E+000	6.30000E-001	9.78892E-004	5	..........a	-327.66
	208	41.8	6.19934E-001	4.20814E-008	0.00000E+000	6.20000E-001	9.71492E-004	5	..........a	-327.66
	209	42	6.09963E-001	3.96715E-008	0.00000E+000	6.10000E-001	9.63092E-004	5	..........a	-327.66
	210	42.2	5.99973E-001	3.74257E-008	0.00000E+000	6.00000E-001	9.51792E-004	5	..........a	-327.66
	211	42.4	5.90018E-001	3.52931E-008	0.00000E+000	5.90000E-001	9.70292E-004	5	..........a	-327.66
	212	42.6	5.79998E-001	3.33218E-008	0.00000E+000	5.80000E-001	9.56492E-004	5	..........a	-327.66
	213	42.8	5.69955E-001	3.14350E-008	0.00000E+000	5.70000E-001	9.70192E-004	5	..........a	-327.66
	214	43	5.59945E-001	2.96777E-008	0.00000E+000	5.60000E-001	9.79192E-004	5	..........a	-327.66
	215	43.2	5.50019E-001	2.79227E-008	0.00000E+000	5.50000E-001	9.71092E-004	5	..........a	-327.66
	216	43.4	5.39985E-001	2.61753E-008	0.00000E+000	5.40000E-001	9.52292E-004	5	..........a	-327.66
	217	43.6	5.29967E-001	2.45003E-008	0.00000E+000	5.30000E-001	9.64792E-004	5	..........a	-327.66
	218	43.8	5.19957E-001	2.28523E-008	0.00000E+000	5.20000E-001	9.74592E-004	5	..........a	-327.66
	219	44	5.09968E-001	2.12929E-008	0.00000E+000	5.10000E-001	9.87592E-004	5	..........a	-327.66
	220	44.2	5.00013E-001	1.98151E-008	0.00000E+000	5.00000E-001	9.66892E-004	5	..........a	-327.66
	221	44.4	4.89919E-001	1.84657E-008	0.00000E+000	4.90000E-001	9.62292E-004	5	..........a	-327.66
	222	44.6	4.79925E-001	1.71449E-008	0.00000E+000	4.80000E-001	9.68092E-004	5	..........a	-327.66
	223	44.8	4.70024E-001	1.57523E-008	0.00000E+000	4.70000E-001	9.74992E-004	5	..........a	-327.66
	224	45	4.59990E-001	1.43607E-008	0.00000E+000	4.60000E-001	9.65992E-004	5	..........a	-327.66
	225	45.2	4.49900E-001	1.28710E-008	0.00000E+000	4.50000E-001	9.67292E-004	5	..........a	-327.66
	226	45.4	4.39950E-001	1.13951E-008	0.00000E+000	4.40000E-001	9.81892E-004	5	..........a	-327.66
	227	45.6	4.29990E-001	9.88694E-009	0.00000E+000	4.30000E-001	9.72992E-004	5	..........a	-327.66
	228	45.8	4.19987E-001	8.34652E-009	0.00000E+000	4.20000E-001	9.49492E-004	5	..........a	-327.66
	229	46	4.09971E-001	6.72274E-009	0.00000E+000	4.10000E-001	9.68692E-004	5	..........a	-327.66
	230	46.2	3.99973E-001	5.11553E-009	0.00000E+000	4.00000E-001	9.54392E-004	5	..........a	-327.66
	231	46.4	3.89998E-001	3.42967E-009	0.00000E+000	3.90000E-001	9.78392E-004	5	..........a	-327.66
	232	46.6	3.80050E-001	1.71570E-009	0.00000E+000	3.80000E-001	9.54492E-004	5	..........a	-327.66
	233	46.8	3.70025E-001	-1.10608E-010	0.00000E+000	3.70000E-001	9.62292E-004	5	..........a	-327.66
	234	47	3.59993E-001	-1.99049E-009	0.00000E+000	3.60000E-001	9.81392E-004	5	..........a	-327.66
	235	47.2	3.50087E-001	-3.85211E-009	0.00000E+000	3.50000E-001	9.56592E-004	5	..........a	-327.66
	236	47.4	3.40082E-001	-5.84937E-009	0.00000E+000	3.40000E-001	9.69792E-004	5	..........a	-327.66
	237	47.6	3.30037E-001	-7.83005E-009	0.00000E+000	3.30000E-001	9.60192E-004	5	..........a	-327.66
	238	47.8	3.20050E-001	-9.97262E-009	0.00000E+000	3.20000E-001	9.64092E-004	5	..........a	-327.66
	239	48	3.10037E-001	-1.22296E-008	0.00000E+000	3.10000E-001	9.65792E-004	5	..........a	-327.66
	240	48.2	3.00061E-001	-1.45514E-008	0.00000E+000	3.00000E-001	9.54192E-004	5	..........a	-327.66
	241	48.4	2.90028E-001	-1.70283E-008	0.00000E+000	2.90000E-001	9.71792E-004	5	..........a	-327.66
	242	48.6	2.79992E-001	-1.96002E-008	0.00000E+000	2.80000E-001	9.62992E-004	5	..........a	-327.66
	243	48.8	2.70074E-001	-2.23763E-008	0.00000E+000	2.70000E-001	9.53792E-004	5	..........a	-327.66
	244	49	2.60071E-001	-2.52604E-008	0.00000E+000	2.60000E-001	9.53392E-004	5	..........a	-327.66
	245	49.2	2.50014E-001	-2.82259E-008	0.00000E+000	2.50000E-001	9.73792E-004	5	..........a	-327.66
	246	49.4	2.40053E-001	-3.13491E-008	0.00000E+000	2.40000E-001	9.70892E-004	5	..........a	-327.66
	247	49.6	2.30041E-001	-3.44101E-008	0.00000E+000	2.30000E-001	9.79392E-004	5	..........a	-327.66
	248	49.8	2.20105E-001	-3.75225E-008	0.00000E+000	2.20000E-001	9.56792E-004	5	..........a	-327.66
	249	50	2.10039E-001	-4.05631E-008	0.00000E+000	2.10000E-001	9.69892E-004	5	..........a	-327.66
	250	50.2	2.00072E-001	-4.33462E-008	0.00000E+000	2.00000E-001	9.66192E-004	5	..........a	-327.66
	251	50.4	1.90124E-001	-4.57030E-008	0.00000E+000	1.90000E-001	9.67292E-004	5	..........a	-327.66
	252	50.6	1.80131E-001	-4.76050E-008	0.00000E+000	1.80000E-001	9.54792E-004	5	..........a	-327.66
	253	50.8	1.70104E-001	-4.88723E-008	0.00000E+000	1.70000E-001	9.62992E-004	5	..........a	-327.66
	254	51	1.60071E-001	-4.94004E-008	0.00000E+000	1.60000E-001	9.78392E-004	5	..........a	-327.66
	255	51.2	1.50095E-001	-4.91786E-008	0.00000E+000	1.50000E-001	9.77692E-004	5	..........a	-327.66
	256	51.4	1.40133E-001	-4.82278E-008	0.00000E+000	1.40000E-001	9.42292E-004	5	..........a	-327.66
	257	51.6	1.30092E-001	-4.66162E-008	0.00000E+000	1.30000E-001	9.65692E-004	5	..........a	-327.66
	258	51.8	1.20106E-001	-4.44970E-008	0.00000E+000	1.20000E-001	9.66092E-004	5	..........a	-327.66
	259	52	1.10103E-001	-4.20291E-008	0.00000E+000	1.10000E-001	9.74692E-004	5	..........a	-327.66
	260	52.2	1.00123E-001	-3.92989E-008	0.00000E+000	1.00000E-001	9.62092E-004	5	..........a	-327.66
	261	52.4	9.01202E-002	-3.64641E-008	0.00000E+000	9.00000E-002	9.54392E-004	5	..........a	-327.66
	262	52.6	8.00319E-002	-3.37094E-008	0.00000E+000	8.00000E-002	9.62592E-004	5	..........a	-327.66
	263	52.8	7.00521E-002	-3.13460E-008	0.00000E+000	7.00000E-002	9.61292E-004	5	..........a	-327.66
	264	53	6.01269E-002	-2.95456E-008	0.00000E+000	6.00000E-002	9.59592E-004	5	..........a	-327.66
	265	53.2	5.00582E-002	-2.81976E-008	0.00000E+000	5.00000E-002	9.65292E-004	5	..........a	-327.66
	266	53.4	4.00777E-002	-2.71494E-008	0.00000E+000	4.00000E-002	9.55392E-004	5	..........a	-327.66
	267	53.6	3.00726E-002	-2.64389E-008	0.00000E+000	3.00000E-002	9.63792E-004	5	..........a	-327.66
	268	53.8	2.01654E-002	-2.59224E-008	0.00000E+000	2.00000E-002	9.68492E-004	5	..........a	-327.66
	269	54	1.01144E-002	-2.56280E-008	0.00000E+000	1.00000E-002	9.59892E-004	5	..........a	-327.66
	270	54.2	4.54917E-005	-2.55960E-008	0.00000E+000	7.45058E-009	9.57292E-004	5	..........a	-327.66
	271	54.4	-9.87091E-003	-2.56622E-008	0.00000E+000	-1.00000E-002	9.65392E-004	5	..........a	-327.66
	272	54.6	-1.99043E-002	-2.60947E-008	0.00000E+000	-2.00000E-002	9.52292E-004	5	..........a	-327.66
	273	54.8	-2.99196E-002	-2.59548E-008	0.00000E+000	-3.00000E-002	9.60392E-004	5	..........a	-327.66
	274	55	-3.99048E-002	-2.58414E-008	0.00000E+000	-4.00000E-002	9.44392E-004	5	..........a	-327.66
	275	55.2	-4.99016E-002	-2.61548E-008	0.00000E+000	-5.00000E-002	9.48892E-004	5	..........a	-327.66
	276	55.4	-5.98718E-002	-2.64208E-008	0.00000E+000	-6.00000E-002	9.46792E-004	5	..........a	-327.66
	277	55.6	-6.99135E-002	-2.67653E-008	0.00000E+000	-7.00000E-002	9.63592E-004	5	..........a	-327.66
	278	55.8	-7.99635E-002	-2.71895E-008	0.00000E+000	-8.00000E-002	9.62192E-004	5	..........a	-327.66
	279	56	-8.98970E-002	-2.77366E-008	0.00000E+000	-9.00000E-002	9.51792E-004	5	..........a	-327.66
	280	56.2	-9.99021E-002	-2.82567E-008	0.00000E+000	-1.00000E-001	9.56392E-004	5	..........a	-327.66
	281	56.4	-1.09924E-001	-2.89722E-008	0.00000E+000	-1.10000E-001	9.57692E-004	5	..........a	-327.66
	282	56.6	-1.19910E-001	-2.96479E-008	0.00000E+000	-1.20000E-001	9.50792E-004	5	..........a	-327.66
	283	56.8	-1.29919E-001	-3.03868E-008	0.00000E+000	-1.30000E-001	9.64592E-004	5	..........a	-327.66
	284	57	-1.39927E-001	-3.13926E-008	0.00000E+000	-1.40000E-001	9.48692E-004	5	..........a	-327.66
	285	57.2	-1.49943E-001	-3.18484E-008	0.00000E+000	-1.50000E-001	9.80092E-004	5	..........a	-327.66
	286	57.4	-1.59990E-001	-3.27209E-008	0.00000E+000	-1.60000E-001	9.71192E-004	5	..........a	-327.66
	287	57.6	-1.69899E-001	-3.38095E-008	0.00000E+000	-1.70000E-001	9.55192E-004	5	..........a	-327.66
	288	57.8	-1.79894E-001	-3.44245E-008	0.00000E+000	-1.80000E-001	9.53792E-004	5	..........a	-327.66
	289	58	-1.89991E-001	-3.55960E-008	0.00000E+000	-1.90000E-001	9.51192E-004	5	..........a	-327.66
	290	58.2	-1.99946E-001	-3.68106E-008	0.00000E+000	-2.00000E-001	9.46292E-004	5	..........a	-327.66
	291	58.4	-2.09906E-001	-3.80385E-008	0.00000E+000	-2.10000E-001	9.59792E-004	5	..........a	-327.66
	292	58.6	-2.19854E-001	-3.91318E-008	0.00000E+000	-2.20000E-001	9.48192E-004	5	..........a	-327.66
	293	58.8	-2.29913E-001	-4.01210E-008	0.00000E+000	-2.30000E-001	9.57492E-004	5	..........a	-327.66
	294	59	-2.39885E-001	-4.15623E-008	0.00000E+000	-2.40000E-001	9.58992E-004	5	..........a	-327.66
	295	59.2	-2.49886E-001	-4.28770E-008	0.00000E+000	-2.50000E-001	9.59792E-004	5	..........a	-327.66
	296	59.4	-2.59822E-001	-4.39439E-008	0.00000E+000	-2.60000E-001	9.40392E-004	5	..........a	-327.66
	297	59.6	-2.69858E-001	-4.53617E-008	0.00000E+000	-2.70000E-001	9.36892E-004	5	..........a	-327.66
	298	59.8	-2.79866E-001	-4.63649E-008	0.00000E+000	-2.80000E-001	9.64692E-004	5	..........a	-327.66
	299	60	-2.89900E-001	-4.77539E-008	0.00000E+000	-2.90000E-001	9.65392E-004	5	..........a	-327.66
	300	60.2	-2.99852E-001	-4.89064E-008	0.00000E+000	-3.00000E-001	9.50092E-004	5	..........a	-327.66
	301	60.4	-3.09878E-001	-5.02438E-008	0.00000E+000	-3.10000E-001	9.73792E-004	5	..........a	-327.66
	302	60.6	-3.19854E-001	-5.13336E-008	0.00000E+000	-3.20000E-001	9.55192E-004	5	..........a	-327.66
	303	60.8	-3.29889E-001	-5.23517E-008	0.00000E+000	-3.30000E-001	9.63192E-004	5	..........a	-327.66
	304	61	-3.39808E-001	-5.37370E-008	0.00000E+000	-3.40000E-001	9.59492E-004	5	..........a	-327.66
	305	61.2	-3.49856E-001	-5.46553E-008	0.00000E+000	-3.50000E-001	9.55192E-004	5	..........a	-327.66
	306	61.4	-3.59876E-001	-5.57487E-008	0.00000E+000	-3.60000E-001	9.72092E-004	5	..........a	-327.66
	307	61.6	-3.69851E-001	-5.68434E-008	0.00000E+000	-3.70000E-001	9.45292E-004	5	..........a	-327.66
	308	61.8	-3.79835E-001	-5.78271E-008	0.00000E+000	-3.80000E-001	9.60792E-004	5	..........a	-327.66
	309	62	-3.89932E-001	-5.86629E-008	0.00000E+000	-3.90000E-001	9.72992E-004	5	..........a	-327.66
	310	62.2	-3.99859E-001	-5.95729E-008	0.00000E+000	-4.00000E-001	9.60392E-004	5	..........a	-327.66
	311	62.4	-4.09860E-001	-6.04995E-008	0.00000E+000	-4.10000E-001	9.65592E-004	5	..........a	-327.66
	312	62.6	-4.19814E-001	-6.20850E-008	0.00000E+000	-4.20000E-001	9.44292E-004	5	..........a	-327.66
	313	62.8	-4.29852E-001	-6.24211E-008	0.00000E+000	-4.30000E-001	9.67892E-004	5	..........a	-327.66
	314	63	-4.39863E-001	-6.35328E-008	0.00000E+000	-4.40000E-001	9.63292E-004	5	..........a	-327.66
	315	63.2	-4.49840E-001	-6.47028E-008	0.00000E+000	-4.50000E-001	9.65592E-004	5	..........a	-327.66
	316	63.4	-4.59814E-001	-6.53705E-008	0.00000E+000	-4.60000E-001	9.42892E-004	5	..........a	-327.66
	317	63.6	-4.69846E-001	-6.65851E-008	0.00000E+000	-4.70000E-001	9.57992E-004	5	..........a	-327.66
	318	63.8	-4.79842E-001	-6.74462E-008	0.00000E+000	-4.80000E-001	9.52092E-004	5	..........a	-327.66
	319	64	-4.89879E-001	-6.86400E-008	0.00000E+000	-4.90000E-001	9.72192E-004	5	..........a	-327.66
	320	64.2	-4.99820E-001	-6.96948E-008	0.00000E+000	-5.00000E-001	9.56592E-004	5	..........a	-327.66
	321	64.4	-5.09845E-001	-7.04621E-008	0.00000E+000	-5.10000E-001	9.66292E-004	5	..........a	-327.66
	322	64.6	-5.19852E-001	-7.15915E-008	0.00000E+000	-5.20000E-001	9.62492E-004	5	..........a	-327.66
	323	64.8	-5.29842E-001	-7.26290E-008	0.00000E+000	-5.30000E-001	9.65992E-004	5	..........a	-327.66
	324	65	-5.39789E-001	-7.35341E-008	0.00000E+000	-5.40000E-001	9.58892E-004	5	..........a	-327.66
	325	65.2	-5.49857E-001	-7.46649E-008	0.00000E+000	-5.50000E-001	9.62792E-004	5	..........a	-327.66
	326	65.4	-5.59867E-001	-7.61225E-008	0.00000E+000	-5.60000E-001	9.68592E-004	5	..........a	-327.66
	327	65.6	-5.69865E-001	-7.78611E-008	0.00000E+000	-5.70000E-001	9.52492E-004	5	..........a	-327.66
	328	65.8	-5.79814E-001	-7.95967E-008	0.00000E+000	-5.80000E-001	9.59492E-004	5	..........a	-327.66
	329	66	-5.89861E-001	-8.11945E-008	0.00000E+000	-5.90000E-001	9.64792E-004	5	..........a	-327.66
	330	66.2	-5.99776E-001	-8.29675E-008	0.00000E+000	-6.00000E-001	9.63292E-004	5	..........a	-327.66
	331	66.4	-5.89864E-001	-7.10022E-008	0.00000E+000	-5.90000E-001	9.66692E-004	5	..........a	-327.66
	332	66.6	-5.79827E-001	-6.33772E-008	0.00000E+000	-5.80000E-001	9.57692E-004	5	..........a	-327.66
	333	66.8	-5.69886E-001	-5.80519E-008	0.00000E+000	-5.70000E-001	9.59992E-004	5	..........a	-327.66
	334	67	-5.59893E-001	-5.31709E-008	0.00000E+000	-5.60000E-001	9.71592E-004	5	..........a	-327.66
	335	67.2	-5.49857E-001	-4.89981E-008	0.00000E+000	-5.50000E-001	9.50192E-004	5	..........a	-327.66
	336	67.4	-5.39816E-001	-4.56517E-008	0.00000E+000	-5.40000E-001	9.54792E-004	5	..........a	-327.66
	337	67.6	-5.29860E-001	-4.24924E-008	0.00000E+000	-5.30000E-001	9.72692E-004	5	..........a	-327.66
	338	67.8	-5.19880E-001	-3.97178E-008	0.00000E+000	-5.20000E-001	9.59492E-004	5	..........a	-327.66
	339	68	-5.09870E-001	-3.71161E-008	0.00000E+000	-5.10000E-001	9.68992E-004	5	..........a	-327.66
	340	68.2	-4.99838E-001	-3.49715E-008	0.00000E+000	-5.00000E-001	9.44892E-004	5	..........a	-327.66
	341	68.4	-4.89891E-001	-3.28608E-008	0.00000E+000	-4.90000E-001	9.63992E-004	5	..........a	-327.66
	342	68.6	-4.79851E-001	-3.06889E-008	0.00000E+000	-4.80000E-001	9.61492E-004	5	..........a	-327.66
	343	68.8	-4.69841E-001	-2.87954E-008	0.00000E+000	-4.70000E-001	9.65992E-004	5	..........a	-327.66
	344	69	-4.59846E-001	-2.70004E-008	0.00000E+000	-4.60000E-001	9.56592E-004	5	..........a	-327.66
	345	69.2	-4.49853E-001	-2.51563E-008	0.00000E+000	-4.50000E-001	9.42892E-004	5	..........a	-327.66
	346	69.4	-4.39843E-001	-2.33612E-008	0.00000E+000	-4.40000E-001	9.57892E-004	5	..........a	-327.66
	347	69.6	-4.29882E-001	-2.17423E-008	0.00000E+000	-4.30000E-001	9.58992E-004	5	..........a	-327.66
	348	69.8	-4.19842E-001	-2.00831E-008	0.00000E+000	-4.20000E-001	9.57692E-004	5	..........a	-327.66
	349	70	-4.09867E-001	-1.86260E-008	0.00000E+000	-4.10000E-001	9.54892E-004	5	..........a	-327.66
	350	70.2	-3.99885E-001	-1.70965E-008	0.00000E+000	-4.00000E-001	9.56092E-004	5	..........a	-327.66
	351	70.4	-3.89896E-001	-1.56939E-008	0.00000E+000	-3.90000E-001	9.66692E-004	5	..........a	-327.66
	352	70.6	-3.79852E-001	-1.43118E-008	0.00000E+000	-3.80000E-001	9.57492E-004	5	..........a	-327.66
[...]
	920	184.2	-2.99854E-001	-4.92652E-009	0.00000E+000	-3.00000E-001	9.62192E-004	5	..........a	-327.66
	921	184.4	-2.89860E-001	-3.64615E-009	0.00000E+000	-2.90000E-001	9.60892E-004	5	..........a	-327.66
	922	184.6	-2.79914E-001	-2.49010E-009	0.00000E+000	-2.80000E-001	9.67892E-004	5	..........a	-327.66
	923	184.8	-2.69907E-001	-1.38098E-009	0.00000E+000	-2.70000E-001	9.69292E-004	5	..........a	-327.66
	924	185	-2.59833E-001	-2.99735E-010	0.00000E+000	-2.60000E-001	9.55392E-004	5	..........a	-327.66
	925	185.2	-2.49878E-001	8.49458E-010	0.00000E+000	-2.50000E-001	9.71592E-004	5	..........a	-327.66
	926	185.4	-2.39926E-001	1.95946E-009	0.00000E+000	-2.40000E-001	9.80092E-004	5	..........a	-327.66
	927	185.6	-2.29970E-001	2.97793E-009	0.00000E+000	-2.30000E-001	9.64792E-004	5	..........a	-327.66
	928	185.8	-2.19886E-001	4.05301E-009	0.00000E+000	-2.20000E-001	9.61792E-004	5	..........a	-327.66
	929	186	-2.09909E-001	5.05085E-009	0.00000E+000	-2.10000E-001	9.79592E-004	5	..........a	-327.66
	930	186.2	-1.99961E-001	6.10883E-009	0.00000E+000	-2.00000E-001	9.78092E-004	5	..........a	-327.66
	931	186.4	-1.90231E-001	7.09299E-009	0.00000E+000	-1.90000E-001	9.57592E-004	5	..........a	-327.66
	932	186.6	-1.79929E-001	8.09508E-009	0.00000E+000	-1.80000E-001	9.72592E-004	5	..........a	-327.66
	933	186.8	-1.69907E-001	9.05470E-009	0.00000E+000	-1.70000E-001	9.71292E-004	5	..........a	-327.66
	934	187	-1.59999E-001	1.00421E-008	0.00000E+000	-1.60000E-001	9.86792E-004	5	..........a	-327.66
	935	187.2	-1.49953E-001	1.10022E-008	0.00000E+000	-1.50000E-001	9.72392E-004	5	..........a	-327.66
	936	187.4	-1.39915E-001	1.19440E-008	0.00000E+000	-1.40000E-001	9.63992E-004	5	..........a	-327.66
	937	187.6	-1.30045E-001	1.28652E-008	0.00000E+000	-1.30000E-001	9.73492E-004	5	..........a	-327.66
	938	187.8	-1.19957E-001	1.38325E-008	0.00000E+000	-1.20000E-001	9.70992E-004	5	..........a	-327.66
	939	188	-1.09945E-001	1.47568E-008	0.00000E+000	-1.10000E-001	9.87392E-004	5	..........a	-327.66
	940	188.2	-9.99250E-002	1.56694E-008	0.00000E+000	-1.00000E-001	9.67492E-004	5	..........a	-327.66
	941	188.4	-8.99058E-002	1.65909E-008	0.00000E+000	-9.00000E-002	9.66592E-004	5	..........a	-327.66
	942	188.6	-7.99876E-002	1.75362E-008	0.00000E+000	-8.00000E-002	9.85292E-004	5	..........a	-327.66
	943	188.8	-6.99268E-002	1.84895E-008	0.00000E+000	-7.00000E-002	9.76492E-004	5	..........a	-327.66
	944	189	-5.99082E-002	1.94235E-008	0.00000E+000	-6.00000E-002	9.49792E-004	5	..........a	-327.66
	945	189.2	-4.99050E-002	2.03756E-008	0.00000E+000	-5.00000E-002	9.52392E-004	5	..........a	-327.66
	946	189.4	-3.99319E-002	2.13187E-008	0.00000E+000	-4.00000E-002	9.51192E-004	5	..........a	-327.66
	947	189.6	-2.99292E-002	2.22709E-008	0.00000E+000	-3.00000E-002	9.66892E-004	5	..........a	-327.66
	948	189.8	-1.99724E-002	2.31679E-008	0.00000E+000	-2.00000E-002	9.51192E-004	5	..........a	-327.66
	949	190	-9.93146E-003	2.41364E-008	0.00000E+000	-1.00000E-002	9.55792E-004	5	..........a	-327.66
	950	190.2	7.74165E-006	2.50714E-008	0.00000E+000	7.45058E-009	9.75192E-004	5	..........a	-327.66
	951	190.4	1.01016E-002	2.59846E-008	0.00000E+000	1.00000E-002	9.66892E-004	5	..........a	-327.66
	952	190.6	2.01554E-002	2.69368E-008	0.00000E+000	2.00000E-002	9.59592E-004	5	..........a	-327.66
	953	190.8	3.00194E-002	2.78765E-008	0.00000E+000	3.00000E-002	9.56292E-004	5	..........a	-327.66
	954	191	4.00330E-002	2.88177E-008	0.00000E+000	4.00000E-002	9.67392E-004	5	..........a	-327.66
	955	191.2	5.00299E-002	2.97508E-008	0.00000E+000	5.00000E-002	9.68992E-004	5	..........a	-327.66
	956	191.4	6.00822E-002	3.07034E-008	0.00000E+000	6.00000E-002	9.61492E-004	5	..........a	-327.66
	957	191.6	7.00081E-002	3.16848E-008	0.00000E+000	7.00000E-002	9.84992E-004	5	..........a	-327.66
	958	191.8	8.00178E-002	3.26493E-008	0.00000E+000	8.00000E-002	9.74392E-004	5	..........a	-327.66
	959	192	9.00459E-002	3.35843E-008	0.00000E+000	9.00000E-002	9.59092E-004	5	..........a	-327.66
	960	192.2	1.00087E-001	3.46824E-008	0.00000E+000	1.00000E-001	9.77392E-004	5	..........a	-327.66
	961	192.4	1.10093E-001	3.62181E-008	0.00000E+000	1.10000E-001	9.83092E-004	5	..........a	-327.66
	962	192.6	1.20041E-001	3.68741E-008	0.00000E+000	1.20000E-001	9.64792E-004	5	..........a	-327.66
	963	192.8	1.30067E-001	3.78097E-008	0.00000E+000	1.30000E-001	9.79492E-004	5	..........a	-327.66
	964	193	1.40078E-001	3.87595E-008	0.00000E+000	1.40000E-001	9.64292E-004	5	..........a	-327.66
	965	193.2	1.50039E-001	3.96562E-008	0.00000E+000	1.50000E-001	9.89892E-004	5	..........a	-327.66
	966	193.4	1.60017E-001	4.06177E-008	0.00000E+000	1.60000E-001	9.74992E-004	5	..........a	-327.66
	967	193.6	1.70064E-001	4.16941E-008	0.00000E+000	1.70000E-001	9.68292E-004	5	..........a	-327.66
	968	193.8	1.80064E-001	4.27444E-008	0.00000E+000	1.80000E-001	9.77592E-004	5	..........a	-327.66
	969	194	1.90056E-001	4.38156E-008	0.00000E+000	1.90000E-001	9.72292E-004	5	..........a	-327.66
	970	194.2	2.00003E-001	4.49167E-008	0.00000E+000	2.00000E-001	9.91992E-004	5	..........a	-327.66
	971	194.4	2.09973E-001	4.59394E-008	0.00000E+000	2.10000E-001	9.67692E-004	5	..........a	-327.66
	972	194.6	2.19877E-001	4.69552E-008	0.00000E+000	2.20000E-001	9.55392E-004	5	..........a	-327.66
	973	194.8	2.30009E-001	4.78085E-008	0.00000E+000	2.30000E-001	9.96492E-004	5	..........a	-327.66
	974	195	2.39984E-001	4.86110E-008	0.00000E+000	2.40000E-001	9.81492E-004	5	..........a	-327.66
	975	195.2	2.49972E-001	4.94007E-008	0.00000E+000	2.50000E-001	9.76992E-004	5	..........a	-327.66
	976	195.4	2.60014E-001	5.02215E-008	0.00000E+000	2.60000E-001	9.72192E-004	5	..........a	-327.66
	977	195.6	2.70069E-001	5.10909E-008	0.00000E+000	2.70000E-001	9.68792E-004	5	..........a	-327.66
	978	195.8	2.79986E-001	5.19927E-008	0.00000E+000	2.80000E-001	9.65892E-004	5	..........a	-327.66
	979	196	2.90023E-001	5.29646E-008	0.00000E+000	2.90000E-001	9.65592E-004	5	..........a	-327.66
	980	196.2	3.00024E-001	5.38992E-008	0.00000E+000	3.00000E-001	9.67992E-004	5	..........a	-327.66
	981	196.4	3.10016E-001	5.49919E-008	0.00000E+000	3.10000E-001	9.84292E-004	5	..........a	-327.66
	982	196.6	3.20024E-001	5.60390E-008	0.00000E+000	3.20000E-001	9.71992E-004	5	..........a	-327.66
	983	196.8	3.30010E-001	5.71870E-008	0.00000E+000	3.30000E-001	9.75192E-004	5	..........a	-327.66
	984	197	3.40047E-001	5.84138E-008	0.00000E+000	3.40000E-001	9.76692E-004	5	..........a	-327.66
	985	197.2	3.50018E-001	5.97284E-008	0.00000E+000	3.50000E-001	9.84792E-004	5	..........a	-327.66
	986	197.4	3.59988E-001	6.12025E-008	0.00000E+000	3.60000E-001	9.55692E-004	5	..........a	-327.66
	987	197.6	3.70025E-001	6.27088E-008	0.00000E+000	3.70000E-001	9.68092E-004	5	..........a	-327.66
	988	197.8	3.80007E-001	6.43527E-008	0.00000E+000	3.80000E-001	9.49192E-004	5	..........a	-327.66
	989	198	3.90038E-001	6.61014E-008	0.00000E+000	3.90000E-001	9.83992E-004	5	..........a	-327.66
	990	198.2	3.99992E-001	6.80318E-008	0.00000E+000	4.00000E-001	9.63692E-004	5	..........a	-327.66
	991	198.4	4.09955E-001	7.00449E-008	0.00000E+000	4.10000E-001	9.79192E-004	5	..........a	-327.66
	992	198.6	4.19986E-001	7.22242E-008	0.00000E+000	4.20000E-001	9.62792E-004	5	..........a	-327.66
	993	198.8	4.29958E-001	7.45066E-008	0.00000E+000	4.30000E-001	9.78192E-004	5	..........a	-327.66
	994	199	4.39955E-001	7.69581E-008	0.00000E+000	4.40000E-001	9.73792E-004	5	..........a	-327.66
	995	199.2	4.49892E-001	7.92423E-008	0.00000E+000	4.50000E-001	9.65592E-004	5	..........a	-327.66
	996	199.4	4.59959E-001	8.17328E-008	0.00000E+000	4.60000E-001	9.74592E-004	5	..........a	-327.66
	997	199.6	4.69988E-001	8.42948E-008	0.00000E+000	4.70000E-001	9.65692E-004	5	..........a	-327.66
	998	199.8	4.79913E-001	8.69277E-008	0.00000E+000	4.80000E-001	9.71892E-004	5	..........a	-327.66
	999	200	4.89907E-001	8.96738E-008	0.00000E+000	4.90000E-001	9.80592E-004	5	..........a	-327.66
	1000	200.2	4.99988E-001	9.24556E-008	0.00000E+000	5.00000E-001	9.67692E-004	5	..........a	-327.66
	1001	200.4	5.09954E-001	9.53333E-008	0.00000E+000	5.10000E-001	9.79892E-004	5	..........a	-327.66
	1002	200.6	5.19946E-001	9.82468E-008	0.00000E+000	5.20000E-001	9.86192E-004	5	..........a	-327.66
	1003	200.8	5.29952E-001	1.01124E-007	0.00000E+000	5.30000E-001	9.85292E-004	5	..........a	-327.66
	1004	201	5.39966E-001	1.03899E-007	0.00000E+000	5.40000E-001	9.70192E-004	5	..........a	-327.66
	1005	201.2	5.49980E-001	1.06648E-007	0.00000E+000	5.50000E-001	9.54992E-004	5	..........a	-327.66
	1006	201.4	5.59917E-001	1.09273E-007	0.00000E+000	5.60000E-001	9.85792E-004	5	..........a	-327.66
	1007	201.6	5.69945E-001	1.11775E-007	0.00000E+000	5.70000E-001	9.82592E-004	5	..........a	-327.66
	1008	201.8	5.79937E-001	1.14147E-007	0.00000E+000	5.80000E-001	9.56492E-004	5	..........a	-327.66
	1009	202	5.89990E-001	1.16442E-007	0.00000E+000	5.90000E-001	9.84892E-004	5	..........a	-327.66
	1010	202.2	5.99925E-001	1.18666E-007	0.00000E+000	6.00000E-001	9.82592E-004	5	..........a	-327.66
	1011	202.4	6.09923E-001	1.20900E-007	0.00000E+000	6.10000E-001	9.74992E-004	5	..........a	-327.66
	1012	202.6	6.19891E-001	1.23146E-007	0.00000E+000	6.20000E-001	9.66292E-004	5	..........a	-327.66
	1013	202.8	6.29984E-001	1.25463E-007	0.00000E+000	6.30000E-001	9.73192E-004	5	..........a	-327.66
	1014	203	6.39873E-001	1.27828E-007	0.00000E+000	6.40000E-001	9.92792E-004	5	..........a	-327.66
	1015	203.2	6.49885E-001	1.30307E-007	0.00000E+000	6.50000E-001	9.66092E-004	5	..........a	-327.66
	1016	203.4	6.59890E-001	1.32823E-007	0.00000E+000	6.60000E-001	9.66992E-004	5	..........a	-327.66
	1017	203.6	6.69947E-001	1.35435E-007	0.00000E+000	6.70000E-001	9.78492E-004	5	..........a	-327.66
	1018	203.8	6.79931E-001	1.38138E-007	0.00000E+000	6.80000E-001	9.66492E-004	5	..........a	-327.66
	1019	204	6.89889E-001	1.40956E-007	0.00000E+000	6.90000E-001	9.56292E-004	5	..........a	-327.66
	1020	204.2	6.99872E-001	1.44067E-007	0.00000E+000	7.00000E-001	9.61592E-004	5	..........a	-327.66
	1021	204.4	7.09957E-001	1.47311E-007	0.00000E+000	7.10000E-001	9.68892E-004	5	..........a	-327.66
	1022	204.6	7.19870E-001	1.50816E-007	0.00000E+000	7.20000E-001	9.74292E-004	5	..........a	-327.66
	1023	204.8	7.29915E-001	1.54555E-007	0.00000E+000	7.30000E-001	9.77692E-004	5	..........a	-327.66
	1024	205	7.39868E-001	1.58566E-007	0.00000E+000	7.40000E-001	9.54392E-004	5	..........a	-327.66
	1025	205.2	7.49944E-001	1.62827E-007	0.00000E+000	7.50000E-001	9.77192E-004	5	..........a	-327.66
	1026	205.4	7.59870E-001	1.67443E-007	0.00000E+000	7.60000E-001	9.64792E-004	5	..........a	-327.66
	1027	205.6	7.69847E-001	1.72204E-007	0.00000E+000	7.70000E-001	9.57092E-004	5	..........a	-327.66
	1028	205.8	7.79857E-001	1.77431E-007	0.00000E+000	7.80000E-001	9.40692E-004	5	..........a	-327.66
	1029	206	7.89954E-001	1.83082E-007	0.00000E+000	7.90000E-001	9.66792E-004	5	..........a	-327.66
	1030	206.2	7.99854E-001	1.89085E-007	0.00000E+000	8.00000E-001	9.57792E-004	5	..........a	-327.66
CURVE5	TABLE
	Pt	T	Vf	Im	Vu	Sig	Ach	IERange	Over	Temp
	#	s	V vs. Ref.	A	V	V	V	#	bits	deg C
	1031	206.4	7.89949E-001	1.51192E-007	0.00000E+000	7.90000E-001	9.86592E-004	5	..........a	-327.66
	1032	206.6	7.79875E-001	1.26831E-007	0.00000E+000	7.80000E-001	9.55692E-004	5	..........a	-327.66
	1033	206.8	7.69931E-001	1.09460E-007	0.00000E+000	7.70000E-001	9.69592E-004	5	..........a	-327.66
	1034	207	7.59902E-001	9.64043E-008	0.00000E+000	7.60000E-001	9.73692E-004	5	..........a	-327.66
	1035	207.2	7.49992E-001	8.62922E-008	0.00000E+000	7.50000E-001	9.96092E-004	5	..........a	-327.66
	1036	207.4	7.39898E-001	7.80787E-008	0.00000E+000	7.40000E-001	9.75892E-004	5	..........a	-327.66
	1037	207.6	7.29946E-001	7.13669E-008	0.00000E+000	7.30000E-001	9.79092E-004	5	..........a	-327.66
	1038	207.8	7.19917E-001	6.56462E-008	0.00000E+000	7.20000E-001	9.66692E-004	5	..........a	-327.66
	1039	208	7.09993E-001	6.07182E-008	0.00000E+000	7.10000E-001	9.70092E-004	5	..........a	-327.66
	1040	208.2	6.99925E-001	5.64488E-008	0.00000E+000	7.00000E-001	9.63992E-004	5	..........a	-327.66
	1041	208.4	6.89924E-001	5.26737E-008	0.00000E+000	6.90000E-001	9.83792E-004	5	..........a	-327.66
	1042	208.6	6.79936E-001	4.92389E-008	0.00000E+000	6.80000E-001	9.73892E-004	5	..........a	-327.66
	1043	208.8	6.69981E-001	4.61062E-008	0.00000E+000	6.70000E-001	9.68492E-004	5	..........a	-327.66
	1044	209	6.59930E-001	4.32083E-008	0.00000E+000	6.60000E-001	9.76892E-004	5	..........a	-327.66
	1045	209.2	6.49937E-001	4.04721E-008	0.00000E+000	6.50000E-001	9.71392E-004	5	..........a	-327.66
	1046	209.4	6.39902E-001	3.79400E-008	0.00000E+000	6.40000E-001	9.73392E-004	5	..........a	-327.66
	1047	209.6	6.30037E-001	3.55433E-008	0.00000E+000	6.30000E-001	9.63792E-004	5	..........a	-327.66
	1048	209.8	6.19944E-001	3.32546E-008	0.00000E+000	6.20000E-001	9.60792E-004	5	..........a	-327.66
	1049	210	6.09974E-001	3.10713E-008	0.00000E+000	6.10000E-001	9.75992E-004	5	..........a	-327.66
	1050	210.2	5.99976E-001	2.90177E-008	0.00000E+000	6.00000E-001	9.76092E-004	5	..........a	-327.66
	1051	210.4	5.90030E-001	2.71468E-008	0.00000E+000	5.90000E-001	9.87792E-004	5	..........a	-327.66
	1052	210.6	5.80009E-001	2.54152E-008	0.00000E+000	5.80000E-001	9.53792E-004	5	..........a	-327.66
	1053	210.8	5.69946E-001	2.38010E-008	0.00000E+000	5.70000E-001	9.73992E-004	5	..........a	-327.66
	1054	211	5.59946E-001	2.21965E-008	0.00000E+000	5.60000E-001	9.70492E-004	5	..........a	-327.66
	1055	211.2	5.50031E-001	2.05491E-008	0.00000E+000	5.50000E-001	9.68992E-004	5	..........a	-327.66
	1056	211.4	5.39984E-001	1.89271E-008	0.00000E+000	5.40000E-001	9.60192E-004	5	..........a	-327.66
	1057	211.6	5.29957E-001	1.73381E-008	0.00000E+000	5.30000E-001	9.68292E-004	5	..........a	-327.66
	1058	211.8	5.19984E-001	1.58523E-008	0.00000E+000	5.20000E-001	9.65492E-004	5	..........a	-327.66
	1059	212	5.09994E-001	1.44706E-008	0.00000E+000	5.10000E-001	9.82092E-004	5	..........a	-327.66
	1060	212.2	5.00052E-001	1.32591E-008	0.00000E+000	5.00000E-001	9.70892E-004	5	..........a	-327.66
	1061	212.4	4.89932E-001	1.21041E-008	0.00000E+000	4.90000E-001	9.70292E-004	5	..........a	-327.66
	1062	212.6	4.79924E-001	1.09278E-008	0.00000E+000	4.80000E-001	9.97292E-004	5	..........a	-327.66
	1063	212.8	4.70030E-001	9.71749E-009	0.00000E+000	4.70000E-001	9.70792E-004	5	..........a	-327.66
	1064	213	4.59997E-001	8.42653E-009	0.00000E+000	4.60000E-001	9.63992E-004	5	..........a	-327.66
	1065	213.2	4.49803E-001	7.05460E-009	0.00000E+000	4.50000E-001	9.78892E-004	5	..........a	-327.66
	1066	213.4	4.39952E-001	5.66587E-009	0.00000E+000	4.40000E-001	9.70092E-004	5	..........a	-327.66
	1067	213.6	4.29997E-001	4.28838E-009	0.00000E+000	4.30000E-001	9.77692E-004	5	..........a	-327.66
	1068	213.8	4.20005E-001	2.77718E-009	0.00000E+000	4.20000E-001	9.56892E-004	5	..........a	-327.66
	1069	214	4.09990E-001	1.27933E-009	0.00000E+000	4.10000E-001	9.72392E-004	5	..........a	-327.66
	1070	214.2	3.99997E-001	-3.37756E-010	0.00000E+000	4.00000E-001	9.77092E-004	5	..........a	-327.66
	1071	214.4	3.90034E-001	-1.97541E-009	0.00000E+000	3.90000E-001	9.76092E-004	5	..........a	-327.66
	1072	214.6	3.80056E-001	-3.61598E-009	0.00000E+000	3.80000E-001	9.48992E-004	5	..........a	-327.66
	1073	214.8	3.70061E-001	-5.43342E-009	0.00000E+000	3.70000E-001	9.62892E-004	5	..........a	-327.66
	1074	215	3.60021E-001	-7.19331E-009	0.00000E+000	3.60000E-001	9.64092E-004	5	..........a	-327.66
	1075	215.2	3.50084E-001	-9.13184E-009	0.00000E+000	3.50000E-001	9.64392E-004	5	..........a	-327.66
	1076	215.4	3.40087E-001	-1.11450E-008	0.00000E+000	3.40000E-001	9.59892E-004	5	..........a	-327.66
	1077	215.6	3.30046E-001	-1.32233E-008	0.00000E+000	3.30000E-001	9.70592E-004	5	..........a	-327.66
	1078	215.8	3.20070E-001	-1.54451E-008	0.00000E+000	3.20000E-001	9.59392E-004	5	..........a	-327.66
	1079	216	3.10041E-001	-1.77749E-008	0.00000E+000	3.10000E-001	9.78292E-004	5	..........a	-327.66
	1080	216.2	3.00045E-001	-2.02881E-008	0.00000E+000	3.00000E-001	9.61092E-004	5	..........a	-327.66
	1081	216.4	2.90051E-001	-2.29147E-008	0.00000E+000	2.90000E-001	9.70392E-004	5	..........a	-327.66
	1082	216.6	2.80024E-001	-2.57765E-008	0.00000E+000	2.80000E-001	9.57392E-004	5	..........a	-327.66
	1083	216.8	2.70088E-001	-2.87497E-008	0.00000E+000	2.70000E-001	9.61592E-004	5	..........a	-327.66
	1084	217	2.60071E-001	-3.19130E-008	0.00000E+000	2.60000E-001	9.52292E-004	5	..........a	-327.66
	1085	217.2	2.50034E-001	-3.52240E-008	0.00000E+000	2.50000E-001	9.59492E-004	5	..........a	-327.66
	1086	217.4	2.40061E-001	-3.86125E-008	0.00000E+000	2.40000E-001	9.69192E-004	5	..........a	-327.66
	1087	217.6	2.30026E-001	-4.21633E-008	0.00000E+000	2.30000E-001	9.80792E-004	5	..........a	-327.66
	1088	217.8	2.20072E-001	-4.55500E-008	0.00000E+000	2.20000E-001	9.49392E-004	5	..........a	-327.66
	1089	218	2.10051E-001	-4.87990E-008	0.00000E+000	2.10000E-001	9.76592E-004	5	..........a	-327.66
	1090	218.2	2.00096E-001	-5.18354E-008	0.00000E+000	2.00000E-001	9.85092E-004	5	..........a	-327.66
	1091	218.4	1.90120E-001	-5.43344E-008	0.00000E+000	1.90000E-001	9.74692E-004	5	..........a	-327.66
	1092	218.6	1.80140E-001	-5.62382E-008	0.00000E+000	1.80000E-001	9.69992E-004	5	..........a	-327.66
	1093	218.8	1.70087E-001	-5.73866E-008	0.00000E+000	1.70000E-001	9.59792E-004	5	..........a	-327.66
	1094	219	1.60066E-001	-5.76437E-008	0.00000E+000	1.60000E-001	9.72192E-004	5	..........a	-327.66
	1095	219.2	1.50098E-001	-5.70085E-008	0.00000E+000	1.50000E-001	9.61292E-004	5	..........a	-327.66
	1096	219.4	1.40143E-001	-5.55298E-008	0.00000E+000	1.40000E-001	9.47292E-004	5	..........a	-327.66
	1097	219.6	1.30080E-001	-5.32772E-008	0.00000E+000	1.30000E-001	9.56092E-004	5	..........a	-327.66
	1098	219.8	1.20099E-001	-5.03897E-008	0.00000E+000	1.20000E-001	9.70692E-004	5	..........a	-327.66
	1099	220	1.10114E-001	-4.70543E-008	0.00000E+000	1.10000E-001	9.60492E-004	5	..........a	-327.66
	1100	220.2	1.00129E-001	-4.34733E-008	0.00000E+000	1.00000E-001	9.71892E-004	5	..........a	-327.66
	1101	220.4	9.01181E-002	-3.98449E-008	0.00000E+000	9.00000E-002	9.63692E-004	5	..........a	-327.66
	1102	220.6	8.00496E-002	-3.65139E-008	0.00000E+000	8.00000E-002	9.80592E-004	5	..........a	-327.66
	1103	220.8	7.00333E-002	-3.36449E-008	0.00000E+000	7.00000E-002	9.78892E-004	5	..........a	-327.66
	1104	221	6.01109E-002	-3.13403E-008	0.00000E+000	6.00000E-002	9.61092E-004	5	..........a	-327.66
	1105	221.2	5.00925E-002	-2.95759E-008	0.00000E+000	5.00000E-002	9.67792E-004	5	..........a	-327.66
	1106	221.4	4.00192E-002	-2.83026E-008	0.00000E+000	4.00000E-002	9.71192E-004	5	..........a	-327.66
	1107	221.6	3.00465E-002	-2.74002E-008	0.00000E+000	3.00000E-002	9.61692E-004	5	..........a	-327.66
	1108	221.8	2.01545E-002	-2.67764E-008	0.00000E+000	2.00000E-002	9.57692E-004	5	..........a	-327.66
	1109	222	1.01081E-002	-2.65766E-008	0.00000E+000	1.00000E-002	9.71992E-004	5	..........a	-327.66
	1110	222.2	3.61916E-005	-2.69194E-008	0.00000E+000	7.45058E-009	9.58192E-004	5	..........a	-327.66
	1111	222.4	-9.88116E-003	-2.66639E-008	0.00000E+000	-1.00000E-002	9.54692E-004	5	..........a	-327.66
	1112	222.6	-1.99124E-002	-2.65634E-008	0.00000E+000	-2.00000E-002	9.50892E-004	5	..........a	-327.66
	1113	222.8	-2.99403E-002	-2.68069E-008	0.00000E+000	-3.00000E-002	9.79492E-004	5	..........a	-327.66
	1114	223	-3.99140E-002	-2.68780E-008	0.00000E+000	-4.00000E-002	9.62292E-004	5	..........a	-327.66
	1115	223.2	-4.99256E-002	-2.73035E-008	0.00000E+000	-5.00000E-002	9.61092E-004	5	..........a	-327.66
	1116	223.4	-5.98834E-002	-2.80347E-008	0.00000E+000	-6.00000E-002	9.67492E-004	5	..........a	-327.66
	1117	223.6	-6.99314E-002	-2.81846E-008	0.00000E+000	-7.00000E-002	9.81892E-004	5	..........a	-327.66
	1118	223.8	-7.99303E-002	-2.90342E-008	0.00000E+000	-8.00000E-002	9.79592E-004	5	..........a	-327.66
	1119	224	-8.99012E-002	-2.94577E-008	0.00000E+000	-9.00000E-002	9.62692E-004	5	..........a	-327.66
	1120	224.2	-9.98910E-002	-3.01045E-008	0.00000E+000	-1.00000E-001	9.77092E-004	5	..........a	-327.66