File: example_project/raw_outputs/20240424_S_GM0016_HL03_E05_CV50.DTA
EXPLAIN
TAG	CV
TITLE	LABEL	Cyclic Voltammetry	Test &Identifier
DATE	LABEL	4/24/2024	Date
TIME	LABEL	17:49:15	Time
NOTES	NOTES	1	&Notes...

PSTAT	PSTAT	REF600P-43058	Potentiostat
VINIT	POTEN	0.00000E+000	T	Initial &E (V)
VLIMIT1	POTEN	-6.00000E-001	F	Scan Limit &1 (V)
VLIMIT2	POTEN	8.00000E-001	F	Scan Limit &2 (V)
VFINAL	POTEN	0.00000E+000	T	Final &E (V)
SCANRATE	QUANT	4.99999E+001	&Scan Rate (mV/s)
STEPSIZE	QUANT	1.00000E+001	St&ep Size (mV)
CYCLES	IQUANT	4	C&ycles (#)
IMODE	SELECTOR	0	I/E Range &Mode
IRANGE	QUANT	1.00000E-005	&Max Current (mA)
AREA	QUANT	1.00000E+000	Electrode &Area (cm^2)
ELECTRODETYPE	SELECTOR	0	Electrode Type
STRIPPING	TOGGLE	F	Used for Stripping
POLARITY	TOGGLE	F	Signal Polarity
CONDIT	TWOPARAM	F	1.50000E+001	0.00000E+000	Conditionin&g	Time(s)	E(V)
DELAY	TWOPARAM	T	1.00000E+001	0.00000E+000	Init. De&lay	Time(s)	Stab.(mV/s)
EQDELAY	QUANT	1.00000E+001	Equil. &Time (s)
IRCOMP	SELECTOR	0	IRCom&p
PFCOR	QUANT	5.00000E+001	PF Corr. (ohm)
SAMPLINGMODE	SELECTOR	1	Sampling &Mode
OCVCURVE	TABLE	39
	Pt	T	Vf	Vm	Ach	Over	Temp
	#	s	V vs. Ref.	V	V	bits	deg C
	0	0.258333	-1.16910E-001	-1.16910E-001	2.32259E-004	..........a	-327.66
	1	0.516667	-1.16911E-001	-1.16957E-001	2.29192E-004	..........a	-327.66
	2	0.775	-1.16916E-001	-1.16994E-001	2.26059E-004	..........a	-327.66
	3	1.03333	-1.16931E-001	-1.17042E-001	2.22859E-004	..........a	-327.66
	4	1.29167	-1.16958E-001	-1.17086E-001	2.23592E-004	..........a	-327.66
	5	1.55	-1.16994E-001	-1.17128E-001	2.31192E-004	..........a	-327.66
	6	1.80833	-1.17036E-001	-1.17165E-001	2.20592E-004	..........a	-327.66
	7	2.06667	-1.17080E-001	-1.17212E-001	2.39192E-004	..........a	-327.66
	8	2.325	-1.17123E-001	-1.17253E-001	2.30526E-004	..........a	-327.66
	9	2.58333	-1.17165E-001	-1.17287E-001	2.39392E-004	..........a	-327.66
	10	2.84167	-1.17206E-001	-1.17316E-001	2.40459E-004	..........a	-327.66
	11	3.1	-1.17245E-001	-1.17360E-001	2.32259E-004	..........a	-327.66
	12	3.35833	-1.17282E-001	-1.17391E-001	2.34592E-004	..........a	-327.66
	13	3.61667	-1.17318E-001	-1.17433E-001	2.31326E-004	..........a	-327.66
	14	3.875	-1.17354E-001	-1.17463E-001	2.41459E-004	..........a	-327.66
	15	4.13333	-1.17391E-001	-1.17508E-001	2.31459E-004	..........a	-327.66
	16	4.39167	-1.17427E-001	-1.17546E-001	2.41126E-004	..........a	-327.66
	17	4.65	-1.17465E-001	-1.17596E-001	2.26259E-004	..........a	-327.66
	18	4.90833	-1.17505E-001	-1.17625E-001	2.36659E-004	..........a	-327.66
	19	5.16667	-1.17546E-001	-1.17680E-001	2.26459E-004	..........a	-327.66
	20	5.425	-1.17587E-001	-1.17714E-001	2.42792E-004	..........a	-327.66
	21	5.68333	-1.17629E-001	-1.17765E-001	2.42326E-004	..........a	-327.66
	22	5.94167	-1.17672E-001	-1.17808E-001	2.21526E-004	..........a	-327.66
	23	6.2	-1.17716E-001	-1.17860E-001	2.41259E-004	..........a	-327.66
	24	6.45833	-1.17761E-001	-1.17901E-001	2.30659E-004	..........a	-327.66
	25	6.71667	-1.17806E-001	-1.17934E-001	2.33792E-004	..........a	-327.66
	26	6.975	-1.17851E-001	-1.17956E-001	2.28726E-004	..........a	-327.66
	27	7.23333	-1.17891E-001	-1.17992E-001	2.30926E-004	..........a	-327.66
	28	7.49167	-1.17926E-001	-1.18018E-001	2.47126E-004	..........a	-327.66
	29	7.75	-1.17958E-001	-1.18042E-001	2.38459E-004	..........a	-327.66
	30	8.00833	-1.17987E-001	-1.18080E-001	2.30459E-004	..........a	-327.66
	31	8.26667	-1.18016E-001	-1.18105E-001	2.54126E-004	..........a	-327.66
	32	8.525	-1.18045E-001	-1.18143E-001	2.26926E-004	..........a	-327.66
	33	8.78333	-1.18075E-001	-1.18181E-001	2.37459E-004	..........a	-327.66
	34	9.04167	-1.18107E-001	-1.18224E-001	2.24592E-004	..........a	-327.66
	35	9.3	-1.18142E-001	-1.18259E-001	2.42326E-004	..........a	-327.66
	36	9.5583	-1.18180E-001	-1.18292E-001	2.26792E-004	..........a	-327.66
	37	9.8167	-1.18218E-001	-1.18340E-001	2.43059E-004	..........a	-327.66
	38	10.075	-1.18256E-001	-1.18383E-001	2.29126E-004	..........a	-327.66
EOC	QUANT	-0.1182559	Open Circuit (V)
PSTATMODEL	IQUANT	7	Pstat Model
PSTATSECTION	LABEL	REF600P-43058	Pstat Section
PSTATSERIALNO	LABEL	43058	Pstat Serial Number
CTRLMODE	IQUANT	1	Control Mode
ELECTROMETER	IQUANT	0	RE=0 or CS=1
IESTAB	IQUANT	2	I/E Stability
CASPEED	IQUANT	4	Control Amp Speed
CONVENTION	IQUANT	1	Current Convention
ICHRANGE	IQUANT	2	Ich Range
ICHRANGEMODE	TOGGLE	F	Ich Auto Range
ICHOFFSETENABLE	TOGGLE	F	Ich Offset Enable
ICHOFFSET	QUANT	0	Ich Offset (V)
ICHFILTER	IQUANT	2	Ich Filter
VCHRANGE	IQUANT	2	Vch Range
VCHRANGEMODE	TOGGLE	F	Vch Auto Range
VCHOFFSETENABLE	TOGGLE	F	Vch Offset Enable
VCHOFFSET	QUANT	0	Vch Offset (V)
VCHFILTER	IQUANT	2	Vch Filter
ACHRANGE	IQUANT	2	Ach Range
ACHOFFSETENABLE	TOGGLE	F	Ach Offset Enable
ACHOFFSET	QUANT	0	Ach Offset (V)
ACHFILTER	IQUANT	1	Ach Filter
IERANGELOWERLIMIT	IQUANT	1	I/E Range Lower Limit
IERANGEMODE	TOGGLE	T	I/E AutoRange
IERANGE	IQUANT	4	I/E Range
POSFEEDENABLE	TOGGLE	F	Positive Feedback IR Comp
POSFEEDRESISTANCE	QUANT	0	Positive Feedback Resistance (ohm)
ACHSELECT	IQUANT	4	Ach Select
SENSECABLEID	IQUANT	7	Sense Cable ID
PWRCABLEID	IQUANT	7	Power Cable ID
DCCALDATE	LABEL	3/22/2024	DC Calibration Date
ACCALDATE	LABEL	3/22/2024	AC Calibration Date
THERMOSELECT	IQUANT	1	Thermo Select
FRAMEWORKVERSION	LABEL	7.8.4	Framework Version
INSTRUMENTVERSION	LABEL	4.42	Instrument Version
CURVE1	TABLE
	Pt	T	Vf	Im	Vu	Sig	Ach	IERange	Over	Temp
	#	s	V vs. Ref.	A	V	V	V	#	bits	deg C
	0	0.2	-1.18204E-001	5.26126E-010	0.00000E+000	-1.18250E-001	9.89192E-004	5	..........a	-327.66
	1	0.4	-1.28241E-001	-2.31126E-009	0.00000E+000	-1.28250E-001	9.78192E-004	5	..........a	-327.66
	2	0.6	-1.38137E-001	-4.36781E-009	0.00000E+000	-1.38250E-001	9.80392E-004	5	..........a	-327.66
	3	0.8	-1.48214E-001	-6.16219E-009	0.00000E+000	-1.48250E-001	9.91592E-004	5	..........a	-327.66
	4	1	-1.58211E-001	-7.80284E-009	0.00000E+000	-1.58250E-001	1.01039E-003	5	..........a	-327.66
	5	1.2	-1.68206E-001	-9.30737E-009	0.00000E+000	-1.68250E-001	9.90292E-004	5	..........a	-327.66
	6	1.4	-1.78140E-001	-1.07969E-008	0.00000E+000	-1.78250E-001	9.93592E-004	5	..........a	-327.66
	7	1.6	-1.88200E-001	-1.21494E-008	0.00000E+000	-1.88250E-001	9.83392E-004	5	..........a	-327.66
	8	1.8	-1.98177E-001	-1.35119E-008	0.00000E+000	-1.98250E-001	9.95792E-004	5	..........a	-327.66
	9	2	-2.08178E-001	-1.48141E-008	0.00000E+000	-2.08250E-001	9.93192E-004	5	..........a	-327.66
	10	2.2	-2.18158E-001	-1.61055E-008	0.00000E+000	-2.18250E-001	9.93292E-004	5	..........a	-327.66
	11	2.4	-2.28184E-001	-1.73638E-008	0.00000E+000	-2.28250E-001	9.71692E-004	5	..........a	-327.66
	12	2.6	-2.38141E-001	-1.86229E-008	0.00000E+000	-2.38250E-001	9.77592E-004	5	..........a	-327.66
	13	2.8	-2.48176E-001	-1.98465E-008	0.00000E+000	-2.48250E-001	9.78392E-004	5	..........a	-327.66
	14	3	-2.58081E-001	-2.10863E-008	0.00000E+000	-2.58250E-001	9.92392E-004	5	..........a	-327.66
	15	3.2	-2.68170E-001	-2.22683E-008	0.00000E+000	-2.68250E-001	9.79892E-004	5	..........a	-327.66
	16	3.4	-2.78156E-001	-2.34778E-008	0.00000E+000	-2.78250E-001	9.81692E-004	5	..........a	-327.66
	17	3.6	-2.88154E-001	-2.46727E-008	0.00000E+000	-2.88250E-001	9.90292E-004	5	..........a	-327.66
	18	3.8	-2.98124E-001	-2.58834E-008	0.00000E+000	-2.98250E-001	9.63292E-004	5	..........a	-327.66
	19	4	-3.08173E-001	-2.70711E-008	0.00000E+000	-3.08250E-001	9.89692E-004	5	..........a	-327.66
	20	4.2	-3.18174E-001	-2.82879E-008	0.00000E+000	-3.18250E-001	9.81092E-004	5	..........a	-327.66
	21	4.4	-3.28166E-001	-2.94912E-008	0.00000E+000	-3.28250E-001	9.76892E-004	5	..........a	-327.66
	22	4.6	-3.38060E-001	-3.07095E-008	0.00000E+000	-3.38250E-001	9.73692E-004	5	..........a	-327.66
	23	4.8	-3.48172E-001	-3.19832E-008	0.00000E+000	-3.48250E-001	9.68792E-004	5	..........a	-327.66
	24	5	-3.58198E-001	-3.32293E-008	0.00000E+000	-3.58250E-001	9.92392E-004	5	..........a	-327.66
	25	5.2	-3.68144E-001	-3.44914E-008	0.00000E+000	-3.68250E-001	9.86492E-004	5	..........a	-327.66
	26	5.4	-3.78098E-001	-3.57694E-008	0.00000E+000	-3.78250E-001	9.94092E-004	5	..........a	-327.66
	27	5.6	-3.88151E-001	-3.70399E-008	0.00000E+000	-3.88250E-001	9.96692E-004	5	..........a	-327.66
	28	5.8	-3.98180E-001	-3.83584E-008	0.00000E+000	-3.98250E-001	9.82692E-004	5	..........a	-327.66
	29	6	-4.08156E-001	-3.96609E-008	0.00000E+000	-4.08250E-001	9.80592E-004	5	..........a	-327.66
	30	6.2	-4.18037E-001	-4.10130E-008	0.00000E+000	-4.18250E-001	9.98692E-004	5	..........a	-327.66
	31	6.4	-4.28137E-001	-4.23445E-008	0.00000E+000	-4.28250E-001	9.84192E-004	5	..........a	-327.66
	32	6.6	-4.38125E-001	-4.36985E-008	0.00000E+000	-4.38250E-001	9.79792E-004	5	..........a	-327.66
	33	6.8	-4.48160E-001	-4.50381E-008	0.00000E+000	-4.48250E-001	9.90992E-004	5	..........a	-327.66
	34	7	-4.58069E-001	-4.64248E-008	0.00000E+000	-4.58250E-001	9.74792E-004	5	..........a	-327.66
	35	7.2	-4.68115E-001	-4.77932E-008	0.00000E+000	-4.68250E-001	1.00419E-003	5	..........a	-327.66
	36	7.4	-4.78103E-001	-4.91930E-008	0.00000E+000	-4.78250E-001	9.85492E-004	5	..........a	-327.66
	37	7.6	-4.88130E-001	-5.06314E-008	0.00000E+000	-4.88250E-001	9.90492E-004	5	..........a	-327.66
	38	7.8	-4.98035E-001	-5.21071E-008	0.00000E+000	-4.98250E-001	9.95592E-004	5	..........a	-327.66
	39	8	-5.08119E-001	-5.36103E-008	0.00000E+000	-5.08250E-001	9.78692E-004	5	..........a	-327.66
	40	8.2	-5.18133E-001	-5.51498E-008	0.00000E+000	-5.18250E-001	9.89692E-004	5	..........a	-327.66
	41	8.4	-5.28141E-001	-5.67337E-008	0.00000E+000	-5.28250E-001	9.69292E-004	5	..........a	-327.66
	42	8.6	-5.38061E-001	-5.83439E-008	0.00000E+000	-5.38250E-001	1.00359E-003	5	..........a	-327.66
	43	8.8	-5.48279E-001	-6.00164E-008	0.00000E+000	-5.48250E-001	9.78192E-004	5	..........a	-327.66
	44	9	-5.58138E-001	-6.17563E-008	0.00000E+000	-5.58250E-001	9.82192E-004	5	..........a	-327.66
	45	9.2	-5.68136E-001	-6.35436E-008	0.00000E+000	-5.68250E-001	9.85692E-004	5	..........a	-327.66
	46	9.4	-5.78080E-001	-6.53668E-008	0.00000E+000	-5.78250E-001	9.97292E-004	5	..........a	-327.66
	47	9.6	-5.88142E-001	-6.72928E-008	0.00000E+000	-5.88250E-001	9.90092E-004	5	..........a	-327.66
	48	9.8	-5.98122E-001	-6.92593E-008	0.00000E+000	-5.98250E-001	9.81292E-004	5	..........a	-327.66
	49	10	-5.88169E-001	-5.99690E-008	0.00000E+000	-5.88250E-001	9.83592E-004	5	..........a	-327.66
	50	10.2	-5.78080E-001	-5.39891E-008	0.00000E+000	-5.78250E-001	9.92392E-004	5	..........a	-327.66
	51	10.4	-5.68108E-001	-4.92610E-008	0.00000E+000	-5.68250E-001	9.88992E-004	5	..........a	-327.66
	52	10.6	-5.58120E-001	-4.53529E-008	0.00000E+000	-5.58250E-001	9.82992E-004	5	..........a	-327.66
	53	10.8	-5.48147E-001	-4.19675E-008	0.00000E+000	-5.48250E-001	9.67192E-004	5	..........a	-327.66
	54	11	-5.38056E-001	-3.88882E-008	0.00000E+000	-5.38250E-001	9.80592E-004	5	..........a	-327.66
	55	11.2	-5.28150E-001	-3.61630E-008	0.00000E+000	-5.28250E-001	9.81692E-004	5	..........a	-327.66
	56	11.4	-5.18104E-001	-3.36438E-008	0.00000E+000	-5.18250E-001	9.76192E-004	5	..........a	-327.66
	57	11.6	-5.08131E-001	-3.12580E-008	0.00000E+000	-5.08250E-001	9.75892E-004	5	..........a	-327.66
	58	11.8	-4.98013E-001	-2.90412E-008	0.00000E+000	-4.98250E-001	9.87292E-004	5	..........a	-327.66
	59	12	-4.88136E-001	-2.69637E-008	0.00000E+000	-4.88250E-001	9.80892E-004	5	..........a	-327.66
	60	12.2	-4.78118E-001	-2.49786E-008	0.00000E+000	-4.78250E-001	9.96292E-004	5	..........a	-327.66
	61	12.4	-4.68159E-001	-2.31089E-008	0.00000E+000	-4.68250E-001	9.76192E-004	5	..........a	-327.66
	62	12.6	-4.58081E-001	-2.12734E-008	0.00000E+000	-4.58250E-001	9.76592E-004	5	..........a	-327.66
	63	12.8	-4.48165E-001	-1.95242E-008	0.00000E+000	-4.48250E-001	9.86292E-004	5	..........a	-327.66
	64	13	-4.38220E-001	-1.78562E-008	0.00000E+000	-4.38250E-001	9.88292E-004	5	..........a	-327.66
	65	13.2	-4.28156E-001	-1.62455E-008	0.00000E+000	-4.28250E-001	9.86892E-004	5	..........a	-327.66
	66	13.4	-4.18043E-001	-1.46898E-008	0.00000E+000	-4.18250E-001	9.72192E-004	5	..........a	-327.66
	67	13.6	-4.08178E-001	-1.31817E-008	0.00000E+000	-4.08250E-001	9.92992E-004	5	..........a	-327.66
	68	13.8	-3.98170E-001	-1.17180E-008	0.00000E+000	-3.98250E-001	9.76092E-004	5	..........a	-327.66
	69	14	-3.88177E-001	-1.03281E-008	0.00000E+000	-3.88250E-001	9.83292E-004	5	..........a	-327.66
	70	14.2	-3.78112E-001	-8.91988E-009	0.00000E+000	-3.78250E-001	9.77492E-004	5	..........a	-327.66
	71	14.4	-3.68174E-001	-7.58713E-009	0.00000E+000	-3.68250E-001	9.90992E-004	5	..........a	-327.66
	72	14.6	-3.58155E-001	-6.30260E-009	0.00000E+000	-3.58250E-001	9.83292E-004	5	..........a	-327.66
	73	14.8	-3.48187E-001	-5.03366E-009	0.00000E+000	-3.48250E-001	9.72992E-004	5	..........a	-327.66
	74	15	-3.38070E-001	-3.80086E-009	0.00000E+000	-3.38250E-001	9.96892E-004	5	..........a	-327.66
	75	15.2	-3.28186E-001	-2.61315E-009	0.00000E+000	-3.28250E-001	9.85192E-004	5	..........a	-327.66
	76	15.4	-3.18196E-001	-1.42493E-009	0.00000E+000	-3.18250E-001	1.00419E-003	5	..........a	-327.66
	77	15.6	-3.08194E-001	-2.89394E-010	0.00000E+000	-3.08250E-001	9.81392E-004	5	..........a	-327.66
	78	15.8	-2.98137E-001	8.68979E-010	0.00000E+000	-2.98250E-001	9.72892E-004	5	..........a	-327.66
	79	16	-2.88173E-001	1.97895E-009	0.00000E+000	-2.88250E-001	9.95592E-004	5	..........a	-327.66
	80	16.2	-2.78229E-001	3.06977E-009	0.00000E+000	-2.78250E-001	9.88992E-004	5	..........a	-327.66
	81	16.4	-2.68185E-001	4.12288E-009	0.00000E+000	-2.68250E-001	9.85492E-004	5	..........a	-327.66
	82	16.6	-2.58077E-001	5.15887E-009	0.00000E+000	-2.58250E-001	9.90392E-004	5	..........a	-327.66
	83	16.8	-2.48186E-001	6.19543E-009	0.00000E+000	-2.48250E-001	1.00429E-003	5	..........a	-327.66
	84	17	-2.38173E-001	7.21657E-009	0.00000E+000	-2.38250E-001	1.00009E-003	5	..........a	-327.66
	85	17.2	-2.28188E-001	8.22431E-009	0.00000E+000	-2.28250E-001	9.93692E-004	5	..........a	-327.66
	86	17.4	-2.18167E-001	9.20854E-009	0.00000E+000	-2.18250E-001	9.80992E-004	5	..........a	-327.66
	87	17.6	-2.08179E-001	1.01711E-008	0.00000E+000	-2.08250E-001	9.76792E-004	5	..........a	-327.66
	88	17.8	-1.98221E-001	1.11392E-008	0.00000E+000	-1.98250E-001	9.81492E-004	5	..........a	-327.66
	89	18	-1.88207E-001	1.21165E-008	0.00000E+000	-1.88250E-001	9.74292E-004	5	..........a	-327.66
	90	18.2	-1.78187E-001	1.30596E-008	0.00000E+000	-1.78250E-001	9.77792E-004	5	..........a	-327.66
	91	18.4	-1.68214E-001	1.40098E-008	0.00000E+000	-1.68250E-001	9.79992E-004	5	..........a	-327.66
	92	18.6	-1.58185E-001	1.49467E-008	0.00000E+000	-1.58250E-001	9.90892E-004	5	..........a	-327.66
	93	18.8	-1.48220E-001	1.58712E-008	0.00000E+000	-1.48250E-001	9.97092E-004	5	..........a	-327.66
	94	19	-1.38148E-001	1.67908E-008	0.00000E+000	-1.38250E-001	9.84992E-004	5	..........a	-327.66
	95	19.2	-1.28257E-001	1.76959E-008	0.00000E+000	-1.28250E-001	9.89892E-004	5	..........a	-327.66
	96	19.4	-1.18225E-001	1.86306E-008	0.00000E+000	-1.18250E-001	9.76292E-004	5	..........a	-327.66
	97	19.6	-1.08236E-001	1.95463E-008	0.00000E+000	-1.08250E-001	9.72192E-004	5	..........a	-327.66
	98	19.8	-9.81666E-002	2.04459E-008	0.00000E+000	-9.82500E-002	9.89592E-004	5	..........a	-327.66
	99	20	-8.82416E-002	2.13523E-008	0.00000E+000	-8.82500E-002	1.01519E-003	5	..........a	-327.66
	100	20.2	-7.82285E-002	2.23103E-008	0.00000E+000	-7.82500E-002	9.91692E-004	5	..........a	-327.66
	101	20.4	-6.82254E-002	2.32202E-008	0.00000E+000	-6.82500E-002	9.64292E-004	5	..........a	-327.66
	102	20.6	-5.81043E-002	2.41562E-008	0.00000E+000	-5.82500E-002	9.95792E-004	5	..........a	-327.66
	103	20.8	-4.82348E-002	2.50718E-008	0.00000E+000	-4.82500E-002	1.00359E-003	5	..........a	-327.66
	104	21	-3.81766E-002	2.59968E-008	0.00000E+000	-3.82500E-002	9.66892E-004	5	..........a	-327.66
	105	21.2	-2.82218E-002	2.69199E-008	0.00000E+000	-2.82500E-002	9.84892E-004	5	..........a	-327.66
	106	21.4	-1.81720E-002	2.78643E-008	0.00000E+000	-1.82500E-002	9.87392E-004	5	..........a	-327.66
	107	21.6	-8.25076E-003	2.88110E-008	0.00000E+000	-8.25000E-003	9.76192E-004	5	..........a	-327.66
	108	21.8	1.80874E-003	2.97452E-008	0.00000E+000	1.75001E-003	9.82992E-004	5	..........a	-327.66
	109	22	1.17872E-002	3.06794E-008	0.00000E+000	1.17500E-002	9.86692E-004	5	..........a	-327.66
	110	22.2	2.19171E-002	3.16739E-008	0.00000E+000	2.17500E-002	1.01009E-003	5	..........a	-327.66
	111	22.4	3.17857E-002	3.26486E-008	0.00000E+000	3.17500E-002	9.84392E-004	5	..........a	-327.66
	112	22.6	4.17689E-002	3.36316E-008	0.00000E+000	4.17500E-002	9.81592E-004	5	..........a	-327.66
	113	22.8	5.17544E-002	3.46199E-008	0.00000E+000	5.17500E-002	9.84092E-004	5	..........a	-327.66
	114	23	6.18295E-002	3.56311E-008	0.00000E+000	6.17500E-002	9.63592E-004	5	..........a	-327.66
	115	23.2	7.17900E-002	3.66988E-008	0.00000E+000	7.17500E-002	9.77592E-004	5	..........a	-327.66
	116	23.4	8.17775E-002	3.77567E-008	0.00000E+000	8.17500E-002	9.85792E-004	5	..........a	-327.66
	117	23.6	9.17812E-002	3.88258E-008	0.00000E+000	9.17500E-002	9.60192E-004	5	..........a	-327.66
	118	23.8	1.01875E-001	3.99463E-008	0.00000E+000	1.01750E-001	9.74592E-004	5	..........a	-327.66
	119	24	1.11791E-001	4.10913E-008	0.00000E+000	1.11750E-001	9.73892E-004	5	..........a	-327.66
	120	24.2	1.21751E-001	4.22948E-008	0.00000E+000	1.21750E-001	9.93892E-004	5	..........a	-327.66
	121	24.4	1.31773E-001	4.35799E-008	0.00000E+000	1.31750E-001	9.82492E-004	5	..........a	-327.66
	122	24.6	1.41917E-001	4.54377E-008	0.00000E+000	1.41750E-001	9.86792E-004	5	..........a	-327.66
	123	24.8	1.51763E-001	4.73538E-008	0.00000E+000	1.51750E-001	9.87692E-004	5	..........a	-327.66
	124	25	1.61748E-001	4.89631E-008	0.00000E+000	1.61750E-001	9.95792E-004	5	..........a	-327.66
	125	25.2	1.71771E-001	5.01546E-008	0.00000E+000	1.71750E-001	9.99292E-004	5	..........a	-327.66
	126	25.4	1.81867E-001	5.10463E-008	0.00000E+000	1.81750E-001	9.86292E-004	5	..........a	-327.66
	127	25.6	1.91783E-001	5.18409E-008	0.00000E+000	1.91750E-001	9.75192E-004	5	..........a	-327.66
	128	25.8	2.01756E-001	5.27314E-008	0.00000E+000	2.01750E-001	9.91592E-004	5	..........a	-327.66
	129	26	2.11714E-001	5.38285E-008	0.00000E+000	2.11750E-001	1.00389E-003	5	..........a	-327.66
	130	26.2	2.21855E-001	5.51291E-008	0.00000E+000	2.21750E-001	9.86292E-004	5	..........a	-327.66
	131	26.4	2.31739E-001	5.64981E-008	0.00000E+000	2.31750E-001	1.00249E-003	5	..........a	-327.66
	132	26.6	2.41770E-001	5.80112E-008	0.00000E+000	2.41750E-001	9.81792E-004	5	..........a	-327.66
	133	26.8	2.51740E-001	5.95640E-008	0.00000E+000	2.51750E-001	9.90792E-004	5	..........a	-327.66
	134	27	2.61794E-001	6.11970E-008	0.00000E+000	2.61750E-001	9.84892E-004	5	..........a	-327.66
	135	27.2	2.71752E-001	6.29734E-008	0.00000E+000	2.71750E-001	9.93992E-004	5	..........a	-327.66
	136	27.4	2.81682E-001	6.48407E-008	0.00000E+000	2.81750E-001	9.95892E-004	5	..........a	-327.66
	137	27.6	2.91758E-001	6.67987E-008	0.00000E+000	2.91750E-001	9.92492E-004	5	..........a	-327.66
	138	27.8	3.01812E-001	6.88576E-008	0.00000E+000	3.01750E-001	1.00919E-003	5	..........a	-327.66
	139	28	3.11747E-001	7.10430E-008	0.00000E+000	3.11750E-001	9.95992E-004	5	..........a	-327.66
	140	28.2	3.21641E-001	7.32267E-008	0.00000E+000	3.21750E-001	1.00129E-003	5	..........a	-327.66
	141	28.4	3.31725E-001	7.54965E-008	0.00000E+000	3.31750E-001	1.00379E-003	5	..........a	-327.66
	142	28.6	3.41801E-001	7.77888E-008	0.00000E+000	3.41750E-001	9.84292E-004	5	..........a	-327.66
	143	28.8	3.51682E-001	8.01511E-008	0.00000E+000	3.51750E-001	1.00579E-003	5	..........a	-327.66
	144	29	3.61703E-001	8.25463E-008	0.00000E+000	3.61750E-001	1.01219E-003	5	..........a	-327.66
	145	29.2	3.71708E-001	8.49487E-008	0.00000E+000	3.71750E-001	9.84792E-004	5	..........a	-327.66
	146	29.4	3.81832E-001	8.73633E-008	0.00000E+000	3.81750E-001	9.97492E-004	5	..........a	-327.66
	147	29.6	3.91729E-001	8.98014E-008	0.00000E+000	3.91750E-001	9.78192E-004	5	..........a	-327.66
	148	29.8	4.01706E-001	9.22622E-008	0.00000E+000	4.01750E-001	9.86192E-004	5	..........a	-327.66
	149	30	4.11677E-001	9.47457E-008	0.00000E+000	4.11750E-001	9.93192E-004	5	..........a	-327.66
	150	30.2	4.21749E-001	9.72465E-008	0.00000E+000	4.21750E-001	9.88492E-004	5	..........a	-327.66
	151	30.4	4.31641E-001	9.97101E-008	0.00000E+000	4.31750E-001	9.94292E-004	5	..........a	-327.66
	152	30.6	4.41665E-001	1.02222E-007	0.00000E+000	4.41750E-001	1.00679E-003	5	..........a	-327.66
	153	30.8	4.51698E-001	1.04726E-007	0.00000E+000	4.51750E-001	9.86492E-004	5	..........a	-327.66
	154	31	4.61743E-001	1.07208E-007	0.00000E+000	4.61750E-001	9.74892E-004	5	..........a	-327.66
	155	31.2	4.71709E-001	1.09674E-007	0.00000E+000	4.71750E-001	9.88892E-004	5	..........a	-327.66
	156	31.4	4.81647E-001	1.12135E-007	0.00000E+000	4.81750E-001	1.00319E-003	5	..........a	-327.66
	157	31.6	4.91662E-001	1.14549E-007	0.00000E+000	4.91750E-001	1.00429E-003	5	..........a	-327.66
	158	31.8	5.01734E-001	1.16957E-007	0.00000E+000	5.01750E-001	9.87492E-004	5	..........a	-327.66
	159	32	5.11661E-001	1.19289E-007	0.00000E+000	5.11750E-001	9.92092E-004	5	..........a	-327.66
	160	32.2	5.21681E-001	1.21658E-007	0.00000E+000	5.21750E-001	9.86492E-004	5	..........a	-327.66
	161	32.4	5.31659E-001	1.24170E-007	0.00000E+000	5.31750E-001	9.84092E-004	5	..........a	-327.66
	162	32.6	5.41733E-001	1.26538E-007	0.00000E+000	5.41750E-001	9.90092E-004	5	..........a	-327.66
	163	32.8	5.51699E-001	1.28830E-007	0.00000E+000	5.51750E-001	9.94392E-004	5	..........a	-327.66
	164	33	5.61632E-001	1.31074E-007	0.00000E+000	5.61750E-001	1.00169E-003	5	..........a	-327.66
	165	33.2	5.71697E-001	1.33291E-007	0.00000E+000	5.71750E-001	9.68192E-004	5	..........a	-327.66
	166	33.4	5.81750E-001	1.35463E-007	0.00000E+000	5.81750E-001	9.75492E-004	5	..........a	-327.66
	167	33.6	5.91657E-001	1.37654E-007	0.00000E+000	5.91750E-001	1.00729E-003	5	..........a	-327.66
	168	33.8	6.01697E-001	1.39815E-007	0.00000E+000	6.01750E-001	1.00049E-003	5	..........a	-327.66
	169	34	6.11639E-001	1.42059E-007	0.00000E+000	6.11750E-001	9.93692E-004	5	..........a	-327.66
	170	34.2	6.21677E-001	1.44294E-007	0.00000E+000	6.21750E-001	9.92492E-004	5	..........a	-327.66
	171	34.4	6.31580E-001	1.46621E-007	0.00000E+000	6.31750E-001	9.84792E-004	5	..........a	-327.66
	172	34.6	6.41607E-001	1.48927E-007	0.00000E+000	6.41750E-001	1.00019E-003	5	..........a	-327.66
	173	34.8	6.51640E-001	1.51298E-007	0.00000E+000	6.51750E-001	9.82892E-004	5	..........a	-327.66
	174	35	6.61660E-001	1.53732E-007	0.00000E+000	6.61750E-001	9.92692E-004	5	..........a	-327.66
	175	35.2	6.71636E-001	1.56279E-007	0.00000E+000	6.71750E-001	1.00169E-003	5	..........a	-327.66
	176	35.4	6.81625E-001	1.58850E-007	0.00000E+000	6.81750E-001	9.78092E-004	5	..........a	-327.66
	177	35.6	6.91585E-001	1.61530E-007	0.00000E+000	6.91750E-001	9.87092E-004	5	..........a	-327.66
	178	35.8	7.01628E-001	1.64309E-007	0.00000E+000	7.01750E-001	9.80392E-004	5	..........a	-327.66
	179	36	7.11602E-001	1.67238E-007	0.00000E+000	7.11750E-001	1.00699E-003	5	..........a	-327.66
	180	36.2	7.21586E-001	1.70305E-007	0.00000E+000	7.21750E-001	9.80792E-004	5	..........a	-327.66
	181	36.4	7.31556E-001	1.73571E-007	0.00000E+000	7.31750E-001	9.94192E-004	5	..........a	-327.66
	182	36.6	7.41646E-001	1.77034E-007	0.00000E+000	7.41750E-001	9.79492E-004	5	..........a	-327.66
	183	36.8	7.51663E-001	1.80725E-007	0.00000E+000	7.51750E-001	9.89892E-004	5	..........a	-327.66
	184	37	7.61575E-001	1.84643E-007	0.00000E+000	7.61750E-001	1.00819E-003	5	..........a	-327.66
	185	37.2	7.71600E-001	1.88900E-007	0.00000E+000	7.71750E-001	9.86592E-004	5	..........a	-327.66
	186	37.4	7.81643E-001	1.93373E-007	0.00000E+000	7.81750E-001	9.80892E-004	5	..........a	-327.66
	187	37.6	7.91596E-001	1.98161E-007	0.00000E+000	7.91750E-001	9.95592E-004	5	..........a	-327.66
	188	37.8	8.01596E-001	2.03263E-007	0.00000E+000	8.01750E-001	9.80392E-004	5	..........a	-327.66
CURVE2	TABLE
	Pt	T	Vf	Im	Vu	Sig	Ach	IERange	Over	Temp
	#	s	V vs. Ref.	A	V	V	V	#	bits	deg C
	189	38	7.89962E-001	1.65407E-007	0.00000E+000	7.90000E-001	1.00429E-003	5	..........a	-327.66
	190	38.2	7.79882E-001	1.44735E-007	0.00000E+000	7.80000E-001	9.88092E-004	5	..........a	-327.66
	191	38.4	7.69886E-001	1.29824E-007	0.00000E+000	7.70000E-001	9.80192E-004	5	..........a	-327.66
	192	38.6	7.59896E-001	1.18285E-007	0.00000E+000	7.60000E-001	1.00159E-003	5	..........a	-327.66
	193	38.8	7.49971E-001	1.09076E-007	0.00000E+000	7.50000E-001	9.82992E-004	5	..........a	-327.66
	194	39	7.39891E-001	1.01385E-007	0.00000E+000	7.40000E-001	9.90392E-004	5	..........a	-327.66
	195	39.2	7.29840E-001	9.47917E-008	0.00000E+000	7.30000E-001	9.90492E-004	5	..........a	-327.66
	196	39.4	7.19909E-001	8.90354E-008	0.00000E+000	7.20000E-001	9.84692E-004	5	..........a	-327.66
	197	39.6	7.09965E-001	8.38715E-008	0.00000E+000	7.10000E-001	9.90992E-004	5	..........a	-327.66
	198	39.8	6.99914E-001	7.91979E-008	0.00000E+000	7.00000E-001	1.00269E-003	5	..........a	-327.66
	199	40	6.89905E-001	7.49049E-008	0.00000E+000	6.90000E-001	9.92592E-004	5	..........a	-327.66
	200	40.2	6.79952E-001	7.09302E-008	0.00000E+000	6.80000E-001	1.00039E-003	5	..........a	-327.66
	201	40.4	6.69974E-001	6.72062E-008	0.00000E+000	6.70000E-001	9.89692E-004	5	..........a	-327.66
	202	40.6	6.59936E-001	6.36875E-008	0.00000E+000	6.60000E-001	9.98592E-004	5	..........a	-327.66
	203	40.8	6.49933E-001	6.03455E-008	0.00000E+000	6.50000E-001	9.89492E-004	5	..........a	-327.66
	204	41	6.39886E-001	5.71845E-008	0.00000E+000	6.40000E-001	1.00109E-003	5	..........a	-327.66
	205	41.2	6.29986E-001	5.41664E-008	0.00000E+000	6.30000E-001	1.01259E-003	5	..........a	-327.66
	206	41.4	6.19928E-001	5.12362E-008	0.00000E+000	6.20000E-001	9.80992E-004	5	..........a	-327.66
	207	41.6	6.09927E-001	4.84320E-008	0.00000E+000	6.10000E-001	9.80592E-004	5	..........a	-327.66
	208	41.8	5.99966E-001	4.57551E-008	0.00000E+000	6.00000E-001	9.88992E-004	5	..........a	-327.66
	209	42	5.89979E-001	4.31899E-008	0.00000E+000	5.90000E-001	9.93692E-004	5	..........a	-327.66
	210	42.2	5.79984E-001	4.06861E-008	0.00000E+000	5.80000E-001	9.86092E-004	5	..........a	-327.66
	211	42.4	5.69933E-001	3.83277E-008	0.00000E+000	5.70000E-001	1.00379E-003	5	..........a	-327.66
	212	42.6	5.59952E-001	3.60875E-008	0.00000E+000	5.60000E-001	9.90792E-004	5	..........a	-327.66
	213	42.8	5.50024E-001	3.39103E-008	0.00000E+000	5.50000E-001	9.76792E-004	5	..........a	-327.66
	214	43	5.39994E-001	3.17478E-008	0.00000E+000	5.40000E-001	9.99692E-004	5	..........a	-327.66
	215	43.2	5.29972E-001	2.96819E-008	0.00000E+000	5.30000E-001	9.97792E-004	5	..........a	-327.66
	216	43.4	5.19974E-001	2.76286E-008	0.00000E+000	5.20000E-001	9.97392E-004	5	..........a	-327.66
	217	43.6	5.09990E-001	2.56566E-008	0.00000E+000	5.10000E-001	1.00159E-003	5	..........a	-327.66
	218	43.8	5.00066E-001	2.38000E-008	0.00000E+000	5.00000E-001	1.00079E-003	5	..........a	-327.66
	219	44	4.89965E-001	2.20219E-008	0.00000E+000	4.90000E-001	9.91692E-004	5	..........a	-327.66
	220	44.2	4.79924E-001	2.02896E-008	0.00000E+000	4.80000E-001	1.01929E-003	5	..........a	-327.66
	221	44.4	4.70023E-001	1.86195E-008	0.00000E+000	4.70000E-001	9.99392E-004	5	..........a	-327.66
	222	44.6	4.60018E-001	1.69924E-008	0.00000E+000	4.60000E-001	9.84492E-004	5	..........a	-327.66
	223	44.8	4.49872E-001	1.53469E-008	0.00000E+000	4.50000E-001	1.00329E-003	5	..........a	-327.66
	224	45	4.39943E-001	1.37328E-008	0.00000E+000	4.40000E-001	1.00539E-003	5	..........a	-327.66
	225	45.2	4.29966E-001	1.21242E-008	0.00000E+000	4.30000E-001	9.93592E-004	5	..........a	-327.66
	226	45.4	4.20023E-001	1.05245E-008	0.00000E+000	4.20000E-001	1.00839E-003	5	..........a	-327.66
	227	45.6	4.09964E-001	8.99311E-009	0.00000E+000	4.10000E-001	9.99892E-004	5	..........a	-327.66
	228	45.8	3.99984E-001	7.48138E-009	0.00000E+000	4.00000E-001	9.92292E-004	5	..........a	-327.66
	229	46	3.90032E-001	5.95760E-009	0.00000E+000	3.90000E-001	1.00609E-003	5	..........a	-327.66
	230	46.2	3.80054E-001	4.47351E-009	0.00000E+000	3.80000E-001	9.68592E-004	5	..........a	-327.66
	231	46.4	3.69995E-001	3.06161E-009	0.00000E+000	3.70000E-001	9.87992E-004	5	..........a	-327.66
	232	46.6	3.59978E-001	1.66868E-009	0.00000E+000	3.60000E-001	9.96592E-004	5	..........a	-327.66
	233	46.8	3.50007E-001	2.09344E-010	0.00000E+000	3.50000E-001	9.91292E-004	5	..........a	-327.66
	234	47	3.40050E-001	-1.19157E-009	0.00000E+000	3.40000E-001	9.92392E-004	5	..........a	-327.66
	235	47.2	3.30008E-001	-2.49783E-009	0.00000E+000	3.30000E-001	1.00479E-003	5	..........a	-327.66
	236	47.4	3.20068E-001	-3.78745E-009	0.00000E+000	3.20000E-001	1.00129E-003	5	..........a	-327.66
	237	47.6	3.10073E-001	-5.03612E-009	0.00000E+000	3.10000E-001	1.00349E-003	5	..........a	-327.66
	238	47.8	3.00053E-001	-6.27933E-009	0.00000E+000	3.00000E-001	9.91492E-004	5	..........a	-327.66
	239	48	2.90031E-001	-7.44473E-009	0.00000E+000	2.90000E-001	1.00029E-003	5	..........a	-327.66
	240	48.2	2.80009E-001	-8.61217E-009	0.00000E+000	2.80000E-001	1.00999E-003	5	..........a	-327.66
	241	48.4	2.70083E-001	-9.76951E-009	0.00000E+000	2.70000E-001	9.94992E-004	5	..........a	-327.66
	242	48.6	2.60050E-001	-1.08848E-008	0.00000E+000	2.60000E-001	9.60092E-004	5	..........a	-327.66
	243	48.8	2.49993E-001	-1.19518E-008	0.00000E+000	2.50000E-001	9.94092E-004	5	..........a	-327.66
	244	49	2.40045E-001	-1.29558E-008	0.00000E+000	2.40000E-001	1.00389E-003	5	..........a	-327.66
	245	49.2	2.30041E-001	-1.39231E-008	0.00000E+000	2.30000E-001	1.00269E-003	5	..........a	-327.66
	246	49.4	2.20003E-001	-1.48758E-008	0.00000E+000	2.20000E-001	9.91092E-004	5	..........a	-327.66
	247	49.6	2.10031E-001	-1.58120E-008	0.00000E+000	2.10000E-001	9.91492E-004	5	..........a	-327.66
	248	49.8	2.00050E-001	-1.66864E-008	0.00000E+000	2.00000E-001	9.85392E-004	5	..........a	-327.66
	249	50	1.90104E-001	-1.75233E-008	0.00000E+000	1.90000E-001	1.00119E-003	5	..........a	-327.66
	250	50.2	1.80086E-001	-1.83245E-008	0.00000E+000	1.80000E-001	9.95392E-004	5	..........a	-327.66
	251	50.4	1.70091E-001	-1.90975E-008	0.00000E+000	1.70000E-001	9.87992E-004	5	..........a	-327.66
	252	50.6	1.60061E-001	-1.98964E-008	0.00000E+000	1.60000E-001	9.94292E-004	5	..........a	-327.66
	253	50.8	1.50087E-001	-2.06491E-008	0.00000E+000	1.50000E-001	9.93092E-004	5	..........a	-327.66
	254	51	1.40116E-001	-2.13741E-008	0.00000E+000	1.40000E-001	9.88192E-004	5	..........a	-327.66
	255	51.2	1.30049E-001	-2.20773E-008	0.00000E+000	1.30000E-001	9.96192E-004	5	..........a	-327.66
	256	51.4	1.20067E-001	-2.27344E-008	0.00000E+000	1.20000E-001	9.81792E-004	5	..........a	-327.66
	257	51.6	1.10111E-001	-2.34086E-008	0.00000E+000	1.10000E-001	9.95692E-004	5	..........a	-327.66
	258	51.8	1.00125E-001	-2.40602E-008	0.00000E+000	1.00000E-001	1.00289E-003	5	..........a	-327.66
	259	52	9.01176E-002	-2.46794E-008	0.00000E+000	9.00000E-002	9.87692E-004	5	..........a	-327.66
	260	52.2	8.00600E-002	-2.53257E-008	0.00000E+000	8.00000E-002	1.00969E-003	5	..........a	-327.66
	261	52.4	7.00506E-002	-2.59629E-008	0.00000E+000	7.00000E-002	9.93692E-004	5	..........a	-327.66
	262	52.6	6.01156E-002	-2.65550E-008	0.00000E+000	6.00000E-002	9.70292E-004	5	..........a	-327.66
	263	52.8	5.00441E-002	-2.72040E-008	0.00000E+000	5.00000E-002	1.00299E-003	5	..........a	-327.66
	264	53	4.00454E-002	-2.78535E-008	0.00000E+000	4.00000E-002	9.93992E-004	5	..........a	-327.66
	265	53.2	3.00506E-002	-2.84593E-008	0.00000E+000	3.00000E-002	9.92792E-004	5	..........a	-327.66
	266	53.4	2.01790E-002	-2.91105E-008	0.00000E+000	2.00000E-002	9.80892E-004	5	..........a	-327.66
	267	53.6	1.01264E-002	-2.97791E-008	0.00000E+000	1.00000E-002	9.90192E-004	5	..........a	-327.66
	268	53.8	4.87917E-005	-3.05048E-008	0.00000E+000	7.45058E-009	9.91292E-004	5	..........a	-327.66
	269	54	-9.88186E-003	-3.13274E-008	0.00000E+000	-1.00000E-002	9.87192E-004	5	..........a	-327.66
	270	54.2	-1.99086E-002	-3.22464E-008	0.00000E+000	-2.00000E-002	9.82992E-004	5	..........a	-327.66
	271	54.4	-2.99553E-002	-3.29303E-008	0.00000E+000	-3.00000E-002	9.86792E-004	5	..........a	-327.66
	272	54.6	-3.99049E-002	-3.36920E-008	0.00000E+000	-4.00000E-002	9.96092E-004	5	..........a	-327.66
	273	54.8	-4.98759E-002	-3.43198E-008	0.00000E+000	-5.00000E-002	9.85192E-004	5	..........a	-327.66
	274	55	-5.98846E-002	-3.51125E-008	0.00000E+000	-6.00000E-002	9.82492E-004	5	..........a	-327.66
	275	55.2	-6.98947E-002	-3.58869E-008	0.00000E+000	-7.00000E-002	9.79992E-004	5	..........a	-327.66
	276	55.4	-7.99189E-002	-3.66679E-008	0.00000E+000	-8.00000E-002	9.90792E-004	5	..........a	-327.66
	277	55.6	-8.98881E-002	-3.75171E-008	0.00000E+000	-9.00000E-002	9.91092E-004	5	..........a	-327.66
	278	55.8	-9.98858E-002	-3.84056E-008	0.00000E+000	-1.00000E-001	9.84192E-004	5	..........a	-327.66
	279	56	-1.09928E-001	-3.92891E-008	0.00000E+000	-1.10000E-001	9.99492E-004	5	..........a	-327.66
	280	56.2	-1.19894E-001	-4.01269E-008	0.00000E+000	-1.20000E-001	1.00509E-003	5	..........a	-327.66
	281	56.4	-1.29916E-001	-4.10690E-008	0.00000E+000	-1.30000E-001	9.95892E-004	5	..........a	-327.66
	282	56.6	-1.39914E-001	-4.19995E-008	0.00000E+000	-1.40000E-001	9.99992E-004	5	..........a	-327.66
	283	56.8	-1.49949E-001	-4.28505E-008	0.00000E+000	-1.50000E-001	1.00479E-003	5	..........a	-327.66
	284	57	-1.59938E-001	-4.37775E-008	0.00000E+000	-1.60000E-001	1.00789E-003	5	..........a	-327.66
	285	57.2	-1.69869E-001	-4.46370E-008	0.00000E+000	-1.70000E-001	9.81292E-004	5	..........a	-327.66
	286	57.4	-1.79877E-001	-4.56053E-008	0.00000E+000	-1.80000E-001	9.82892E-004	5	..........a	-327.66
	287	57.6	-1.89945E-001	-4.65326E-008	0.00000E+000	-1.90000E-001	9.97392E-004	5	..........a	-327.66
	288	57.8	-1.99937E-001	-4.75732E-008	0.00000E+000	-2.00000E-001	1.00209E-003	5	..........a	-327.66
	289	58	-2.09882E-001	-4.84796E-008	0.00000E+000	-2.10000E-001	9.78592E-004	5	..........a	-327.66
	290	58.2	-2.19844E-001	-4.93722E-008	0.00000E+000	-2.20000E-001	9.80492E-004	5	..........a	-327.66
	291	58.4	-2.29897E-001	-5.04529E-008	0.00000E+000	-2.30000E-001	1.00499E-003	5	..........a	-327.66
	292	58.6	-2.39871E-001	-5.14022E-008	0.00000E+000	-2.40000E-001	9.87492E-004	5	..........a	-327.66
	293	58.8	-2.49868E-001	-5.24411E-008	0.00000E+000	-2.50000E-001	1.00089E-003	5	..........a	-327.66
	294	59	-2.59795E-001	-5.34630E-008	0.00000E+000	-2.60000E-001	9.88892E-004	5	..........a	-327.66
	295	59.2	-2.69851E-001	-5.45446E-008	0.00000E+000	-2.70000E-001	9.73592E-004	5	..........a	-327.66
	296	59.4	-2.79859E-001	-5.55693E-008	0.00000E+000	-2.80000E-001	9.93892E-004	5	..........a	-327.66
	297	59.6	-2.89873E-001	-5.66537E-008	0.00000E+000	-2.90000E-001	9.90692E-004	5	..........a	-327.66
	298	59.8	-2.99834E-001	-5.76840E-008	0.00000E+000	-3.00000E-001	9.90792E-004	5	..........a	-327.66
	299	60	-3.09900E-001	-5.87349E-008	0.00000E+000	-3.10000E-001	9.78392E-004	5	..........a	-327.66
	300	60.2	-3.19833E-001	-5.97706E-008	0.00000E+000	-3.20000E-001	9.97092E-004	5	..........a	-327.66
	301	60.4	-3.29867E-001	-6.08749E-008	0.00000E+000	-3.30000E-001	1.00129E-003	5	..........a	-327.66
	302	60.6	-3.39810E-001	-6.19529E-008	0.00000E+000	-3.40000E-001	9.83292E-004	5	..........a	-327.66
	303	60.8	-3.49860E-001	-6.30222E-008	0.00000E+000	-3.50000E-001	9.88692E-004	5	..........a	-327.66
	304	61	-3.59903E-001	-6.40988E-008	0.00000E+000	-3.60000E-001	1.01089E-003	5	..........a	-327.66
	305	61.2	-3.69852E-001	-6.51283E-008	0.00000E+000	-3.70000E-001	9.92392E-004	5	..........a	-327.66
	306	61.4	-3.79817E-001	-6.62580E-008	0.00000E+000	-3.80000E-001	9.85792E-004	5	..........a	-327.66
	307	61.6	-3.89886E-001	-6.73166E-008	0.00000E+000	-3.90000E-001	9.98392E-004	5	..........a	-327.66
	308	61.8	-3.99867E-001	-6.84193E-008	0.00000E+000	-4.00000E-001	9.96792E-004	5	..........a	-327.66
	309	62	-4.09840E-001	-6.96200E-008	0.00000E+000	-4.10000E-001	9.91592E-004	5	..........a	-327.66
	310	62.2	-4.19782E-001	-7.07056E-008	0.00000E+000	-4.20000E-001	1.00189E-003	5	..........a	-327.66
	311	62.4	-4.29837E-001	-7.18815E-008	0.00000E+000	-4.30000E-001	9.94392E-004	5	..........a	-327.66
	312	62.6	-4.39842E-001	-7.30995E-008	0.00000E+000	-4.40000E-001	9.99292E-004	5	..........a	-327.66
	313	62.8	-4.49830E-001	-7.42930E-008	0.00000E+000	-4.50000E-001	9.76192E-004	5	..........a	-327.66
	314	63	-4.59773E-001	-7.54517E-008	0.00000E+000	-4.60000E-001	1.00419E-003	5	..........a	-327.66
	315	63.2	-4.69835E-001	-7.67378E-008	0.00000E+000	-4.70000E-001	9.97692E-004	5	..........a	-327.66
	316	63.4	-4.79836E-001	-7.81236E-008	0.00000E+000	-4.80000E-001	1.01109E-003	5	..........a	-327.66
	317	63.6	-4.89843E-001	-7.94499E-008	0.00000E+000	-4.90000E-001	1.01119E-003	5	..........a	-327.66
	318	63.8	-4.99806E-001	-8.08657E-008	0.00000E+000	-5.00000E-001	9.93892E-004	5	..........a	-327.66
	319	64	-5.09838E-001	-8.22086E-008	0.00000E+000	-5.10000E-001	9.96592E-004	5	..........a	-327.66
	320	64.2	-5.19865E-001	-8.36023E-008	0.00000E+000	-5.20000E-001	9.99092E-004	5	..........a	-327.66
	321	64.4	-5.29824E-001	-8.50631E-008	0.00000E+000	-5.30000E-001	1.01169E-003	5	..........a	-327.66
	322	64.6	-5.39766E-001	-8.65168E-008	0.00000E+000	-5.40000E-001	9.88792E-004	5	..........a	-327.66
	323	64.8	-5.49846E-001	-8.79995E-008	0.00000E+000	-5.50000E-001	9.91992E-004	5	..........a	-327.66
	324	65	-5.59859E-001	-8.94833E-008	0.00000E+000	-5.60000E-001	1.00229E-003	5	..........a	-327.66
	325	65.2	-5.69828E-001	-9.09884E-008	0.00000E+000	-5.70000E-001	1.00959E-003	5	..........a	-327.66
	326	65.4	-5.79797E-001	-9.25245E-008	0.00000E+000	-5.80000E-001	9.97492E-004	5	..........a	-327.66
	327	65.6	-5.89863E-001	-9.41130E-008	0.00000E+000	-5.90000E-001	9.97892E-004	5	..........a	-327.66
	328	65.8	-5.99865E-001	-9.56278E-008	0.00000E+000	-6.00000E-001	9.80092E-004	5	..........a	-327.66
	329	66	-5.89852E-001	-8.30250E-008	0.00000E+000	-5.90000E-001	1.00229E-003	5	..........a	-327.66
	330	66.2	-5.79800E-001	-7.46855E-008	0.00000E+000	-5.80000E-001	1.00349E-003	5	..........a	-327.66
	331	66.4	-5.69851E-001	-6.82634E-008	0.00000E+000	-5.70000E-001	9.91092E-004	5	..........a	-327.66
	332	66.6	-5.59852E-001	-6.30898E-008	0.00000E+000	-5.60000E-001	9.89092E-004	5	..........a	-327.66
	333	66.8	-5.49882E-001	-5.85331E-008	0.00000E+000	-5.50000E-001	9.84292E-004	5	..........a	-327.66
	334	67	-5.39783E-001	-5.46036E-008	0.00000E+000	-5.40000E-001	9.82892E-004	5	..........a	-327.66
	335	67.2	-5.29841E-001	-5.09920E-008	0.00000E+000	-5.30000E-001	1.00569E-003	5	..........a	-327.66
	336	67.4	-5.19870E-001	-4.78475E-008	0.00000E+000	-5.20000E-001	9.83092E-004	5	..........a	-327.66
	337	67.6	-5.09834E-001	-4.47693E-008	0.00000E+000	-5.10000E-001	9.86792E-004	5	..........a	-327.66
	338	67.8	-4.99822E-001	-4.19329E-008	0.00000E+000	-5.00000E-001	9.86992E-004	5	..........a	-327.66
	339	68	-4.89839E-001	-3.92536E-008	0.00000E+000	-4.90000E-001	9.99592E-004	5	..........a	-327.66
	340	68.2	-4.79851E-001	-3.67679E-008	0.00000E+000	-4.80000E-001	1.01699E-003	5	..........a	-327.66
	341	68.4	-4.69835E-001	-3.44054E-008	0.00000E+000	-4.70000E-001	9.95392E-004	5	..........a	-327.66
	342	68.6	-4.59820E-001	-3.21105E-008	0.00000E+000	-4.60000E-001	9.85292E-004	5	..........a	-327.66
	343	68.8	-4.49833E-001	-2.99293E-008	0.00000E+000	-4.50000E-001	9.96692E-004	5	..........a	-327.66
	344	69	-4.39908E-001	-2.78305E-008	0.00000E+000	-4.40000E-001	1.01429E-003	5	..........a	-327.66
	345	69.2	-4.29858E-001	-2.58384E-008	0.00000E+000	-4.30000E-001	1.00049E-003	5	..........a	-327.66
	346	69.4	-4.19808E-001	-2.38985E-008	0.00000E+000	-4.20000E-001	9.88292E-004	5	..........a	-327.66
	347	69.6	-4.09862E-001	-2.20334E-008	0.00000E+000	-4.10000E-001	1.02349E-003	5	..........a	-327.66
	348	69.8	-3.99845E-001	-2.01877E-008	0.00000E+000	-4.00000E-001	9.96392E-004	5	..........a	-327.66
	349	70	-3.89887E-001	-1.84759E-008	0.00000E+000	-3.90000E-001	9.97392E-004	5	..........a	-327.66
	350	70.2	-3.79843E-001	-1.67598E-008	0.00000E+000	-3.80000E-001	9.79792E-004	5	..........a	-327.66
	351	70.4	-3.69856E-001	-1.51100E-008	0.00000E+000	-3.70000E-001	1.00879E-003	5	..........a	-327.66
	352	70.6	-3.59853E-001	-1.35117E-008	0.00000E+000	-3.60000E-001	9.97992E-004	5	..........a	-327.66
[...]
	920	184.2	-2.79857E-001	-3.73325E-009	0.00000E+000	-2.80000E-001	1.00119E-003	5	..........a	-327.66
	921	184.4	-2.69878E-001	-2.32814E-009	0.00000E+000	-2.70000E-001	9.93992E-004	5	..........a	-327.66
	922	184.6	-2.59835E-001	-9.65189E-010	0.00000E+000	-2.60000E-001	9.71192E-004	5	..........a	-327.66
	923	184.8	-2.49896E-001	3.83961E-010	0.00000E+000	-2.50000E-001	9.99492E-004	5	..........a	-327.66
	924	185	-2.39920E-001	1.74628E-009	0.00000E+000	-2.40000E-001	9.77892E-004	5	..........a	-327.66
	925	185.2	-2.29969E-001	3.06965E-009	0.00000E+000	-2.30000E-001	1.01069E-003	5	..........a	-327.66
	926	185.4	-2.19871E-001	4.37391E-009	0.00000E+000	-2.20000E-001	9.84492E-004	5	..........a	-327.66
	927	185.6	-2.09902E-001	5.65598E-009	0.00000E+000	-2.10000E-001	1.01489E-003	5	..........a	-327.66
	928	185.8	-1.99959E-001	6.94806E-009	0.00000E+000	-2.00000E-001	1.00839E-003	5	..........a	-327.66
	929	186	-1.89911E-001	8.18440E-009	0.00000E+000	-1.90000E-001	9.96492E-004	5	..........a	-327.66
	930	186.2	-1.79919E-001	9.42452E-009	0.00000E+000	-1.80000E-001	9.93292E-004	5	..........a	-327.66
	931	186.4	-1.69898E-001	1.06372E-008	0.00000E+000	-1.70000E-001	9.94292E-004	5	..........a	-327.66
	932	186.6	-1.59984E-001	1.18610E-008	0.00000E+000	-1.60000E-001	1.01929E-003	5	..........a	-327.66
	933	186.8	-1.50004E-001	1.30775E-008	0.00000E+000	-1.50000E-001	9.89192E-004	5	..........a	-327.66
	934	187	-1.39922E-001	1.42411E-008	0.00000E+000	-1.40000E-001	9.95592E-004	5	..........a	-327.66
	935	187.2	-1.29983E-001	1.54083E-008	0.00000E+000	-1.30000E-001	1.01119E-003	5	..........a	-327.66
	936	187.4	-1.19950E-001	1.66146E-008	0.00000E+000	-1.20000E-001	9.97692E-004	5	..........a	-327.66
	937	187.6	-1.10082E-001	1.77626E-008	0.00000E+000	-1.10000E-001	1.00199E-003	5	..........a	-327.66
	938	187.8	-9.99187E-002	1.89411E-008	0.00000E+000	-1.00000E-001	9.92692E-004	5	..........a	-327.66
	939	188	-8.99080E-002	2.00803E-008	0.00000E+000	-9.00000E-002	9.97692E-004	5	..........a	-327.66
	940	188.2	-7.99637E-002	2.12262E-008	0.00000E+000	-8.00000E-002	1.02709E-003	5	..........a	-327.66
	941	188.4	-6.99230E-002	2.23779E-008	0.00000E+000	-7.00000E-002	9.95392E-004	5	..........a	-327.66
	942	188.6	-5.99093E-002	2.34985E-008	0.00000E+000	-6.00000E-002	9.90692E-004	5	..........a	-327.66
	943	188.8	-4.99293E-002	2.46292E-008	0.00000E+000	-5.00000E-002	9.98892E-004	5	..........a	-327.66
	944	189	-3.99405E-002	2.57395E-008	0.00000E+000	-4.00000E-002	1.00839E-003	5	..........a	-327.66
	945	189.2	-2.99677E-002	2.68663E-008	0.00000E+000	-3.00000E-002	1.00479E-003	5	..........a	-327.66
	946	189.4	-1.99241E-002	2.79687E-008	0.00000E+000	-2.00000E-002	1.00779E-003	5	..........a	-327.66
	947	189.6	-9.91561E-003	2.90602E-008	0.00000E+000	-1.00000E-002	1.00129E-003	5	..........a	-327.66
	948	189.8	1.67917E-005	3.01600E-008	0.00000E+000	7.45058E-009	1.01169E-003	5	..........a	-327.66
	949	190	1.01020E-002	3.12435E-008	0.00000E+000	1.00000E-002	9.96592E-004	5	..........a	-327.66
	950	190.2	2.01503E-002	3.23649E-008	0.00000E+000	2.00000E-002	1.00429E-003	5	..........a	-327.66
	951	190.4	2.99703E-002	3.34678E-008	0.00000E+000	3.00000E-002	1.01109E-003	5	..........a	-327.66
	952	190.6	4.00640E-002	3.45624E-008	0.00000E+000	4.00000E-002	9.93692E-004	5	..........a	-327.66
	953	190.8	5.00090E-002	3.56613E-008	0.00000E+000	5.00000E-002	1.01049E-003	5	..........a	-327.66
	954	191	6.00899E-002	3.67544E-008	0.00000E+000	6.00000E-002	9.84192E-004	5	..........a	-327.66
	955	191.2	7.00463E-002	3.78949E-008	0.00000E+000	7.00000E-002	1.02139E-003	5	..........a	-327.66
	956	191.4	7.99942E-002	3.90205E-008	0.00000E+000	8.00000E-002	1.00399E-003	5	..........a	-327.66
	957	191.6	9.00952E-002	4.01424E-008	0.00000E+000	9.00000E-002	1.00169E-003	5	..........a	-327.66
	958	191.8	1.00066E-001	4.13102E-008	0.00000E+000	1.00000E-001	1.00649E-003	5	..........a	-327.66
	959	192	1.10092E-001	4.25135E-008	0.00000E+000	1.10000E-001	1.00279E-003	5	..........a	-327.66
	960	192.2	1.19971E-001	4.40276E-008	0.00000E+000	1.20000E-001	1.00569E-003	5	..........a	-327.66
	961	192.4	1.30054E-001	4.56255E-008	0.00000E+000	1.30000E-001	1.01739E-003	5	..........a	-327.66
	962	192.6	1.40097E-001	4.70587E-008	0.00000E+000	1.40000E-001	1.00719E-003	5	..........a	-327.66
	963	192.8	1.50043E-001	4.73393E-008	0.00000E+000	1.50000E-001	1.00889E-003	5	..........a	-327.66
	964	193	1.60004E-001	4.82955E-008	0.00000E+000	1.60000E-001	1.01919E-003	5	..........a	-327.66
	965	193.2	1.70039E-001	4.94397E-008	0.00000E+000	1.70000E-001	9.81792E-004	5	..........a	-327.66
	966	193.4	1.80071E-001	5.05812E-008	0.00000E+000	1.80000E-001	1.00969E-003	5	..........a	-327.66
	967	193.6	1.90093E-001	5.17250E-008	0.00000E+000	1.90000E-001	9.82692E-004	5	..........a	-327.66
	968	193.8	2.00023E-001	5.28688E-008	0.00000E+000	2.00000E-001	1.01399E-003	5	..........a	-327.66
	969	194	2.09932E-001	5.40423E-008	0.00000E+000	2.10000E-001	1.01599E-003	5	..........a	-327.66
	970	194.2	2.20077E-001	5.52134E-008	0.00000E+000	2.20000E-001	9.87892E-004	5	..........a	-327.66
	971	194.4	2.29992E-001	5.62914E-008	0.00000E+000	2.30000E-001	1.00549E-003	5	..........a	-327.66
	972	194.6	2.40015E-001	5.74624E-008	0.00000E+000	2.40000E-001	1.01259E-003	5	..........a	-327.66
	973	194.8	2.49951E-001	5.85900E-008	0.00000E+000	2.50000E-001	9.99292E-004	5	..........a	-327.66
	974	195	2.60000E-001	5.97333E-008	0.00000E+000	2.60000E-001	9.92892E-004	5	..........a	-327.66
	975	195.2	2.70077E-001	6.08414E-008	0.00000E+000	2.70000E-001	9.81592E-004	5	..........a	-327.66
	976	195.4	2.79960E-001	6.19902E-008	0.00000E+000	2.80000E-001	1.00549E-003	5	..........a	-327.66
	977	195.6	2.90027E-001	6.31146E-008	0.00000E+000	2.90000E-001	9.91692E-004	5	..........a	-327.66
	978	195.8	3.00035E-001	6.42711E-008	0.00000E+000	3.00000E-001	9.96092E-004	5	..........a	-327.66
	979	196	3.10009E-001	6.54096E-008	0.00000E+000	3.10000E-001	9.90192E-004	5	..........a	-327.66
	980	196.2	3.20006E-001	6.65223E-008	0.00000E+000	3.20000E-001	9.98892E-004	5	..........a	-327.66
	981	196.4	3.29986E-001	6.77252E-008	0.00000E+000	3.30000E-001	1.00749E-003	5	..........a	-327.66
	982	196.6	3.40025E-001	6.89127E-008	0.00000E+000	3.40000E-001	9.99092E-004	5	..........a	-327.66
	983	196.8	3.50001E-001	7.01142E-008	0.00000E+000	3.50000E-001	1.00559E-003	5	..........a	-327.66
	984	197	3.59987E-001	7.13414E-008	0.00000E+000	3.60000E-001	1.00279E-003	5	..........a	-327.66
	985	197.2	3.70021E-001	7.25811E-008	0.00000E+000	3.70000E-001	1.00339E-003	5	..........a	-327.66
	986	197.4	3.80021E-001	7.38603E-008	0.00000E+000	3.80000E-001	9.95392E-004	5	..........a	-327.66
	987	197.6	3.90011E-001	7.51977E-008	0.00000E+000	3.90000E-001	1.00659E-003	5	..........a	-327.66
	988	197.8	3.99996E-001	7.64994E-008	0.00000E+000	4.00000E-001	1.00349E-003	5	..........a	-327.66
	989	198	4.09989E-001	7.78575E-008	0.00000E+000	4.10000E-001	9.98292E-004	5	..........a	-327.66
	990	198.2	4.19980E-001	7.92650E-008	0.00000E+000	4.20000E-001	9.97492E-004	5	..........a	-327.66
	991	198.4	4.29974E-001	8.07056E-008	0.00000E+000	4.30000E-001	1.01039E-003	5	..........a	-327.66
	992	198.6	4.39933E-001	8.21370E-008	0.00000E+000	4.40000E-001	1.01359E-003	5	..........a	-327.66
	993	198.8	4.49761E-001	8.36288E-008	0.00000E+000	4.50000E-001	9.87692E-004	5	..........a	-327.66
	994	199	4.59958E-001	8.51029E-008	0.00000E+000	4.60000E-001	9.98492E-004	5	..........a	-327.66
	995	199.2	4.70004E-001	8.65883E-008	0.00000E+000	4.70000E-001	1.01469E-003	5	..........a	-327.66
	996	199.4	4.79916E-001	8.81097E-008	0.00000E+000	4.80000E-001	1.00949E-003	5	..........a	-327.66
	997	199.6	4.89908E-001	8.96094E-008	0.00000E+000	4.90000E-001	1.00099E-003	5	..........a	-327.66
	998	199.8	4.99971E-001	9.11808E-008	0.00000E+000	5.00000E-001	9.96492E-004	5	..........a	-327.66
	999	200	5.09982E-001	9.27773E-008	0.00000E+000	5.10000E-001	1.00739E-003	5	..........a	-327.66
	1000	200.2	5.19960E-001	9.43944E-008	0.00000E+000	5.20000E-001	1.00529E-003	5	..........a	-327.66
	1001	200.4	5.29963E-001	9.60654E-008	0.00000E+000	5.30000E-001	9.88092E-004	5	..........a	-327.66
	1002	200.6	5.39961E-001	9.77774E-008	0.00000E+000	5.40000E-001	1.01569E-003	5	..........a	-327.66
	1003	200.8	5.50004E-001	9.95571E-008	0.00000E+000	5.50000E-001	1.00479E-003	5	..........a	-327.66
	1004	201	5.59939E-001	1.01340E-007	0.00000E+000	5.60000E-001	1.00969E-003	5	..........a	-327.66
	1005	201.2	5.69950E-001	1.03179E-007	0.00000E+000	5.70000E-001	9.99392E-004	5	..........a	-327.66
	1006	201.4	5.79967E-001	1.05100E-007	0.00000E+000	5.80000E-001	1.00509E-003	5	..........a	-327.66
	1007	201.6	5.89995E-001	1.07057E-007	0.00000E+000	5.90000E-001	1.00789E-003	5	..........a	-327.66
	1008	201.8	5.99952E-001	1.09067E-007	0.00000E+000	6.00000E-001	9.90292E-004	5	..........a	-327.66
	1009	202	6.09937E-001	1.11176E-007	0.00000E+000	6.10000E-001	1.00529E-003	5	..........a	-327.66
	1010	202.2	6.19898E-001	1.13369E-007	0.00000E+000	6.20000E-001	9.86892E-004	5	..........a	-327.66
	1011	202.4	6.29986E-001	1.15623E-007	0.00000E+000	6.30000E-001	9.97692E-004	5	..........a	-327.66
	1012	202.6	6.39881E-001	1.18002E-007	0.00000E+000	6.40000E-001	1.01499E-003	5	..........a	-327.66
	1013	202.8	6.49897E-001	1.20447E-007	0.00000E+000	6.50000E-001	9.89292E-004	5	..........a	-327.66
	1014	203	6.59905E-001	1.23020E-007	0.00000E+000	6.60000E-001	9.95292E-004	5	..........a	-327.66
	1015	203.2	6.69949E-001	1.25729E-007	0.00000E+000	6.70000E-001	1.01799E-003	5	..........a	-327.66
	1016	203.4	6.79886E-001	1.28481E-007	0.00000E+000	6.80000E-001	9.88292E-004	5	..........a	-327.66
	1017	203.6	6.89882E-001	1.31350E-007	0.00000E+000	6.90000E-001	1.00149E-003	5	..........a	-327.66
	1018	203.8	6.99887E-001	1.34365E-007	0.00000E+000	7.00000E-001	1.00129E-003	5	..........a	-327.66
	1019	204	7.09968E-001	1.37573E-007	0.00000E+000	7.10000E-001	1.00859E-003	5	..........a	-327.66
	1020	204.2	7.19882E-001	1.40964E-007	0.00000E+000	7.20000E-001	1.00549E-003	5	..........a	-327.66
	1021	204.4	7.29927E-001	1.44485E-007	0.00000E+000	7.30000E-001	9.92392E-004	5	..........a	-327.66
	1022	204.6	7.39891E-001	1.48308E-007	0.00000E+000	7.40000E-001	1.00589E-003	5	..........a	-327.66
	1023	204.8	7.49961E-001	1.52382E-007	0.00000E+000	7.50000E-001	1.00139E-003	5	..........a	-327.66
	1024	205	7.59875E-001	1.56754E-007	0.00000E+000	7.60000E-001	9.86792E-004	5	..........a	-327.66
	1025	205.2	7.69883E-001	1.61346E-007	0.00000E+000	7.70000E-001	1.02459E-003	5	..........a	-327.66
	1026	205.4	7.79873E-001	1.66244E-007	0.00000E+000	7.80000E-001	9.67292E-004	5	..........a	-327.66
	1027	205.6	7.89954E-001	1.71516E-007	0.00000E+000	7.90000E-001	1.01259E-003	5	..........a	-327.66
	1028	205.8	7.99867E-001	1.77088E-007	0.00000E+000	8.00000E-001	1.02089E-003	5	..........a	-327.66
CURVE5	TABLE
	Pt	T	Vf	Im	Vu	Sig	Ach	IERange	Over	Temp
	#	s	V vs. Ref.	A	V	V	V	#	bits	deg C
	1029	206	7.89959E-001	1.46551E-007	0.00000E+000	7.90000E-001	1.01009E-003	5	..........a	-327.66
	1030	206.2	7.79897E-001	1.27484E-007	0.00000E+000	7.80000E-001	9.91392E-004	5	..........a	-327.66
	1031	206.4	7.69891E-001	1.13914E-007	0.00000E+000	7.70000E-001	1.01049E-003	5	..........a	-327.66
	1032	206.6	7.59899E-001	1.03510E-007	0.00000E+000	7.60000E-001	1.00669E-003	5	..........a	-327.66
	1033	206.8	7.49973E-001	9.52252E-008	0.00000E+000	7.50000E-001	1.00199E-003	5	..........a	-327.66
	1034	207	7.39909E-001	8.82979E-008	0.00000E+000	7.40000E-001	9.98392E-004	5	..........a	-327.66
	1035	207.2	7.29932E-001	8.23794E-008	0.00000E+000	7.30000E-001	1.01559E-003	5	..........a	-327.66
	1036	207.4	7.19921E-001	7.71907E-008	0.00000E+000	7.20000E-001	9.83092E-004	5	..........a	-327.66
	1037	207.6	7.09989E-001	7.25146E-008	0.00000E+000	7.10000E-001	1.01859E-003	5	..........a	-327.66
	1038	207.8	6.99938E-001	6.82797E-008	0.00000E+000	7.00000E-001	1.00829E-003	5	..........a	-327.66
	1039	208	6.89876E-001	6.43292E-008	0.00000E+000	6.90000E-001	1.01599E-003	5	..........a	-327.66
	1040	208.2	6.79994E-001	6.07180E-008	0.00000E+000	6.80000E-001	1.01049E-003	5	..........a	-327.66
	1041	208.4	6.69985E-001	5.72460E-008	0.00000E+000	6.70000E-001	1.00369E-003	5	..........a	-327.66
	1042	208.6	6.59953E-001	5.40210E-008	0.00000E+000	6.60000E-001	9.97892E-004	5	..........a	-327.66
	1043	208.8	6.49949E-001	5.08781E-008	0.00000E+000	6.50000E-001	1.01629E-003	5	..........a	-327.66
	1044	209	6.39900E-001	4.79337E-008	0.00000E+000	6.40000E-001	1.01479E-003	5	..........a	-327.66
	1045	209.2	6.30029E-001	4.50665E-008	0.00000E+000	6.30000E-001	9.89492E-004	5	..........a	-327.66
	1046	209.4	6.19936E-001	4.22947E-008	0.00000E+000	6.20000E-001	1.00509E-003	5	..........a	-327.66
	1047	209.6	6.09991E-001	3.96142E-008	0.00000E+000	6.10000E-001	9.96492E-004	5	..........a	-327.66
	1048	209.8	6.00008E-001	3.70964E-008	0.00000E+000	6.00000E-001	1.00219E-003	5	..........a	-327.66
	1049	210	5.90022E-001	3.47110E-008	0.00000E+000	5.90000E-001	1.02169E-003	5	..........a	-327.66
	1050	210.2	5.80031E-001	3.24426E-008	0.00000E+000	5.80000E-001	1.00039E-003	5	..........a	-327.66
	1051	210.4	5.69984E-001	3.02990E-008	0.00000E+000	5.70000E-001	1.01609E-003	5	..........a	-327.66
	1052	210.6	5.59948E-001	2.82563E-008	0.00000E+000	5.60000E-001	1.02279E-003	5	..........a	-327.66
	1053	210.8	5.50056E-001	2.62007E-008	0.00000E+000	5.50000E-001	9.94892E-004	5	..........a	-327.66
	1054	211	5.40028E-001	2.41226E-008	0.00000E+000	5.40000E-001	9.95292E-004	5	..........a	-327.66
	1055	211.2	5.29992E-001	2.20858E-008	0.00000E+000	5.30000E-001	9.98392E-004	5	..........a	-327.66
	1056	211.4	5.20002E-001	2.01818E-008	0.00000E+000	5.20000E-001	1.01089E-003	5	..........a	-327.66
	1057	211.6	5.09968E-001	1.83868E-008	0.00000E+000	5.10000E-001	1.00759E-003	5	..........a	-327.66
	1058	211.8	5.00068E-001	1.67080E-008	0.00000E+000	5.00000E-001	9.87592E-004	5	..........a	-327.66
	1059	212	4.89977E-001	1.51588E-008	0.00000E+000	4.90000E-001	9.97992E-004	5	..........a	-327.66
	1060	212.2	4.79927E-001	1.36735E-008	0.00000E+000	4.80000E-001	9.99692E-004	5	..........a	-327.66
	1061	212.4	4.70035E-001	1.21337E-008	0.00000E+000	4.70000E-001	1.01139E-003	5	..........a	-327.66
	1062	212.6	4.60033E-001	1.06036E-008	0.00000E+000	4.60000E-001	9.86892E-004	5	..........a	-327.66
	1063	212.8	4.50059E-001	8.99779E-009	0.00000E+000	4.50000E-001	9.98392E-004	5	..........a	-327.66
	1064	213	4.39947E-001	7.48604E-009	0.00000E+000	4.40000E-001	1.00089E-003	5	..........a	-327.66
	1065	213.2	4.30006E-001	5.93214E-009	0.00000E+000	4.30000E-001	1.00409E-003	5	..........a	-327.66
	1066	213.4	4.20032E-001	4.39464E-009	0.00000E+000	4.20000E-001	9.99092E-004	5	..........a	-327.66
	1067	213.6	4.09942E-001	2.87888E-009	0.00000E+000	4.10000E-001	1.01809E-003	5	..........a	-327.66
	1068	213.8	4.00018E-001	1.41075E-009	0.00000E+000	4.00000E-001	1.01009E-003	5	..........a	-327.66
	1069	214	3.90042E-001	-8.49067E-011	0.00000E+000	3.90000E-001	1.01169E-003	5	..........a	-327.66
	1070	214.2	3.80074E-001	-1.56283E-009	0.00000E+000	3.80000E-001	1.00789E-003	5	..........a	-327.66
	1071	214.4	3.70072E-001	-3.00025E-009	0.00000E+000	3.70000E-001	9.91892E-004	5	..........a	-327.66
	1072	214.6	3.60052E-001	-4.40204E-009	0.00000E+000	3.60000E-001	1.00489E-003	5	..........a	-327.66
	1073	214.8	3.50067E-001	-5.82623E-009	0.00000E+000	3.50000E-001	9.96292E-004	5	..........a	-327.66
	1074	215	3.40093E-001	-7.19160E-009	0.00000E+000	3.40000E-001	9.81392E-004	5	..........a	-327.66
	1075	215.2	3.30054E-001	-8.51668E-009	0.00000E+000	3.30000E-001	1.00739E-003	5	..........a	-327.66
	1076	215.4	3.20073E-001	-9.86046E-009	0.00000E+000	3.20000E-001	1.00309E-003	5	..........a	-327.66
	1077	215.6	3.10064E-001	-1.11973E-008	0.00000E+000	3.10000E-001	1.01509E-003	5	..........a	-327.66
	1078	215.8	3.00092E-001	-1.24610E-008	0.00000E+000	3.00000E-001	9.82292E-004	5	..........a	-327.66
	1079	216	2.90079E-001	-1.36995E-008	0.00000E+000	2.90000E-001	9.87992E-004	5	..........a	-327.66
	1080	216.2	2.80023E-001	-1.49036E-008	0.00000E+000	2.80000E-001	1.00489E-003	5	..........a	-327.66
	1081	216.4	2.70116E-001	-1.61132E-008	0.00000E+000	2.70000E-001	9.92692E-004	5	..........a	-327.66
	1082	216.6	2.60065E-001	-1.72640E-008	0.00000E+000	2.60000E-001	9.88292E-004	5	..........a	-327.66
	1083	216.8	2.50019E-001	-1.83324E-008	0.00000E+000	2.50000E-001	1.00559E-003	5	..........a	-327.66
	1084	217	2.40089E-001	-1.93959E-008	0.00000E+000	2.40000E-001	9.96992E-004	5	..........a	-327.66
	1085	217.2	2.30040E-001	-2.04207E-008	0.00000E+000	2.30000E-001	1.02569E-003	5	..........a	-327.66
	1086	217.4	2.20043E-001	-2.14490E-008	0.00000E+000	2.20000E-001	9.79392E-004	5	..........a	-327.66
	1087	217.6	2.10021E-001	-2.23449E-008	0.00000E+000	2.10000E-001	1.02619E-003	5	..........a	-327.66
	1088	217.8	2.00081E-001	-2.31958E-008	0.00000E+000	2.00000E-001	1.00119E-003	5	..........a	-327.66
	1089	218	1.90136E-001	-2.39819E-008	0.00000E+000	1.90000E-001	9.80292E-004	5	..........a	-327.66
	1090	218.2	1.80124E-001	-2.47128E-008	0.00000E+000	1.80000E-001	1.00329E-003	5	..........a	-327.66
	1091	218.4	1.70091E-001	-2.54091E-008	0.00000E+000	1.70000E-001	1.00049E-003	5	..........a	-327.66
	1092	218.6	1.60092E-001	-2.60473E-008	0.00000E+000	1.60000E-001	1.00719E-003	5	..........a	-327.66
	1093	218.8	1.50085E-001	-2.66158E-008	0.00000E+000	1.50000E-001	1.01829E-003	5	..........a	-327.66
	1094	219	1.40130E-001	-2.71041E-008	0.00000E+000	1.40000E-001	9.95192E-004	5	..........a	-327.66
	1095	219.2	1.30050E-001	-2.76159E-008	0.00000E+000	1.30000E-001	1.00639E-003	5	..........a	-327.66
	1096	219.4	1.20054E-001	-2.80658E-008	0.00000E+000	1.20000E-001	1.00119E-003	5	..........a	-327.66
	1097	219.6	1.10121E-001	-2.85212E-008	0.00000E+000	1.10000E-001	9.91792E-004	5	..........a	-327.66
	1098	219.8	1.00150E-001	-2.89752E-008	0.00000E+000	1.00000E-001	1.00319E-003	5	..........a	-327.66
	1099	220	9.01073E-002	-2.93948E-008	0.00000E+000	9.00000E-002	9.96792E-004	5	..........a	-327.66
	1100	220.2	8.00768E-002	-2.98273E-008	0.00000E+000	8.00000E-002	1.00149E-003	5	..........a	-327.66
	1101	220.4	7.00438E-002	-3.02889E-008	0.00000E+000	7.00000E-002	1.01269E-003	5	..........a	-327.66
	1102	220.6	6.01342E-002	-3.07890E-008	0.00000E+000	6.00000E-002	9.92792E-004	5	..........a	-327.66
	1103	220.8	5.00614E-002	-3.13373E-008	0.00000E+000	5.00000E-002	1.01209E-003	5	..........a	-327.66
	1104	221	4.01602E-002	-3.19627E-008	0.00000E+000	4.00000E-002	1.00149E-003	5	..........a	-327.66
	1105	221.2	3.00495E-002	-3.26281E-008	0.00000E+000	3.00000E-002	1.02499E-003	5	..........a	-327.66
	1106	221.4	2.01510E-002	-3.33052E-008	0.00000E+000	2.00000E-002	9.97892E-004	5	..........a	-327.66
	1107	221.6	1.01279E-002	-3.40909E-008	0.00000E+000	1.00000E-002	9.92292E-004	5	..........a	-327.66
	1108	221.8	5.86917E-005	-3.49321E-008	0.00000E+000	7.45058E-009	9.99792E-004	5	..........a	-327.66
	1109	222	-9.87026E-003	-3.56388E-008	0.00000E+000	-1.00000E-002	1.00069E-003	5	..........a	-327.66
	1110	222.2	-1.98780E-002	-3.55623E-008	0.00000E+000	-2.00000E-002	9.86692E-004	5	..........a	-327.66
	1111	222.4	-2.99080E-002	-3.60801E-008	0.00000E+000	-3.00000E-002	1.00529E-003	5	..........a	-327.66
	1112	222.6	-3.98892E-002	-3.67815E-008	0.00000E+000	-4.00000E-002	9.93592E-004	5	..........a	-327.66
	1113	222.8	-4.99097E-002	-3.74935E-008	0.00000E+000	-5.00000E-002	1.01119E-003	5	..........a	-327.66
	1114	223	-5.98439E-002	-3.83326E-008	0.00000E+000	-6.00000E-002	9.81192E-004	5	..........a	-327.66
	1115	223.2	-6.98826E-002	-3.92005E-008	0.00000E+000	-7.00000E-002	1.00469E-003	5	..........a	-327.66
	1116	223.4	-7.99177E-002	-4.00847E-008	0.00000E+000	-8.00000E-002	9.96292E-004	5	..........a	-327.66
	1117	223.6	-8.98819E-002	-4.10106E-008	0.00000E+000	-9.00000E-002	9.92892E-004	5	..........a	-327.66
	1118	223.8	-9.98740E-002	-4.19581E-008	0.00000E+000	-1.00000E-001	9.85392E-004	5	..........a	-327.66
	1119	224	-1.09954E-001	-4.29111E-008	0.00000E+000	-1.10000E-001	1.01139E-003	5	..........a	-327.66
	1120	224.2	-1.19889E-001	-4.38587E-008	0.00000E+000	-1.20000E-001	1.00299E-003	5	..........a	-327.66