File: example_project/raw_outputs/20240321_ZZH_GM0016_HL03_E15_CV50k.DTA
EXPLAIN
TAG	CV
TITLE	LABEL	Cyclic Voltammetry	Test &Identifier
DATE	LABEL	3/21/2024	Date
TIME	LABEL	19:54:25	Time
NOTES	NOTES	1	&Notes...

PSTAT	PSTAT	REF600P-43058	Potentiostat
VINIT	POTEN	0.00000E+000	T	Initial &E (V)
VLIMIT1	POTEN	-6.00000E-001	F	Scan Limit &1 (V)
VLIMIT2	POTEN	8.00000E-001	F	Scan Limit &2 (V)
VFINAL	POTEN	0.00000E+000	T	Final &E (V)
SCANRATE	QUANT	4.99999E+004	&Scan Rate (mV/s)
STEPSIZE	QUANT	1.00000E+001	St&ep Size (mV)
CYCLES	IQUANT	10	C&ycles (#)
IMODE	SELECTOR	1	I/E Range &Mode
IRANGE	QUANT	1.00000E-005	&Max Current (mA)
AREA	QUANT	1.00000E+000	Electrode &Area (cm^2)
ELECTRODETYPE	SELECTOR	0	Electrode Type
STRIPPING	TOGGLE	F	Used for Stripping
POLARITY	TOGGLE	F	Signal Polarity
CONDIT	TWOPARAM	F	1.50000E+001	0.00000E+000	Conditionin&g	Time(s)	E(V)
DELAY	TWOPARAM	T	1.00000E+001	0.00000E+000	Init. De&lay	Time(s)	Stab.(mV/s)
EQDELAY	QUANT	1.00000E+001	Equil. &Time (s)
IRCOMP	SELECTOR	0	IRCom&p
PFCOR	QUANT	5.00000E+001	PF Corr. (ohm)
SAMPLINGMODE	SELECTOR	1	Sampling &Mode
OCVCURVE	TABLE	39
	Pt	T	Vf	Vm	Ach	Over	Temp
	#	s	V vs. Ref.	V	V	bits	deg C
	0	0.258333	3.05964E-001	3.05964E-001	2.35956E-004	..........a	-327.66
	1	0.516667	3.05971E-001	3.06375E-001	2.42422E-004	..........a	-327.66
	2	0.775	3.06015E-001	3.06532E-001	2.48956E-004	..........a	-327.66
	3	1.03333	3.06126E-001	3.06756E-001	2.46689E-004	..........a	-327.66
	4	1.29167	3.06303E-001	3.07057E-001	2.36822E-004	..........a	-327.66
	5	1.55	3.06523E-001	3.07329E-001	2.54289E-004	..........a	-327.66
	6	1.80833	3.06768E-001	3.07576E-001	2.38556E-004	..........a	-327.66
	7	2.06667	3.07032E-001	3.08000E-001	2.55822E-004	..........a	-327.66
	8	2.325	3.07311E-001	3.08154E-001	2.39689E-004	..........a	-327.66
	9	2.58333	3.07598E-001	3.08367E-001	2.30756E-004	..........a	-327.66
	10	2.84167	3.07877E-001	3.08668E-001	2.42356E-004	..........a	-327.66
	11	3.1	3.08138E-001	3.08936E-001	2.46622E-004	..........a	-327.66
	12	3.35833	3.08391E-001	3.09176E-001	2.45556E-004	..........a	-327.66
	13	3.61667	3.08648E-001	3.09568E-001	2.58689E-004	..........a	-327.66
	14	3.875	3.08916E-001	3.09722E-001	2.50089E-004	..........a	-327.66
	15	4.13333	3.09192E-001	3.09964E-001	2.48422E-004	..........a	-327.66
	16	4.39167	3.09462E-001	3.10252E-001	2.45356E-004	..........a	-327.66
	17	4.65	3.09720E-001	3.10522E-001	2.50222E-004	..........a	-327.66
	18	4.90833	3.09973E-001	3.10761E-001	2.32556E-004	..........a	-327.66
	19	5.16667	3.10232E-001	3.11157E-001	2.49822E-004	..........a	-327.66
	20	5.425	3.10502E-001	3.11311E-001	2.54422E-004	..........a	-327.66
	21	5.68333	3.10779E-001	3.11538E-001	2.52022E-004	..........a	-327.66
	22	5.94167	3.11048E-001	3.11829E-001	2.44489E-004	..........a	-327.66
	23	6.2	3.11304E-001	3.12105E-001	2.58689E-004	..........a	-327.66
	24	6.45833	3.11554E-001	3.12335E-001	2.41956E-004	..........a	-327.66
	25	6.71667	3.11811E-001	3.12680E-001	2.39356E-004	..........a	-327.66
	26	6.975	3.12075E-001	3.12917E-001	2.57089E-004	..........a	-327.66
	27	7.23333	3.12347E-001	3.13111E-001	2.43222E-004	..........a	-327.66
	28	7.49167	3.12616E-001	3.13400E-001	2.38489E-004	..........a	-327.66
	29	7.75	3.12874E-001	3.13667E-001	2.49756E-004	..........a	-327.66
	30	8.00833	3.13127E-001	3.13890E-001	2.36089E-004	..........a	-327.66
	31	8.26667	3.13380E-001	3.14233E-001	2.42222E-004	..........a	-327.66
	32	8.525	3.13640E-001	3.14472E-001	2.52489E-004	..........a	-327.66
	33	8.78333	3.13906E-001	3.14675E-001	2.44956E-004	..........a	-327.66
	34	9.04167	3.14172E-001	3.14939E-001	2.49022E-004	..........a	-327.66
	35	9.3	3.14429E-001	3.15197E-001	2.56822E-004	..........a	-327.66
	36	9.5583	3.14678E-001	3.15458E-001	2.47089E-004	..........a	-327.66
	37	9.8167	3.14927E-001	3.15751E-001	2.36222E-004	..........a	-327.66
	38	10.075	3.15185E-001	3.16031E-001	2.52489E-004	..........a	-327.66
EOC	QUANT	0.3151845	Open Circuit (V)
PSTATMODEL	IQUANT	7	Pstat Model
PSTATSECTION	LABEL	REF600P-43058	Pstat Section
PSTATSERIALNO	LABEL	43058	Pstat Serial Number
CTRLMODE	IQUANT	1	Control Mode
ELECTROMETER	IQUANT	0	RE=0 or CS=1
IESTAB	IQUANT	2	I/E Stability
CASPEED	IQUANT	4	Control Amp Speed
CONVENTION	IQUANT	1	Current Convention
ICHRANGE	IQUANT	2	Ich Range
ICHRANGEMODE	TOGGLE	F	Ich Auto Range
ICHOFFSETENABLE	TOGGLE	F	Ich Offset Enable
ICHOFFSET	QUANT	0	Ich Offset (V)
ICHFILTER	IQUANT	1	Ich Filter
VCHRANGE	IQUANT	2	Vch Range
VCHRANGEMODE	TOGGLE	F	Vch Auto Range
VCHOFFSETENABLE	TOGGLE	F	Vch Offset Enable
VCHOFFSET	QUANT	0	Vch Offset (V)
VCHFILTER	IQUANT	1	Vch Filter
ACHRANGE	IQUANT	2	Ach Range
ACHOFFSETENABLE	TOGGLE	F	Ach Offset Enable
ACHOFFSET	QUANT	0	Ach Offset (V)
ACHFILTER	IQUANT	1	Ach Filter
IERANGELOWERLIMIT	IQUANT	1	I/E Range Lower Limit
IERANGEMODE	TOGGLE	F	I/E AutoRange
IERANGE	IQUANT	4	I/E Range
POSFEEDENABLE	TOGGLE	F	Positive Feedback IR Comp
POSFEEDRESISTANCE	QUANT	0	Positive Feedback Resistance (ohm)
ACHSELECT	IQUANT	4	Ach Select
SENSECABLEID	IQUANT	7	Sense Cable ID
PWRCABLEID	IQUANT	7	Power Cable ID
DCCALDATE	LABEL	12/18/2023	DC Calibration Date
ACCALDATE	LABEL	12/18/2023	AC Calibration Date
THERMOSELECT	IQUANT	1	Thermo Select
FRAMEWORKVERSION	LABEL	7.8.4	Framework Version
INSTRUMENTVERSION	LABEL	4.42	Instrument Version
CURVE1	TABLE
	Pt	T	Vf	Im	Vu	Sig	Ach	IERange	Over	Temp
	#	s	V vs. Ref.	A	V	V	V	#	bits	deg C
	0	0.0002	3.15170E-001	2.47886E-011	0.00000E+000	3.15200E-001	8.00223E-005	4	..........a	-327.66
	1	0.0004	3.05170E-001	-1.52130E-011	0.00000E+000	3.05200E-001	-3.19978E-004	4	..........a	-327.66
	2	0.0006	2.95170E-001	-5.42144E-011	0.00000E+000	2.95200E-001	-3.19978E-004	4	..........a	-327.66
	3	0.0008	2.85070E-001	-9.82161E-011	0.00000E+000	2.85200E-001	8.00223E-005	4	..........a	-327.66
	4	0.001	2.75220E-001	-1.42218E-010	0.00000E+000	2.75200E-001	8.00223E-005	4	..........a	-327.66
	5	0.0012	2.65070E-001	-1.87220E-010	0.00000E+000	2.65200E-001	8.00223E-005	4	..........a	-327.66
	6	0.0014	2.55270E-001	-2.32221E-010	0.00000E+000	2.55200E-001	8.00223E-005	4	..........a	-327.66
	7	0.0016	2.44870E-001	-2.83223E-010	0.00000E+000	2.45200E-001	8.00223E-005	4	..........a	-327.66
	8	0.0018	2.35370E-001	-3.30225E-010	0.00000E+000	2.35200E-001	8.00223E-005	4	..........a	-327.66
	9	0.002	2.25270E-001	-3.82227E-010	0.00000E+000	2.25200E-001	8.00223E-005	4	..........a	-327.66
	10	0.0022	2.15270E-001	-4.34229E-010	0.00000E+000	2.15200E-001	8.00223E-005	4	..........a	-327.66
	11	0.0024	2.05170E-001	-4.91231E-010	0.00000E+000	2.05200E-001	8.00223E-005	4	..........a	-327.66
	12	0.0026	1.95270E-001	-5.46233E-010	0.00000E+000	1.95200E-001	-4.19978E-004	4	..........a	-327.66
	13	0.0028	1.85170E-001	-6.06236E-010	0.00000E+000	1.85200E-001	8.00223E-005	4	..........a	-327.66
	14	0.003	1.75070E-001	-6.66238E-010	0.00000E+000	1.75200E-001	-2.19978E-004	4	..........a	-327.66
	15	0.0032	1.65170E-001	-7.27240E-010	0.00000E+000	1.65200E-001	8.00223E-005	4	..........a	-327.66
	16	0.0034	1.55170E-001	-7.88243E-010	0.00000E+000	1.55200E-001	8.00223E-005	4	..........a	-327.66
	17	0.0036	1.45270E-001	-8.54245E-010	0.00000E+000	1.45200E-001	8.00223E-005	4	..........a	-327.66
	18	0.0038	1.35270E-001	-9.30248E-010	0.00000E+000	1.35200E-001	-4.19978E-004	4	..........a	-327.66
	19	0.004	1.25270E-001	-9.90250E-010	0.00000E+000	1.25200E-001	8.00223E-005	4	..........a	-327.66
	20	0.0042	1.15370E-001	-1.06225E-009	0.00000E+000	1.15200E-001	8.00223E-005	4	..........a	-327.66
	21	0.0044	1.05370E-001	-1.13626E-009	0.00000E+000	1.05200E-001	8.00223E-005	4	..........a	-327.66
	22	0.0046	9.50695E-002	-1.21026E-009	0.00000E+000	9.52000E-002	8.00223E-005	4	..........a	-327.66
	23	0.0048	8.52695E-002	-1.28726E-009	0.00000E+000	8.52000E-002	8.00223E-005	4	..........a	-327.66
	24	0.005	7.52695E-002	-1.36626E-009	0.00000E+000	7.52000E-002	8.00223E-005	4	..........a	-327.66
	25	0.0052	6.52695E-002	-1.44827E-009	0.00000E+000	6.52000E-002	8.00223E-005	4	..........a	-327.66
	26	0.0054	5.52695E-002	-1.53827E-009	0.00000E+000	5.52000E-002	8.00223E-005	4	..........a	-327.66
	27	0.0056	4.51695E-002	-1.61627E-009	0.00000E+000	4.52000E-002	-3.19978E-004	4	..........a	-327.66
	28	0.0058	3.52695E-002	-1.70528E-009	0.00000E+000	3.52000E-002	8.00223E-005	4	..........a	-327.66
	29	0.006	2.51695E-002	-1.79628E-009	0.00000E+000	2.52000E-002	8.00223E-005	4	..........a	-327.66
	30	0.0062	1.44695E-002	-1.88728E-009	0.00000E+000	1.52000E-002	8.00223E-005	4	..........a	-327.66
	31	0.0064	5.16952E-003	-1.98629E-009	0.00000E+000	5.20001E-003	8.00223E-005	4	..........a	-327.66
	32	0.0066	-4.73048E-003	-2.08429E-009	0.00000E+000	-4.80000E-003	8.00223E-005	4	..........a	-327.66
	33	0.0068	-1.47805E-002	-2.18030E-009	0.00000E+000	-1.48000E-002	8.00223E-005	4	..........a	-327.66
	34	0.007	-2.46305E-002	-2.27930E-009	0.00000E+000	-2.48000E-002	8.00223E-005	4	..........a	-327.66
	35	0.0072	-3.47305E-002	-2.38230E-009	0.00000E+000	-3.48000E-002	8.00223E-005	4	..........a	-327.66
	36	0.0074	-4.48305E-002	-2.49031E-009	0.00000E+000	-4.48000E-002	8.00223E-005	4	..........a	-327.66
	37	0.0076	-5.48305E-002	-2.59631E-009	0.00000E+000	-5.48000E-002	8.00223E-005	4	..........a	-327.66
	38	0.0078	-6.48305E-002	-2.70932E-009	0.00000E+000	-6.48000E-002	8.00223E-005	4	..........a	-327.66
	39	0.008	-7.49305E-002	-2.82032E-009	0.00000E+000	-7.48000E-002	-2.19978E-004	4	..........a	-327.66
	40	0.0082	-8.47305E-002	-2.93433E-009	0.00000E+000	-8.48000E-002	8.00223E-005	4	..........a	-327.66
	41	0.0084	-9.47305E-002	-3.04833E-009	0.00000E+000	-9.48000E-002	8.00223E-005	4	..........a	-327.66
	42	0.0086	-1.04630E-001	-3.16433E-009	0.00000E+000	-1.04800E-001	8.00223E-005	4	..........a	-327.66
	43	0.0088	-1.14830E-001	-3.28734E-009	0.00000E+000	-1.14800E-001	8.00223E-005	4	..........a	-327.66
	44	0.009	-1.24730E-001	-3.40534E-009	0.00000E+000	-1.24800E-001	8.00223E-005	4	..........a	-327.66
	45	0.0092	-1.34930E-001	-3.52835E-009	0.00000E+000	-1.34800E-001	8.00223E-005	4	..........a	-327.66
	46	0.0094	-1.44630E-001	-3.65535E-009	0.00000E+000	-1.44800E-001	8.00223E-005	4	..........a	-327.66
	47	0.0096	-1.54930E-001	-3.77536E-009	0.00000E+000	-1.54800E-001	8.00223E-005	4	..........a	-327.66
	48	0.0098	-1.64730E-001	-3.90636E-009	0.00000E+000	-1.64800E-001	8.00223E-005	4	..........a	-327.66
	49	0.01	-1.74830E-001	-4.02837E-009	0.00000E+000	-1.74800E-001	8.00223E-005	4	..........a	-327.66
	50	0.0102	-1.84630E-001	-4.16037E-009	0.00000E+000	-1.84800E-001	8.00223E-005	4	..........a	-327.66
	51	0.0104	-1.94830E-001	-4.29238E-009	0.00000E+000	-1.94800E-001	8.00223E-005	4	..........a	-327.66
	52	0.0106	-2.04530E-001	-4.42038E-009	0.00000E+000	-2.04800E-001	8.00223E-005	4	..........a	-327.66
	53	0.0108	-2.14730E-001	-4.55439E-009	0.00000E+000	-2.14800E-001	8.00223E-005	4	..........a	-327.66
	54	0.011	-2.24730E-001	-4.68839E-009	0.00000E+000	-2.24800E-001	8.00223E-005	4	..........a	-327.66
	55	0.0112	-2.34730E-001	-4.82040E-009	0.00000E+000	-2.34800E-001	8.00223E-005	4	..........a	-327.66
	56	0.0114	-2.44730E-001	-4.95440E-009	0.00000E+000	-2.44800E-001	-3.19978E-004	4	..........a	-327.66
	57	0.0116	-2.54730E-001	-5.09041E-009	0.00000E+000	-2.54800E-001	8.00223E-005	4	..........a	-327.66
	58	0.0118	-2.64630E-001	-5.22641E-009	0.00000E+000	-2.64800E-001	8.00223E-005	4	..........a	-327.66
	59	0.012	-2.74830E-001	-5.36742E-009	0.00000E+000	-2.74800E-001	8.00223E-005	4	..........a	-327.66
	60	0.0122	-2.84730E-001	-5.50642E-009	0.00000E+000	-2.84800E-001	8.00223E-005	4	..........a	-327.66
	61	0.0124	-2.94730E-001	-5.64343E-009	0.00000E+000	-2.94800E-001	8.00223E-005	4	..........a	-327.66
	62	0.0126	-3.04730E-001	-5.78243E-009	0.00000E+000	-3.04800E-001	8.00223E-005	4	..........a	-327.66
	63	0.0128	-3.14730E-001	-5.92444E-009	0.00000E+000	-3.14800E-001	8.00223E-005	4	..........a	-327.66
	64	0.013	-3.24630E-001	-6.06645E-009	0.00000E+000	-3.24800E-001	8.00223E-005	4	..........a	-327.66
	65	0.0132	-3.34830E-001	-6.20645E-009	0.00000E+000	-3.34800E-001	8.00223E-005	4	..........a	-327.66
	66	0.0134	-3.44630E-001	-6.34946E-009	0.00000E+000	-3.44800E-001	8.00223E-005	4	..........a	-327.66
	67	0.0136	-3.54730E-001	-6.48746E-009	0.00000E+000	-3.54800E-001	8.00223E-005	4	..........a	-327.66
	68	0.0138	-3.64630E-001	-6.63847E-009	0.00000E+000	-3.64800E-001	8.00223E-005	4	..........a	-327.66
	69	0.014	-3.74730E-001	-6.78047E-009	0.00000E+000	-3.74800E-001	8.00223E-005	4	..........a	-327.66
	70	0.0142	-3.84530E-001	-6.92448E-009	0.00000E+000	-3.84800E-001	-2.19978E-004	4	..........a	-327.66
	71	0.0144	-3.94730E-001	-7.06448E-009	0.00000E+000	-3.94800E-001	8.00223E-005	4	..........a	-327.66
	72	0.0146	-4.04730E-001	-7.20849E-009	0.00000E+000	-4.04800E-001	8.00223E-005	4	..........a	-327.66
	73	0.0148	-4.14630E-001	-7.36050E-009	0.00000E+000	-4.14800E-001	8.00223E-005	4	..........a	-327.66
	74	0.015	-4.24630E-001	-7.50650E-009	0.00000E+000	-4.24800E-001	8.00223E-005	4	..........a	-327.66
	75	0.0152	-4.34730E-001	-7.64851E-009	0.00000E+000	-4.34800E-001	8.00223E-005	4	..........a	-327.66
	76	0.0154	-4.44630E-001	-7.80251E-009	0.00000E+000	-4.44800E-001	8.00223E-005	4	..........a	-327.66
	77	0.0156	-4.54830E-001	-7.95052E-009	0.00000E+000	-4.54800E-001	8.00223E-005	4	..........a	-327.66
	78	0.0158	-4.64630E-001	-8.10052E-009	0.00000E+000	-4.64800E-001	8.00223E-005	4	..........a	-327.66
	79	0.016	-4.74630E-001	-8.25853E-009	0.00000E+000	-4.74800E-001	8.00223E-005	4	..........a	-327.66
	80	0.0162	-4.84630E-001	-8.40754E-009	0.00000E+000	-4.84800E-001	8.00223E-005	4	..........a	-327.66
	81	0.0164	-4.94630E-001	-8.55654E-009	0.00000E+000	-4.94800E-001	8.00223E-005	4	..........a	-327.66
	82	0.0166	-5.04530E-001	-8.71455E-009	0.00000E+000	-5.04800E-001	8.00223E-005	4	..........a	-327.66
	83	0.0168	-5.14731E-001	-8.86955E-009	0.00000E+000	-5.14800E-001	8.00223E-005	4	..........a	-327.66
	84	0.017	-5.24731E-001	-9.02856E-009	0.00000E+000	-5.24800E-001	8.00223E-005	4	..........a	-327.66
	85	0.0172	-5.34730E-001	-9.18857E-009	0.00000E+000	-5.34800E-001	8.00223E-005	4	..........a	-327.66
	86	0.0174	-5.44430E-001	-9.34857E-009	0.00000E+000	-5.44800E-001	1.80022E-004	4	..........a	-327.66
	87	0.0176	-5.54730E-001	-9.51058E-009	0.00000E+000	-5.54800E-001	-3.19978E-004	4	..........a	-327.66
	88	0.0178	-5.64631E-001	-9.67458E-009	0.00000E+000	-5.64800E-001	8.00223E-005	4	..........a	-327.66
	89	0.018	-5.74731E-001	-9.83959E-009	0.00000E+000	-5.74800E-001	8.00223E-005	4	..........a	-327.66
	90	0.0182	-5.84731E-001	-1.00186E-008	0.00000E+000	-5.84800E-001	8.00223E-005	4	..........a	-327.66
	91	0.0184	-5.94730E-001	-1.01826E-008	0.00000E+000	-5.94800E-001	8.00223E-005	4	..........a	-327.66
	92	0.0186	-5.84630E-001	-1.02366E-008	0.00000E+000	-5.84800E-001	8.00223E-005	4	..........a	-327.66
	93	0.0188	-5.74530E-001	-1.02746E-008	0.00000E+000	-5.74800E-001	8.00223E-005	4	..........a	-327.66
	94	0.019	-5.64530E-001	-1.02826E-008	0.00000E+000	-5.64800E-001	8.00223E-005	4	..........a	-327.66
	95	0.0192	-5.54730E-001	-1.02906E-008	0.00000E+000	-5.54800E-001	8.00223E-005	4	..........a	-327.66
	96	0.0194	-5.44531E-001	-1.02836E-008	0.00000E+000	-5.44800E-001	8.00223E-005	4	..........a	-327.66
	97	0.0196	-5.34730E-001	-1.02746E-008	0.00000E+000	-5.34800E-001	8.00223E-005	4	..........a	-327.66
	98	0.0198	-5.24731E-001	-1.02466E-008	0.00000E+000	-5.24800E-001	8.00223E-005	4	..........a	-327.66
	99	0.02	-5.14731E-001	-1.02236E-008	0.00000E+000	-5.14800E-001	8.00223E-005	4	..........a	-327.66
	100	0.0202	-5.04730E-001	-1.01906E-008	0.00000E+000	-5.04800E-001	8.00223E-005	4	..........a	-327.66
	101	0.0204	-4.94730E-001	-1.01596E-008	0.00000E+000	-4.94800E-001	8.00223E-005	4	..........a	-327.66
	102	0.0206	-4.84730E-001	-1.01156E-008	0.00000E+000	-4.84800E-001	8.00223E-005	4	..........a	-327.66
	103	0.0208	-4.74730E-001	-1.00786E-008	0.00000E+000	-4.74800E-001	-3.19978E-004	4	..........a	-327.66
	104	0.021	-4.64530E-001	-1.00256E-008	0.00000E+000	-4.64800E-001	8.00223E-005	4	..........a	-327.66
	105	0.0212	-4.54730E-001	-9.98060E-009	0.00000E+000	-4.54800E-001	8.00223E-005	4	..........a	-327.66
	106	0.0214	-4.44730E-001	-9.92759E-009	0.00000E+000	-4.44800E-001	8.00223E-005	4	..........a	-327.66
	107	0.0216	-4.34730E-001	-9.87959E-009	0.00000E+000	-4.34800E-001	8.00223E-005	4	..........a	-327.66
	108	0.0218	-4.24630E-001	-9.82259E-009	0.00000E+000	-4.24800E-001	8.00223E-005	4	..........a	-327.66
	109	0.022	-4.14730E-001	-9.76659E-009	0.00000E+000	-4.14800E-001	8.00223E-005	4	..........a	-327.66
	110	0.0222	-4.04630E-001	-9.70459E-009	0.00000E+000	-4.04800E-001	8.00223E-005	4	..........a	-327.66
	111	0.0224	-3.94730E-001	-9.64458E-009	0.00000E+000	-3.94800E-001	8.00223E-005	4	..........a	-327.66
	112	0.0226	-3.84630E-001	-9.58458E-009	0.00000E+000	-3.84800E-001	8.00223E-005	4	..........a	-327.66
	113	0.0228	-3.74730E-001	-9.52258E-009	0.00000E+000	-3.74800E-001	8.00223E-005	4	..........a	-327.66
	114	0.023	-3.65030E-001	-9.45558E-009	0.00000E+000	-3.64800E-001	8.00223E-005	4	..........a	-327.66
	115	0.0232	-3.54830E-001	-9.39057E-009	0.00000E+000	-3.54800E-001	8.00223E-005	4	..........a	-327.66
	116	0.0234	-3.44730E-001	-9.32157E-009	0.00000E+000	-3.44800E-001	8.00223E-005	4	..........a	-327.66
	117	0.0236	-3.34730E-001	-9.25457E-009	0.00000E+000	-3.34800E-001	8.00223E-005	4	..........a	-327.66
	118	0.0238	-3.24630E-001	-9.18256E-009	0.00000E+000	-3.24800E-001	8.00223E-005	4	..........a	-327.66
	119	0.024	-3.14630E-001	-9.11456E-009	0.00000E+000	-3.14800E-001	8.00223E-005	4	..........a	-327.66
	120	0.0242	-3.04630E-001	-9.04456E-009	0.00000E+000	-3.04800E-001	8.00223E-005	4	..........a	-327.66
	121	0.0244	-2.94630E-001	-8.96756E-009	0.00000E+000	-2.94800E-001	8.00223E-005	4	..........a	-327.66
	122	0.0246	-2.84730E-001	-8.89755E-009	0.00000E+000	-2.84800E-001	8.00223E-005	4	..........a	-327.66
	123	0.0248	-2.74730E-001	-8.82355E-009	0.00000E+000	-2.74800E-001	8.00223E-005	4	..........a	-327.66
	124	0.025	-2.64730E-001	-8.74855E-009	0.00000E+000	-2.64800E-001	8.00223E-005	4	..........a	-327.66
	125	0.0252	-2.54830E-001	-8.66854E-009	0.00000E+000	-2.54800E-001	8.00223E-005	4	..........a	-327.66
	126	0.0254	-2.44630E-001	-8.59454E-009	0.00000E+000	-2.44800E-001	8.00223E-005	4	..........a	-327.66
	127	0.0256	-2.34830E-001	-8.51854E-009	0.00000E+000	-2.34800E-001	-1.19978E-004	4	..........a	-327.66
	128	0.0258	-2.24730E-001	-8.44154E-009	0.00000E+000	-2.24800E-001	8.00223E-005	4	..........a	-327.66
	129	0.026	-2.14730E-001	-8.35853E-009	0.00000E+000	-2.14800E-001	8.00223E-005	4	..........a	-327.66
	130	0.0262	-2.04530E-001	-8.27853E-009	0.00000E+000	-2.04800E-001	8.00223E-005	4	..........a	-327.66
	131	0.0264	-1.94730E-001	-8.20253E-009	0.00000E+000	-1.94800E-001	8.00223E-005	4	..........a	-327.66
	132	0.0266	-1.84630E-001	-8.11952E-009	0.00000E+000	-1.84800E-001	8.00223E-005	4	..........a	-327.66
	133	0.0268	-1.74830E-001	-8.03852E-009	0.00000E+000	-1.74800E-001	8.00223E-005	4	..........a	-327.66
	134	0.027	-1.64930E-001	-7.96252E-009	0.00000E+000	-1.64800E-001	8.00223E-005	4	..........a	-327.66
	135	0.0272	-1.54830E-001	-7.87452E-009	0.00000E+000	-1.54800E-001	8.00223E-005	4	..........a	-327.66
	136	0.0274	-1.44830E-001	-7.79351E-009	0.00000E+000	-1.44800E-001	-2.19978E-004	4	..........a	-327.66
	137	0.0276	-1.34730E-001	-7.70951E-009	0.00000E+000	-1.34800E-001	8.00223E-005	4	..........a	-327.66
	138	0.0278	-1.24730E-001	-7.62351E-009	0.00000E+000	-1.24800E-001	8.00223E-005	4	..........a	-327.66
	139	0.028	-1.14780E-001	-7.54050E-009	0.00000E+000	-1.14800E-001	-2.19978E-004	4	..........a	-327.66
	140	0.0282	-1.04630E-001	-7.46050E-009	0.00000E+000	-1.04800E-001	8.00223E-005	4	..........a	-327.66
	141	0.0284	-9.47305E-002	-7.36950E-009	0.00000E+000	-9.48000E-002	-3.19978E-004	4	..........a	-327.66
	142	0.0286	-8.47305E-002	-7.28249E-009	0.00000E+000	-8.48000E-002	-2.19978E-004	4	..........a	-327.66
	143	0.0288	-7.49305E-002	-7.19749E-009	0.00000E+000	-7.48000E-002	8.00223E-005	4	..........a	-327.66
	144	0.029	-6.47805E-002	-7.10849E-009	0.00000E+000	-6.48000E-002	8.00223E-005	4	..........a	-327.66
	145	0.0292	-5.47305E-002	-7.00848E-009	0.00000E+000	-5.48000E-002	8.00223E-005	4	..........a	-327.66
	146	0.0294	-4.47305E-002	-6.92448E-009	0.00000E+000	-4.48000E-002	8.00223E-005	4	..........a	-327.66
	147	0.0296	-3.47305E-002	-6.83948E-009	0.00000E+000	-3.48000E-002	8.00223E-005	4	..........a	-327.66
	148	0.0298	-2.46305E-002	-6.74947E-009	0.00000E+000	-2.48000E-002	8.00223E-005	4	..........a	-327.66
	149	0.03	-1.48805E-002	-6.66247E-009	0.00000E+000	-1.48000E-002	8.00223E-005	4	..........a	-327.66
	150	0.0302	-4.53048E-003	-6.57246E-009	0.00000E+000	-4.80000E-003	8.00223E-005	4	..........a	-327.66
	151	0.0304	5.16952E-003	-6.48046E-009	0.00000E+000	5.20001E-003	8.00223E-005	4	..........a	-327.66
	152	0.0306	1.54195E-002	-6.38646E-009	0.00000E+000	1.52000E-002	8.00223E-005	4	..........a	-327.66
	153	0.0308	2.52695E-002	-6.30045E-009	0.00000E+000	2.52000E-002	8.00223E-005	4	..........a	-327.66
	154	0.031	3.53695E-002	-6.19945E-009	0.00000E+000	3.52000E-002	8.00223E-005	4	..........a	-327.66
	155	0.0312	4.51695E-002	-6.11245E-009	0.00000E+000	4.52000E-002	-3.19978E-004	4	..........a	-327.66
	156	0.0314	5.52695E-002	-6.01444E-009	0.00000E+000	5.52000E-002	-3.19978E-004	4	..........a	-327.66
	157	0.0316	6.52695E-002	-5.92444E-009	0.00000E+000	6.52000E-002	8.00223E-005	4	..........a	-327.66
	158	0.0318	7.50695E-002	-5.82744E-009	0.00000E+000	7.52000E-002	8.00223E-005	4	..........a	-327.66
	159	0.032	8.52695E-002	-5.73043E-009	0.00000E+000	8.52000E-002	8.00223E-005	4	..........a	-327.66
	160	0.0322	9.54695E-002	-5.63543E-009	0.00000E+000	9.52000E-002	8.00223E-005	4	..........a	-327.66
	161	0.0324	1.05170E-001	-5.54043E-009	0.00000E+000	1.05200E-001	8.00223E-005	4	..........a	-327.66
	162	0.0326	1.15270E-001	-5.44242E-009	0.00000E+000	1.15200E-001	8.00223E-005	4	..........a	-327.66
	163	0.0328	1.25270E-001	-5.34342E-009	0.00000E+000	1.25200E-001	8.00223E-005	4	..........a	-327.66
	164	0.033	1.35270E-001	-5.24341E-009	0.00000E+000	1.35200E-001	8.00223E-005	4	..........a	-327.66
	165	0.0332	1.45370E-001	-5.14941E-009	0.00000E+000	1.45200E-001	8.00223E-005	4	..........a	-327.66
	166	0.0334	1.55370E-001	-5.04641E-009	0.00000E+000	1.55200E-001	8.00223E-005	4	..........a	-327.66
	167	0.0336	1.65270E-001	-4.94840E-009	0.00000E+000	1.65200E-001	8.00223E-005	4	..........a	-327.66
	168	0.0338	1.75270E-001	-4.84440E-009	0.00000E+000	1.75200E-001	8.00223E-005	4	..........a	-327.66
	169	0.034	1.85270E-001	-4.74739E-009	0.00000E+000	1.85200E-001	8.00223E-005	4	..........a	-327.66
	170	0.0342	1.95270E-001	-4.64439E-009	0.00000E+000	1.95200E-001	8.00223E-005	4	..........a	-327.66
	171	0.0344	2.05270E-001	-4.54139E-009	0.00000E+000	2.05200E-001	8.00223E-005	4	..........a	-327.66
	172	0.0346	2.15170E-001	-4.44038E-009	0.00000E+000	2.15200E-001	8.00223E-005	4	..........a	-327.66
	173	0.0348	2.25170E-001	-4.33538E-009	0.00000E+000	2.25200E-001	-1.19978E-004	4	..........a	-327.66
	174	0.035	2.35170E-001	-4.22938E-009	0.00000E+000	2.35200E-001	8.00223E-005	4	..........a	-327.66
	175	0.0352	2.45170E-001	-4.12837E-009	0.00000E+000	2.45200E-001	8.00223E-005	4	..........a	-327.66
	176	0.0354	2.55170E-001	-4.01437E-009	0.00000E+000	2.55200E-001	8.00223E-005	4	..........a	-327.66
	177	0.0356	2.65170E-001	-3.90936E-009	0.00000E+000	2.65200E-001	8.00223E-005	4	..........a	-327.66
	178	0.0358	2.74970E-001	-3.80136E-009	0.00000E+000	2.75200E-001	8.00223E-005	4	..........a	-327.66
	179	0.036	2.85170E-001	-3.69335E-009	0.00000E+000	2.85200E-001	8.00223E-005	4	..........a	-327.66
	180	0.0362	2.95370E-001	-3.58635E-009	0.00000E+000	2.95200E-001	8.00223E-005	4	..........a	-327.66
	181	0.0364	3.05170E-001	-3.47535E-009	0.00000E+000	3.05200E-001	8.00223E-005	4	..........a	-327.66
	182	0.0366	3.15070E-001	-3.36434E-009	0.00000E+000	3.15200E-001	8.00223E-005	4	..........a	-327.66
	183	0.0368	3.25270E-001	-3.25134E-009	0.00000E+000	3.25200E-001	8.00223E-005	4	..........a	-327.66
	184	0.037	3.35370E-001	-3.13833E-009	0.00000E+000	3.35200E-001	8.00223E-005	4	..........a	-327.66
	185	0.0372	3.45170E-001	-3.02433E-009	0.00000E+000	3.45200E-001	8.00223E-005	4	..........a	-327.66
	186	0.0374	3.55170E-001	-2.91132E-009	0.00000E+000	3.55200E-001	-3.19978E-004	4	..........a	-327.66
	187	0.0376	3.65070E-001	-2.79832E-009	0.00000E+000	3.65200E-001	8.00223E-005	4	..........a	-327.66
	188	0.0378	3.75270E-001	-2.68432E-009	0.00000E+000	3.75200E-001	8.00223E-005	4	..........a	-327.66
	189	0.038	3.85170E-001	-2.56531E-009	0.00000E+000	3.85200E-001	8.00223E-005	4	..........a	-327.66
	190	0.0382	3.95170E-001	-2.44331E-009	0.00000E+000	3.95200E-001	8.00223E-005	4	..........a	-327.66
	191	0.0384	4.04970E-001	-2.33230E-009	0.00000E+000	4.05200E-001	8.00223E-005	4	..........a	-327.66
	192	0.0386	4.15070E-001	-2.20030E-009	0.00000E+000	4.15200E-001	8.00223E-005	4	..........a	-327.66
	193	0.0388	4.25170E-001	-2.08429E-009	0.00000E+000	4.25200E-001	8.00223E-005	4	..........a	-327.66
	194	0.039	4.35270E-001	-1.95729E-009	0.00000E+000	4.35200E-001	8.00223E-005	4	..........a	-327.66
	195	0.0392	4.45170E-001	-1.83428E-009	0.00000E+000	4.45200E-001	8.00223E-005	4	..........a	-327.66
	196	0.0394	4.55170E-001	-1.70828E-009	0.00000E+000	4.55200E-001	8.00223E-005	4	..........a	-327.66
	197	0.0396	4.65170E-001	-1.57627E-009	0.00000E+000	4.65200E-001	8.00223E-005	4	..........a	-327.66
	198	0.0398	4.75070E-001	-1.45027E-009	0.00000E+000	4.75200E-001	8.00223E-005	4	..........a	-327.66
	199	0.04	4.85270E-001	-1.32226E-009	0.00000E+000	4.85200E-001	8.00223E-005	4	..........a	-327.66
	200	0.0402	4.95170E-001	-1.18826E-009	0.00000E+000	4.95200E-001	8.00223E-005	4	..........a	-327.66
	201	0.0404	5.05069E-001	-1.05625E-009	0.00000E+000	5.05200E-001	8.00223E-005	4	..........a	-327.66
	202	0.0406	5.15269E-001	-9.16248E-010	0.00000E+000	5.15200E-001	8.00223E-005	4	..........a	-327.66
	203	0.0408	5.25069E-001	-7.76242E-010	0.00000E+000	5.25200E-001	8.00223E-005	4	..........a	-327.66
	204	0.041	5.35320E-001	-6.33237E-010	0.00000E+000	5.35200E-001	8.00223E-005	4	..........a	-327.66
	205	0.0412	5.45169E-001	-4.87231E-010	0.00000E+000	5.45200E-001	8.00223E-005	4	..........a	-327.66
	206	0.0414	5.55070E-001	-3.40225E-010	0.00000E+000	5.55200E-001	-3.19978E-004	4	..........a	-327.66
	207	0.0416	5.65120E-001	-1.94220E-010	0.00000E+000	5.65200E-001	8.00223E-005	4	..........a	-327.66
	208	0.0418	5.75269E-001	-4.32140E-011	0.00000E+000	5.75200E-001	8.00223E-005	4	..........a	-327.66
	209	0.042	5.85069E-001	1.13792E-010	0.00000E+000	5.85200E-001	8.00223E-005	4	..........a	-327.66
	210	0.0422	5.95069E-001	2.69798E-010	0.00000E+000	5.95200E-001	8.00223E-005	4	..........a	-327.66
	211	0.0424	6.05269E-001	4.27804E-010	0.00000E+000	6.05200E-001	8.00223E-005	4	..........a	-327.66
	212	0.0426	6.15169E-001	5.91810E-010	0.00000E+000	6.15200E-001	8.00223E-005	4	..........a	-327.66
	213	0.0428	6.25069E-001	7.57817E-010	0.00000E+000	6.25200E-001	8.00223E-005	4	..........a	-327.66
	214	0.043	6.35269E-001	9.28823E-010	0.00000E+000	6.35200E-001	8.00223E-005	4	..........a	-327.66
	215	0.0432	6.45269E-001	1.10583E-009	0.00000E+000	6.45200E-001	8.00223E-005	4	..........a	-327.66
	216	0.0434	6.55320E-001	1.27784E-009	0.00000E+000	6.55200E-001	8.00223E-005	4	..........a	-327.66
	217	0.0436	6.65069E-001	1.45984E-009	0.00000E+000	6.65200E-001	8.00223E-005	4	..........a	-327.66
	218	0.0438	6.75169E-001	1.64585E-009	0.00000E+000	6.75200E-001	8.00223E-005	4	..........a	-327.66
	219	0.044	6.85070E-001	1.83186E-009	0.00000E+000	6.85200E-001	8.00223E-005	4	..........a	-327.66
	220	0.0442	6.95069E-001	2.03087E-009	0.00000E+000	6.95200E-001	8.00223E-005	4	..........a	-327.66
	221	0.0444	7.04969E-001	2.22587E-009	0.00000E+000	7.05200E-001	8.00223E-005	4	..........a	-327.66
	222	0.0446	7.14969E-001	2.42788E-009	0.00000E+000	7.15200E-001	8.00223E-005	4	..........a	-327.66
	223	0.0448	7.25069E-001	2.64189E-009	0.00000E+000	7.25200E-001	8.00223E-005	4	..........a	-327.66
	224	0.045	7.35169E-001	2.85290E-009	0.00000E+000	7.35200E-001	8.00223E-005	4	..........a	-327.66
	225	0.0452	7.45169E-001	3.07191E-009	0.00000E+000	7.45200E-001	8.00223E-005	4	..........a	-327.66
	226	0.0454	7.55069E-001	3.28591E-009	0.00000E+000	7.55200E-001	8.00223E-005	4	..........a	-327.66
	227	0.0456	7.65069E-001	3.52092E-009	0.00000E+000	7.65200E-001	8.00223E-005	4	..........a	-327.66
	228	0.0458	7.74969E-001	3.75193E-009	0.00000E+000	7.75200E-001	8.00223E-005	4	..........a	-327.66
	229	0.046	7.85069E-001	3.98894E-009	0.00000E+000	7.85200E-001	8.00223E-005	4	..........a	-327.66
	230	0.0462	7.95169E-001	4.24095E-009	0.00000E+000	7.95200E-001	8.00223E-005	4	..........a	-327.66
CURVE2	TABLE
	Pt	T	Vf	Im	Vu	Sig	Ach	IERange	Over	Temp
	#	s	V vs. Ref.	A	V	V	V	#	bits	deg C
	231	0.0464	7.89819E-001	4.39596E-009	0.00000E+000	7.90000E-001	8.00223E-005	4	..........a	-327.66
	232	0.0466	7.79969E-001	4.49696E-009	0.00000E+000	7.80000E-001	8.00223E-005	4	..........a	-327.66
	233	0.0468	7.69819E-001	4.56296E-009	0.00000E+000	7.70000E-001	8.00223E-005	4	..........a	-327.66
	234	0.047	7.59719E-001	4.60996E-009	0.00000E+000	7.60000E-001	8.00223E-005	4	..........a	-327.66
	235	0.0472	7.49869E-001	4.64197E-009	0.00000E+000	7.50000E-001	8.00223E-005	4	..........a	-327.66
	236	0.0474	7.40169E-001	4.65597E-009	0.00000E+000	7.40000E-001	8.00223E-005	4	..........a	-327.66
	237	0.0476	7.29970E-001	4.66597E-009	0.00000E+000	7.30000E-001	8.00223E-005	4	..........a	-327.66
	238	0.0478	7.19769E-001	4.65997E-009	0.00000E+000	7.20000E-001	8.00223E-005	4	..........a	-327.66
	239	0.048	7.09969E-001	4.64897E-009	0.00000E+000	7.10000E-001	8.00223E-005	4	..........a	-327.66
	240	0.0482	6.99669E-001	4.63997E-009	0.00000E+000	7.00000E-001	-4.19978E-004	4	..........a	-327.66
	241	0.0484	6.89770E-001	4.60396E-009	0.00000E+000	6.90000E-001	8.00223E-005	4	..........a	-327.66
	242	0.0486	6.80070E-001	4.57896E-009	0.00000E+000	6.80000E-001	8.00223E-005	4	..........a	-327.66
	243	0.0488	6.69969E-001	4.54196E-009	0.00000E+000	6.70000E-001	8.00223E-005	4	..........a	-327.66
	244	0.049	6.59669E-001	4.50796E-009	0.00000E+000	6.60000E-001	-2.19978E-004	4	..........a	-327.66
	245	0.0492	6.49969E-001	4.46596E-009	0.00000E+000	6.50000E-001	8.00223E-005	4	..........a	-327.66
	246	0.0494	6.39769E-001	4.42296E-009	0.00000E+000	6.40000E-001	-2.19978E-004	4	..........a	-327.66
	247	0.0496	6.29869E-001	4.37996E-009	0.00000E+000	6.30000E-001	8.00223E-005	4	..........a	-327.66
	248	0.0498	6.19969E-001	4.32395E-009	0.00000E+000	6.20000E-001	8.00223E-005	4	..........a	-327.66
	249	0.05	6.09969E-001	4.27995E-009	0.00000E+000	6.10000E-001	8.00223E-005	4	..........a	-327.66
	250	0.0502	5.99970E-001	4.22195E-009	0.00000E+000	6.00000E-001	8.00223E-005	4	..........a	-327.66
	251	0.0504	5.89969E-001	4.16895E-009	0.00000E+000	5.90000E-001	8.00223E-005	4	..........a	-327.66
	252	0.0506	5.79969E-001	4.11095E-009	0.00000E+000	5.80000E-001	8.00223E-005	4	..........a	-327.66
	253	0.0508	5.70069E-001	4.04794E-009	0.00000E+000	5.70000E-001	8.00223E-005	4	..........a	-327.66
	254	0.051	5.59770E-001	3.98994E-009	0.00000E+000	5.60000E-001	-3.19978E-004	4	..........a	-327.66
	255	0.0512	5.49919E-001	3.92794E-009	0.00000E+000	5.50000E-001	8.00223E-005	4	..........a	-327.66
	256	0.0514	5.40069E-001	3.86194E-009	0.00000E+000	5.40000E-001	8.00223E-005	4	..........a	-327.66
	257	0.0516	5.30069E-001	3.79393E-009	0.00000E+000	5.30000E-001	8.00223E-005	4	..........a	-327.66
	258	0.0518	5.19870E-001	3.73093E-009	0.00000E+000	5.20000E-001	8.00223E-005	4	..........a	-327.66
	259	0.052	5.09870E-001	3.65793E-009	0.00000E+000	5.10000E-001	8.00223E-005	4	..........a	-327.66
	260	0.0522	5.00170E-001	3.59393E-009	0.00000E+000	5.00000E-001	8.00223E-005	4	..........a	-327.66
	261	0.0524	4.89920E-001	3.52092E-009	0.00000E+000	4.90000E-001	8.00223E-005	4	..........a	-327.66
	262	0.0526	4.79870E-001	3.44992E-009	0.00000E+000	4.80000E-001	8.00223E-005	4	..........a	-327.66
	263	0.0528	4.69870E-001	3.37392E-009	0.00000E+000	4.70000E-001	8.00223E-005	4	..........a	-327.66
	264	0.053	4.60070E-001	3.29991E-009	0.00000E+000	4.60000E-001	8.00223E-005	4	..........a	-327.66
	265	0.0532	4.49670E-001	3.23291E-009	0.00000E+000	4.50000E-001	-1.19978E-004	4	..........a	-327.66
	266	0.0534	4.39970E-001	3.14791E-009	0.00000E+000	4.40000E-001	8.00223E-005	4	..........a	-327.66
	267	0.0536	4.29970E-001	3.06791E-009	0.00000E+000	4.30000E-001	8.00223E-005	4	..........a	-327.66
	268	0.0538	4.20070E-001	2.98990E-009	0.00000E+000	4.20000E-001	8.00223E-005	4	..........a	-327.66
	269	0.054	4.09970E-001	2.90590E-009	0.00000E+000	4.10000E-001	8.00223E-005	4	..........a	-327.66
	270	0.0542	3.99820E-001	2.82490E-009	0.00000E+000	4.00000E-001	8.00223E-005	4	..........a	-327.66
	271	0.0544	3.90070E-001	2.74089E-009	0.00000E+000	3.90000E-001	8.00223E-005	4	..........a	-327.66
	272	0.0546	3.80170E-001	2.65189E-009	0.00000E+000	3.80000E-001	8.00223E-005	4	..........a	-327.66
	273	0.0548	3.69970E-001	2.56789E-009	0.00000E+000	3.70000E-001	8.00223E-005	4	..........a	-327.66
	274	0.055	3.59870E-001	2.48188E-009	0.00000E+000	3.60000E-001	8.00223E-005	4	..........a	-327.66
	275	0.0552	3.49870E-001	2.38788E-009	0.00000E+000	3.50000E-001	8.00223E-005	4	..........a	-327.66
	276	0.0554	3.39870E-001	2.29688E-009	0.00000E+000	3.40000E-001	8.00223E-005	4	..........a	-327.66
	277	0.0556	3.30070E-001	2.20787E-009	0.00000E+000	3.30000E-001	8.00223E-005	4	..........a	-327.66
	278	0.0558	3.19970E-001	2.10987E-009	0.00000E+000	3.20000E-001	8.00223E-005	4	..........a	-327.66
	279	0.056	3.10070E-001	2.01387E-009	0.00000E+000	3.10000E-001	8.00223E-005	4	..........a	-327.66
	280	0.0562	3.00170E-001	1.91686E-009	0.00000E+000	3.00000E-001	8.00223E-005	4	..........a	-327.66
	281	0.0564	2.89870E-001	1.81286E-009	0.00000E+000	2.90000E-001	8.00223E-005	4	..........a	-327.66
	282	0.0566	2.79970E-001	1.71185E-009	0.00000E+000	2.80000E-001	8.00223E-005	4	..........a	-327.66
	283	0.0568	2.70070E-001	1.61285E-009	0.00000E+000	2.70000E-001	8.00223E-005	4	..........a	-327.66
	284	0.057	2.60070E-001	1.49985E-009	0.00000E+000	2.60000E-001	8.00223E-005	4	..........a	-327.66
	285	0.0572	2.49970E-001	1.39884E-009	0.00000E+000	2.50000E-001	8.00223E-005	4	..........a	-327.66
	286	0.0574	2.39870E-001	1.28784E-009	0.00000E+000	2.40000E-001	8.00223E-005	4	..........a	-327.66
	287	0.0576	2.29970E-001	1.17983E-009	0.00000E+000	2.30000E-001	8.00223E-005	4	..........a	-327.66
	288	0.0578	2.19670E-001	1.06783E-009	0.00000E+000	2.20000E-001	8.00223E-005	4	..........a	-327.66
	289	0.058	2.10070E-001	9.52824E-010	0.00000E+000	2.10000E-001	8.00223E-005	4	..........a	-327.66
	290	0.0582	2.00020E-001	8.33820E-010	0.00000E+000	2.00000E-001	8.00223E-005	4	..........a	-327.66
	291	0.0584	1.90070E-001	7.16815E-010	0.00000E+000	1.90000E-001	8.00223E-005	4	..........a	-327.66
	292	0.0586	1.80170E-001	5.95811E-010	0.00000E+000	1.80000E-001	8.00223E-005	4	..........a	-327.66
	293	0.0588	1.69870E-001	4.75806E-010	0.00000E+000	1.70000E-001	8.00223E-005	4	..........a	-327.66
	294	0.059	1.60070E-001	3.54801E-010	0.00000E+000	1.60000E-001	8.00223E-005	4	..........a	-327.66
	295	0.0592	1.50070E-001	2.29796E-010	0.00000E+000	1.50000E-001	8.00223E-005	4	..........a	-327.66
	296	0.0594	1.40070E-001	9.97915E-011	0.00000E+000	1.40000E-001	8.00223E-005	4	..........a	-327.66
	297	0.0596	1.29970E-001	-2.72134E-011	0.00000E+000	1.30000E-001	8.00223E-005	4	..........a	-327.66
	298	0.0598	1.20170E-001	-1.57218E-010	0.00000E+000	1.20000E-001	8.00223E-005	4	..........a	-327.66
	299	0.06	1.10070E-001	-2.92224E-010	0.00000E+000	1.10000E-001	8.00223E-005	4	..........a	-327.66
	300	0.0602	1.00070E-001	-4.22229E-010	0.00000E+000	1.00000E-001	8.00223E-005	4	..........a	-327.66
	301	0.0604	9.00695E-002	-5.48233E-010	0.00000E+000	9.00000E-002	-3.19978E-004	4	..........a	-327.66
	302	0.0606	8.00695E-002	-6.84239E-010	0.00000E+000	8.00000E-002	8.00223E-005	4	..........a	-327.66
	303	0.0608	6.99695E-002	-8.22244E-010	0.00000E+000	7.00000E-002	8.00223E-005	4	..........a	-327.66
	304	0.061	5.98695E-002	-9.56249E-010	0.00000E+000	6.00000E-002	8.00223E-005	4	..........a	-327.66
	305	0.0612	4.99695E-002	-1.09225E-009	0.00000E+000	5.00000E-002	8.00223E-005	4	..........a	-327.66
	306	0.0614	4.00695E-002	-1.22726E-009	0.00000E+000	4.00000E-002	8.00223E-005	4	..........a	-327.66
	307	0.0616	2.99695E-002	-1.36426E-009	0.00000E+000	3.00000E-002	8.00223E-005	4	..........a	-327.66
	308	0.0618	1.98695E-002	-1.50027E-009	0.00000E+000	2.00000E-002	8.00223E-005	4	..........a	-327.66
	309	0.062	1.00695E-002	-1.63928E-009	0.00000E+000	1.00000E-002	8.00223E-005	4	..........a	-327.66
	310	0.0622	-1.30481E-004	-1.77728E-009	0.00000E+000	7.45058E-009	8.00223E-005	4	..........a	-327.66
	311	0.0624	-9.93048E-003	-1.91229E-009	0.00000E+000	-1.00000E-002	8.00223E-005	4	..........a	-327.66
	312	0.0626	-1.99305E-002	-2.04329E-009	0.00000E+000	-2.00000E-002	8.00223E-005	4	..........a	-327.66
	313	0.0628	-2.99305E-002	-2.18530E-009	0.00000E+000	-3.00000E-002	8.00223E-005	4	..........a	-327.66
	314	0.063	-3.99305E-002	-2.31630E-009	0.00000E+000	-4.00000E-002	8.00223E-005	4	..........a	-327.66
	315	0.0632	-4.99305E-002	-2.45031E-009	0.00000E+000	-5.00000E-002	8.00223E-005	4	..........a	-327.66
	316	0.0634	-6.00305E-002	-2.58231E-009	0.00000E+000	-6.00000E-002	8.00223E-005	4	..........a	-327.66
	317	0.0636	-7.00305E-002	-2.71632E-009	0.00000E+000	-7.00000E-002	8.00223E-005	4	..........a	-327.66
	318	0.0638	-8.00305E-002	-2.85232E-009	0.00000E+000	-8.00000E-002	8.00223E-005	4	..........a	-327.66
	319	0.064	-8.99305E-002	-2.98033E-009	0.00000E+000	-9.00000E-002	8.00223E-005	4	..........a	-327.66
	320	0.0642	-1.00030E-001	-3.10833E-009	0.00000E+000	-1.00000E-001	-2.19978E-004	4	..........a	-327.66
	321	0.0644	-1.10030E-001	-3.23634E-009	0.00000E+000	-1.10000E-001	-3.19978E-004	4	..........a	-327.66
	322	0.0646	-1.20030E-001	-3.36434E-009	0.00000E+000	-1.20000E-001	8.00223E-005	4	..........a	-327.66
	323	0.0648	-1.29930E-001	-3.49235E-009	0.00000E+000	-1.30000E-001	8.00223E-005	4	..........a	-327.66
	324	0.065	-1.39930E-001	-3.61235E-009	0.00000E+000	-1.40000E-001	8.00223E-005	4	..........a	-327.66
	325	0.0652	-1.50030E-001	-3.73836E-009	0.00000E+000	-1.50000E-001	8.00223E-005	4	..........a	-327.66
	326	0.0654	-1.59930E-001	-3.86136E-009	0.00000E+000	-1.60000E-001	8.00223E-005	4	..........a	-327.66
	327	0.0656	-1.69930E-001	-3.98337E-009	0.00000E+000	-1.70000E-001	8.00223E-005	4	..........a	-327.66
	328	0.0658	-1.79930E-001	-4.10637E-009	0.00000E+000	-1.80000E-001	8.00223E-005	4	..........a	-327.66
	329	0.066	-1.90130E-001	-4.23038E-009	0.00000E+000	-1.90000E-001	8.00223E-005	4	..........a	-327.66
	330	0.0662	-2.00030E-001	-4.34738E-009	0.00000E+000	-2.00000E-001	8.00223E-005	4	..........a	-327.66
	331	0.0664	-2.09930E-001	-4.46438E-009	0.00000E+000	-2.10000E-001	8.00223E-005	4	..........a	-327.66
	332	0.0666	-2.19930E-001	-4.58339E-009	0.00000E+000	-2.20000E-001	8.00223E-005	4	..........a	-327.66
	333	0.0668	-2.29930E-001	-4.69839E-009	0.00000E+000	-2.30000E-001	8.00223E-005	4	..........a	-327.66
	334	0.067	-2.40030E-001	-4.81740E-009	0.00000E+000	-2.40000E-001	8.00223E-005	4	..........a	-327.66
	335	0.0672	-2.49930E-001	-4.93840E-009	0.00000E+000	-2.50000E-001	8.00223E-005	4	..........a	-327.66
	336	0.0674	-2.59730E-001	-5.05441E-009	0.00000E+000	-2.60000E-001	8.00223E-005	4	..........a	-327.66
	337	0.0676	-2.70030E-001	-5.16841E-009	0.00000E+000	-2.70000E-001	8.00223E-005	4	..........a	-327.66
	338	0.0678	-2.79930E-001	-5.28242E-009	0.00000E+000	-2.80000E-001	8.00223E-005	4	..........a	-327.66
	339	0.068	-2.89930E-001	-5.40442E-009	0.00000E+000	-2.90000E-001	8.00223E-005	4	..........a	-327.66
	340	0.0682	-2.99980E-001	-5.51442E-009	0.00000E+000	-3.00000E-001	8.00223E-005	4	..........a	-327.66
	341	0.0684	-3.09930E-001	-5.62543E-009	0.00000E+000	-3.10000E-001	-2.19978E-004	4	..........a	-327.66
	342	0.0686	-3.19930E-001	-5.74143E-009	0.00000E+000	-3.20000E-001	8.00223E-005	4	..........a	-327.66
	343	0.0688	-3.30030E-001	-5.85244E-009	0.00000E+000	-3.30000E-001	8.00223E-005	4	..........a	-327.66
	344	0.069	-3.39830E-001	-5.97044E-009	0.00000E+000	-3.40000E-001	8.00223E-005	4	..........a	-327.66
[...]
	2603	0.5208	-5.29930E-001	-6.05444E-009	0.00000E+000	-5.30000E-001	8.00223E-005	4	..........a	-327.66
	2604	0.521	-5.39930E-001	-6.18045E-009	0.00000E+000	-5.40000E-001	8.00223E-005	4	..........a	-327.66
	2605	0.5212	-5.49931E-001	-6.31346E-009	0.00000E+000	-5.50000E-001	8.00223E-005	4	..........a	-327.66
	2606	0.5214	-5.59931E-001	-6.43846E-009	0.00000E+000	-5.60000E-001	8.00223E-005	4	..........a	-327.66
	2607	0.5216	-5.69930E-001	-6.57146E-009	0.00000E+000	-5.70000E-001	8.00223E-005	4	..........a	-327.66
	2608	0.5218	-5.79731E-001	-6.70847E-009	0.00000E+000	-5.80000E-001	8.00223E-005	4	..........a	-327.66
	2609	0.522	-5.89930E-001	-6.85148E-009	0.00000E+000	-5.90000E-001	8.00223E-005	4	..........a	-327.66
	2610	0.5222	-5.99930E-001	-6.99448E-009	0.00000E+000	-6.00000E-001	8.00223E-005	4	..........a	-327.66
	2611	0.5224	-5.90030E-001	-7.02148E-009	0.00000E+000	-5.90000E-001	8.00223E-005	4	..........a	-327.66
	2612	0.5226	-5.79830E-001	-7.03448E-009	0.00000E+000	-5.80000E-001	8.00223E-005	4	..........a	-327.66
	2613	0.5228	-5.69930E-001	-7.03148E-009	0.00000E+000	-5.70000E-001	8.00223E-005	4	..........a	-327.66
	2614	0.523	-5.59830E-001	-7.01948E-009	0.00000E+000	-5.60000E-001	8.00223E-005	4	..........a	-327.66
	2615	0.5232	-5.49630E-001	-7.00248E-009	0.00000E+000	-5.50000E-001	8.00223E-005	4	..........a	-327.66
	2616	0.5234	-5.39831E-001	-6.98448E-009	0.00000E+000	-5.40000E-001	8.00223E-005	4	..........a	-327.66
	2617	0.5236	-5.29930E-001	-6.95148E-009	0.00000E+000	-5.30000E-001	8.00223E-005	4	..........a	-327.66
	2618	0.5238	-5.19930E-001	-6.92448E-009	0.00000E+000	-5.20000E-001	8.00223E-005	4	..........a	-327.66
	2619	0.524	-5.09731E-001	-6.88748E-009	0.00000E+000	-5.10000E-001	8.00223E-005	4	..........a	-327.66
	2620	0.5242	-4.99730E-001	-6.84848E-009	0.00000E+000	-5.00000E-001	8.00223E-005	4	..........a	-327.66
	2621	0.5244	-4.89930E-001	-6.80647E-009	0.00000E+000	-4.90000E-001	8.00223E-005	4	..........a	-327.66
	2622	0.5246	-4.79930E-001	-6.75847E-009	0.00000E+000	-4.80000E-001	8.00223E-005	4	..........a	-327.66
	2623	0.5248	-4.69930E-001	-6.71847E-009	0.00000E+000	-4.70000E-001	8.00223E-005	4	..........a	-327.66
	2624	0.525	-4.59930E-001	-6.66347E-009	0.00000E+000	-4.60000E-001	8.00223E-005	4	..........a	-327.66
	2625	0.5252	-4.50030E-001	-6.61247E-009	0.00000E+000	-4.50000E-001	8.00223E-005	4	..........a	-327.66
	2626	0.5254	-4.39830E-001	-6.56246E-009	0.00000E+000	-4.40000E-001	8.00223E-005	4	..........a	-327.66
	2627	0.5256	-4.29930E-001	-6.50346E-009	0.00000E+000	-4.30000E-001	8.00223E-005	4	..........a	-327.66
	2628	0.5258	-4.19830E-001	-6.45246E-009	0.00000E+000	-4.20000E-001	8.00223E-005	4	..........a	-327.66
	2629	0.526	-4.09930E-001	-6.39246E-009	0.00000E+000	-4.10000E-001	8.00223E-005	4	..........a	-327.66
	2630	0.5262	-3.99930E-001	-6.33746E-009	0.00000E+000	-4.00000E-001	8.00223E-005	4	..........a	-327.66
	2631	0.5264	-3.90030E-001	-6.27445E-009	0.00000E+000	-3.90000E-001	-2.19978E-004	4	..........a	-327.66
	2632	0.5266	-3.79930E-001	-6.21045E-009	0.00000E+000	-3.80000E-001	8.00223E-005	4	..........a	-327.66
	2633	0.5268	-3.69930E-001	-6.15045E-009	0.00000E+000	-3.70000E-001	8.00223E-005	4	..........a	-327.66
	2634	0.527	-3.59930E-001	-6.08445E-009	0.00000E+000	-3.60000E-001	8.00223E-005	4	..........a	-327.66
	2635	0.5272	-3.49830E-001	-6.01844E-009	0.00000E+000	-3.50000E-001	8.00223E-005	4	..........a	-327.66
	2636	0.5274	-3.39830E-001	-5.95144E-009	0.00000E+000	-3.40000E-001	8.00223E-005	4	..........a	-327.66
	2637	0.5276	-3.29930E-001	-5.89144E-009	0.00000E+000	-3.30000E-001	8.00223E-005	4	..........a	-327.66
	2638	0.5278	-3.19830E-001	-5.82144E-009	0.00000E+000	-3.20000E-001	8.00223E-005	4	..........a	-327.66
	2639	0.528	-3.10030E-001	-5.75343E-009	0.00000E+000	-3.10000E-001	8.00223E-005	4	..........a	-327.66
	2640	0.5282	-2.99830E-001	-5.68643E-009	0.00000E+000	-3.00000E-001	8.00223E-005	4	..........a	-327.66
	2641	0.5284	-2.89830E-001	-5.61843E-009	0.00000E+000	-2.90000E-001	8.00223E-005	4	..........a	-327.66
	2642	0.5286	-2.79930E-001	-5.54343E-009	0.00000E+000	-2.80000E-001	8.00223E-005	4	..........a	-327.66
	2643	0.5288	-2.69930E-001	-5.47042E-009	0.00000E+000	-2.70000E-001	8.00223E-005	4	..........a	-327.66
	2644	0.529	-2.60030E-001	-5.40642E-009	0.00000E+000	-2.60000E-001	8.00223E-005	4	..........a	-327.66
	2645	0.5292	-2.50030E-001	-5.33242E-009	0.00000E+000	-2.50000E-001	8.00223E-005	4	..........a	-327.66
	2646	0.5294	-2.39930E-001	-5.25941E-009	0.00000E+000	-2.40000E-001	8.00223E-005	4	..........a	-327.66
	2647	0.5296	-2.30030E-001	-5.18841E-009	0.00000E+000	-2.30000E-001	8.00223E-005	4	..........a	-327.66
	2648	0.5298	-2.19930E-001	-5.11141E-009	0.00000E+000	-2.20000E-001	8.00223E-005	4	..........a	-327.66
	2649	0.53	-2.10030E-001	-5.03641E-009	0.00000E+000	-2.10000E-001	8.00223E-005	4	..........a	-327.66
	2650	0.5302	-1.99930E-001	-4.96640E-009	0.00000E+000	-2.00000E-001	8.00223E-005	4	..........a	-327.66
	2651	0.5304	-1.90330E-001	-4.89140E-009	0.00000E+000	-1.90000E-001	8.00223E-005	4	..........a	-327.66
	2652	0.5306	-1.79830E-001	-4.81140E-009	0.00000E+000	-1.80000E-001	8.00223E-005	4	..........a	-327.66
	2653	0.5308	-1.69930E-001	-4.73739E-009	0.00000E+000	-1.70000E-001	8.00223E-005	4	..........a	-327.66
	2654	0.531	-1.59830E-001	-4.65839E-009	0.00000E+000	-1.60000E-001	8.00223E-005	4	..........a	-327.66
	2655	0.5312	-1.50030E-001	-4.58339E-009	0.00000E+000	-1.50000E-001	8.00223E-005	4	..........a	-327.66
	2656	0.5314	-1.39830E-001	-4.50639E-009	0.00000E+000	-1.40000E-001	8.00223E-005	4	..........a	-327.66
	2657	0.5316	-1.29930E-001	-4.42038E-009	0.00000E+000	-1.30000E-001	8.00223E-005	4	..........a	-327.66
	2658	0.5318	-1.19930E-001	-4.34238E-009	0.00000E+000	-1.20000E-001	8.00223E-005	4	..........a	-327.66
	2659	0.532	-1.09930E-001	-4.26438E-009	0.00000E+000	-1.10000E-001	8.00223E-005	4	..........a	-327.66
	2660	0.5322	-1.00030E-001	-4.18637E-009	0.00000E+000	-1.00000E-001	8.00223E-005	4	..........a	-327.66
	2661	0.5324	-8.98305E-002	-4.10237E-009	0.00000E+000	-9.00000E-002	-2.19978E-004	4	..........a	-327.66
	2662	0.5326	-7.98305E-002	-4.02237E-009	0.00000E+000	-8.00000E-002	8.00223E-005	4	..........a	-327.66
	2663	0.5328	-6.99305E-002	-3.94236E-009	0.00000E+000	-7.00000E-002	8.00223E-005	4	..........a	-327.66
	2664	0.533	-5.97805E-002	-3.85436E-009	0.00000E+000	-6.00000E-002	8.00223E-005	4	..........a	-327.66
	2665	0.5332	-5.01305E-002	-3.77436E-009	0.00000E+000	-5.00000E-002	8.00223E-005	4	..........a	-327.66
	2666	0.5334	-3.99305E-002	-3.69135E-009	0.00000E+000	-4.00000E-002	8.00223E-005	4	..........a	-327.66
	2667	0.5336	-2.99305E-002	-3.61235E-009	0.00000E+000	-3.00000E-002	8.00223E-005	4	..........a	-327.66
	2668	0.5338	-2.00305E-002	-3.52435E-009	0.00000E+000	-2.00000E-002	8.00223E-005	4	..........a	-327.66
	2669	0.534	-9.93048E-003	-3.44334E-009	0.00000E+000	-1.00000E-002	8.00223E-005	4	..........a	-327.66
	2670	0.5342	6.95192E-005	-3.36234E-009	0.00000E+000	7.45058E-009	8.00223E-005	4	..........a	-327.66
	2671	0.5344	1.00695E-002	-3.27034E-009	0.00000E+000	1.00000E-002	8.00223E-005	4	..........a	-327.66
	2672	0.5346	2.02695E-002	-3.18633E-009	0.00000E+000	2.00000E-002	8.00223E-005	4	..........a	-327.66
	2673	0.5348	3.00695E-002	-3.10133E-009	0.00000E+000	3.00000E-002	8.00223E-005	4	..........a	-327.66
	2674	0.535	4.00695E-002	-3.01433E-009	0.00000E+000	4.00000E-002	8.00223E-005	4	..........a	-327.66
	2675	0.5352	5.00695E-002	-2.92332E-009	0.00000E+000	5.00000E-002	8.00223E-005	4	..........a	-327.66
	2676	0.5354	6.01695E-002	-2.83932E-009	0.00000E+000	6.00000E-002	8.00223E-005	4	..........a	-327.66
	2677	0.5356	7.00195E-002	-2.74632E-009	0.00000E+000	7.00000E-002	-3.19978E-004	4	..........a	-327.66
	2678	0.5358	7.99695E-002	-2.65831E-009	0.00000E+000	8.00000E-002	8.00223E-005	4	..........a	-327.66
	2679	0.536	9.00695E-002	-2.57031E-009	0.00000E+000	9.00000E-002	-3.19978E-004	4	..........a	-327.66
	2680	0.5362	1.00070E-001	-2.48431E-009	0.00000E+000	1.00000E-001	8.00223E-005	4	..........a	-327.66
	2681	0.5364	1.10070E-001	-2.39030E-009	0.00000E+000	1.10000E-001	-3.19978E-004	4	..........a	-327.66
	2682	0.5366	1.19870E-001	-2.29830E-009	0.00000E+000	1.20000E-001	8.00223E-005	4	..........a	-327.66
	2683	0.5368	1.30170E-001	-2.21230E-009	0.00000E+000	1.30000E-001	8.00223E-005	4	..........a	-327.66
	2684	0.537	1.40070E-001	-2.11629E-009	0.00000E+000	1.40000E-001	8.00223E-005	4	..........a	-327.66
	2685	0.5372	1.50070E-001	-2.01629E-009	0.00000E+000	1.50000E-001	8.00223E-005	4	..........a	-327.66
	2686	0.5374	1.60070E-001	-1.92829E-009	0.00000E+000	1.60000E-001	8.00223E-005	4	..........a	-327.66
	2687	0.5376	1.70070E-001	-1.83028E-009	0.00000E+000	1.70000E-001	8.00223E-005	4	..........a	-327.66
	2688	0.5378	1.80070E-001	-1.73528E-009	0.00000E+000	1.80000E-001	8.00223E-005	4	..........a	-327.66
	2689	0.538	1.90070E-001	-1.64128E-009	0.00000E+000	1.90000E-001	8.00223E-005	4	..........a	-327.66
	2690	0.5382	2.00070E-001	-1.54127E-009	0.00000E+000	2.00000E-001	8.00223E-005	4	..........a	-327.66
	2691	0.5384	2.10070E-001	-1.44827E-009	0.00000E+000	2.10000E-001	8.00223E-005	4	..........a	-327.66
	2692	0.5386	2.19870E-001	-1.34826E-009	0.00000E+000	2.20000E-001	8.00223E-005	4	..........a	-327.66
	2693	0.5388	2.29920E-001	-1.25026E-009	0.00000E+000	2.30000E-001	8.00223E-005	4	..........a	-327.66
	2694	0.539	2.40070E-001	-1.14626E-009	0.00000E+000	2.40000E-001	8.00223E-005	4	..........a	-327.66
	2695	0.5392	2.49970E-001	-1.04425E-009	0.00000E+000	2.50000E-001	8.00223E-005	4	..........a	-327.66
	2696	0.5394	2.60170E-001	-9.44249E-010	0.00000E+000	2.60000E-001	8.00223E-005	4	..........a	-327.66
	2697	0.5396	2.70070E-001	-8.40245E-010	0.00000E+000	2.70000E-001	8.00223E-005	4	..........a	-327.66
	2698	0.5398	2.79870E-001	-7.31240E-010	0.00000E+000	2.80000E-001	8.00223E-005	4	..........a	-327.66
	2699	0.54	2.89970E-001	-6.28236E-010	0.00000E+000	2.90000E-001	-2.19978E-004	4	..........a	-327.66
	2700	0.5402	3.00170E-001	-5.19232E-010	0.00000E+000	3.00000E-001	8.00223E-005	4	..........a	-327.66
	2701	0.5404	3.10070E-001	-4.14228E-010	0.00000E+000	3.10000E-001	8.00223E-005	4	..........a	-327.66
	2702	0.5406	3.19920E-001	-3.06224E-010	0.00000E+000	3.20000E-001	8.00223E-005	4	..........a	-327.66
	2703	0.5408	3.29970E-001	-1.92220E-010	0.00000E+000	3.30000E-001	8.00223E-005	4	..........a	-327.66
	2704	0.541	3.39870E-001	-7.82154E-011	0.00000E+000	3.40000E-001	8.00223E-005	4	..........a	-327.66
	2705	0.5412	3.49970E-001	2.97888E-011	0.00000E+000	3.50000E-001	8.00223E-005	4	..........a	-327.66
	2706	0.5414	3.59970E-001	1.46793E-010	0.00000E+000	3.60000E-001	8.00223E-005	4	..........a	-327.66
	2707	0.5416	3.69970E-001	2.61798E-010	0.00000E+000	3.70000E-001	8.00223E-005	4	..........a	-327.66
	2708	0.5418	3.80070E-001	3.81802E-010	0.00000E+000	3.80000E-001	8.00223E-005	4	..........a	-327.66
	2709	0.542	3.89870E-001	4.97807E-010	0.00000E+000	3.90000E-001	8.00223E-005	4	..........a	-327.66
	2710	0.5422	4.00170E-001	6.16811E-010	0.00000E+000	4.00000E-001	8.00223E-005	4	..........a	-327.66
	2711	0.5424	4.09970E-001	7.37816E-010	0.00000E+000	4.10000E-001	8.00223E-005	4	..........a	-327.66
	2712	0.5426	4.20070E-001	8.62821E-010	0.00000E+000	4.20000E-001	8.00223E-005	4	..........a	-327.66
	2713	0.5428	4.29970E-001	9.85825E-010	0.00000E+000	4.30000E-001	8.00223E-005	4	..........a	-327.66
	2714	0.543	4.39970E-001	1.11483E-009	0.00000E+000	4.40000E-001	8.00223E-005	4	..........a	-327.66
	2715	0.5432	4.49670E-001	1.23584E-009	0.00000E+000	4.50000E-001	8.00223E-005	4	..........a	-327.66
	2716	0.5434	4.60070E-001	1.36584E-009	0.00000E+000	4.60000E-001	8.00223E-005	4	..........a	-327.66
	2717	0.5436	4.69770E-001	1.49585E-009	0.00000E+000	4.70000E-001	8.00223E-005	4	..........a	-327.66
	2718	0.5438	4.79920E-001	1.63485E-009	0.00000E+000	4.80000E-001	-3.19978E-004	4	..........a	-327.66
	2719	0.544	4.89770E-001	1.76486E-009	0.00000E+000	4.90000E-001	-3.19978E-004	4	..........a	-327.66
	2720	0.5442	4.99970E-001	1.90286E-009	0.00000E+000	5.00000E-001	8.00223E-005	4	..........a	-327.66
	2721	0.5444	5.09870E-001	2.04187E-009	0.00000E+000	5.10000E-001	8.00223E-005	4	..........a	-327.66
	2722	0.5446	5.19769E-001	2.18887E-009	0.00000E+000	5.20000E-001	8.00223E-005	4	..........a	-327.66
	2723	0.5448	5.29869E-001	2.33088E-009	0.00000E+000	5.30000E-001	8.00223E-005	4	..........a	-327.66
	2724	0.545	5.39670E-001	2.47688E-009	0.00000E+000	5.40000E-001	8.00223E-005	4	..........a	-327.66
	2725	0.5452	5.49969E-001	2.62389E-009	0.00000E+000	5.50000E-001	-3.19978E-004	4	..........a	-327.66
	2726	0.5454	5.60070E-001	2.77389E-009	0.00000E+000	5.60000E-001	8.00223E-005	4	..........a	-327.66
	2727	0.5456	5.69869E-001	2.93190E-009	0.00000E+000	5.70000E-001	8.00223E-005	4	..........a	-327.66
	2728	0.5458	5.79919E-001	3.08491E-009	0.00000E+000	5.80000E-001	8.00223E-005	4	..........a	-327.66
	2729	0.546	5.89869E-001	3.23991E-009	0.00000E+000	5.90000E-001	8.00223E-005	4	..........a	-327.66
	2730	0.5462	6.00069E-001	3.40692E-009	0.00000E+000	6.00000E-001	8.00223E-005	4	..........a	-327.66
	2731	0.5464	6.09869E-001	3.57292E-009	0.00000E+000	6.10000E-001	8.00223E-005	4	..........a	-327.66
	2732	0.5466	6.19969E-001	3.74493E-009	0.00000E+000	6.20000E-001	8.00223E-005	4	..........a	-327.66
	2733	0.5468	6.29869E-001	3.91194E-009	0.00000E+000	6.30000E-001	8.00223E-005	4	..........a	-327.66
	2734	0.547	6.39969E-001	4.08894E-009	0.00000E+000	6.40000E-001	8.00223E-005	4	..........a	-327.66
	2735	0.5472	6.49769E-001	4.26995E-009	0.00000E+000	6.50000E-001	8.00223E-005	4	..........a	-327.66
	2736	0.5474	6.59970E-001	4.45096E-009	0.00000E+000	6.60000E-001	8.00223E-005	4	..........a	-327.66
	2737	0.5476	6.69969E-001	4.63697E-009	0.00000E+000	6.70000E-001	8.00223E-005	4	..........a	-327.66
	2738	0.5478	6.79769E-001	4.82297E-009	0.00000E+000	6.80000E-001	8.00223E-005	4	..........a	-327.66
	2739	0.548	6.89770E-001	5.02098E-009	0.00000E+000	6.90000E-001	8.00223E-005	4	..........a	-327.66
	2740	0.5482	6.99869E-001	5.21799E-009	0.00000E+000	7.00000E-001	8.00223E-005	4	..........a	-327.66
	2741	0.5484	7.09969E-001	5.42400E-009	0.00000E+000	7.10000E-001	8.00223E-005	4	..........a	-327.66
	2742	0.5486	7.19769E-001	5.63300E-009	0.00000E+000	7.20000E-001	8.00223E-005	4	..........a	-327.66
	2743	0.5488	7.29769E-001	5.84201E-009	0.00000E+000	7.30000E-001	8.00223E-005	4	..........a	-327.66
	2744	0.549	7.39969E-001	6.05702E-009	0.00000E+000	7.40000E-001	8.00223E-005	4	..........a	-327.66
	2745	0.5492	7.49969E-001	6.27403E-009	0.00000E+000	7.50000E-001	8.00223E-005	4	..........a	-327.66
	2746	0.5494	7.59969E-001	6.50004E-009	0.00000E+000	7.60000E-001	8.00223E-005	4	..........a	-327.66
	2747	0.5496	7.69969E-001	6.72705E-009	0.00000E+000	7.70000E-001	8.00223E-005	4	..........a	-327.66
	2748	0.5498	7.79869E-001	6.97006E-009	0.00000E+000	7.80000E-001	-2.19978E-004	4	..........a	-327.66
	2749	0.55	7.90069E-001	7.20906E-009	0.00000E+000	7.90000E-001	8.00223E-005	4	..........a	-327.66
	2750	0.5502	7.99869E-001	7.45607E-009	0.00000E+000	8.00000E-001	8.00223E-005	4	..........a	-327.66
CURVE11	TABLE
	Pt	T	Vf	Im	Vu	Sig	Ach	IERange	Over	Temp
	#	s	V vs. Ref.	A	V	V	V	#	bits	deg C
	2751	0.5504	7.89970E-001	7.58508E-009	0.00000E+000	7.90000E-001	8.00223E-005	4	..........a	-327.66
	2752	0.5506	7.79969E-001	7.67208E-009	0.00000E+000	7.80000E-001	8.00223E-005	4	..........a	-327.66
	2753	0.5508	7.69969E-001	7.73008E-009	0.00000E+000	7.70000E-001	8.00223E-005	4	..........a	-327.66
	2754	0.551	7.60069E-001	7.77209E-009	0.00000E+000	7.60000E-001	8.00223E-005	4	..........a	-327.66
	2755	0.5512	7.49969E-001	7.79809E-009	0.00000E+000	7.50000E-001	8.00223E-005	4	..........a	-327.66
	2756	0.5514	7.39769E-001	7.80809E-009	0.00000E+000	7.40000E-001	8.00223E-005	4	..........a	-327.66
	2757	0.5516	7.29869E-001	7.81009E-009	0.00000E+000	7.30000E-001	8.00223E-005	4	..........a	-327.66
	2758	0.5518	7.19869E-001	7.80209E-009	0.00000E+000	7.20000E-001	8.00223E-005	4	..........a	-327.66
	2759	0.552	7.09870E-001	7.77909E-009	0.00000E+000	7.10000E-001	8.00223E-005	4	..........a	-327.66
	2760	0.5522	6.99869E-001	7.75809E-009	0.00000E+000	7.00000E-001	8.00223E-005	4	..........a	-327.66
	2761	0.5524	6.89869E-001	7.72808E-009	0.00000E+000	6.90000E-001	8.00223E-005	4	..........a	-327.66
	2762	0.5526	6.79969E-001	7.69208E-009	0.00000E+000	6.80000E-001	8.00223E-005	4	..........a	-327.66
	2763	0.5528	6.69869E-001	7.65208E-009	0.00000E+000	6.70000E-001	8.00223E-005	4	..........a	-327.66
	2764	0.553	6.59669E-001	7.61108E-009	0.00000E+000	6.60000E-001	8.00223E-005	4	..........a	-327.66
	2765	0.5532	6.49769E-001	7.56108E-009	0.00000E+000	6.50000E-001	8.00223E-005	4	..........a	-327.66
	2766	0.5534	6.39769E-001	7.50908E-009	0.00000E+000	6.40000E-001	-3.19978E-004	4	..........a	-327.66
	2767	0.5536	6.29969E-001	7.45607E-009	0.00000E+000	6.30000E-001	8.00223E-005	4	..........a	-327.66
	2768	0.5538	6.19869E-001	7.39607E-009	0.00000E+000	6.20000E-001	8.00223E-005	4	..........a	-327.66
	2769	0.554	6.09869E-001	7.34607E-009	0.00000E+000	6.10000E-001	8.00223E-005	4	..........a	-327.66
	2770	0.5542	5.99869E-001	7.28007E-009	0.00000E+000	6.00000E-001	8.00223E-005	4	..........a	-327.66
	2771	0.5544	5.89969E-001	7.21606E-009	0.00000E+000	5.90000E-001	8.00223E-005	4	..........a	-327.66
	2772	0.5546	5.79870E-001	7.15406E-009	0.00000E+000	5.80000E-001	8.00223E-005	4	..........a	-327.66
	2773	0.5548	5.69669E-001	7.08706E-009	0.00000E+000	5.70000E-001	8.00223E-005	4	..........a	-327.66
	2774	0.555	5.60019E-001	7.01406E-009	0.00000E+000	5.60000E-001	8.00223E-005	4	..........a	-327.66
	2775	0.5552	5.49869E-001	6.94605E-009	0.00000E+000	5.50000E-001	8.00223E-005	4	..........a	-327.66
	2776	0.5554	5.39970E-001	6.87405E-009	0.00000E+000	5.40000E-001	8.00223E-005	4	..........a	-327.66
	2777	0.5556	5.30069E-001	6.79805E-009	0.00000E+000	5.30000E-001	8.00223E-005	4	..........a	-327.66
	2778	0.5558	5.19969E-001	6.72405E-009	0.00000E+000	5.20000E-001	-3.19978E-004	4	..........a	-327.66
	2779	0.556	5.09969E-001	6.64904E-009	0.00000E+000	5.10000E-001	8.00223E-005	4	..........a	-327.66
	2780	0.5562	5.00069E-001	6.56904E-009	0.00000E+000	5.00000E-001	8.00223E-005	4	..........a	-327.66
	2781	0.5564	4.90070E-001	6.48904E-009	0.00000E+000	4.90000E-001	8.00223E-005	4	..........a	-327.66
	2782	0.5566	4.79720E-001	6.40403E-009	0.00000E+000	4.80000E-001	8.00223E-005	4	..........a	-327.66
	2783	0.5568	4.69870E-001	6.32403E-009	0.00000E+000	4.70000E-001	8.00223E-005	4	..........a	-327.66
	2784	0.557	4.59970E-001	6.23403E-009	0.00000E+000	4.60000E-001	8.00223E-005	4	..........a	-327.66
	2785	0.5572	4.49670E-001	6.15602E-009	0.00000E+000	4.50000E-001	8.00223E-005	4	..........a	-327.66
	2786	0.5574	4.39670E-001	6.06402E-009	0.00000E+000	4.40000E-001	8.00223E-005	4	..........a	-327.66
	2787	0.5576	4.29870E-001	5.97302E-009	0.00000E+000	4.30000E-001	8.00223E-005	4	..........a	-327.66
	2788	0.5578	4.19970E-001	5.88201E-009	0.00000E+000	4.20000E-001	8.00223E-005	4	..........a	-327.66
	2789	0.558	4.09870E-001	5.79401E-009	0.00000E+000	4.10000E-001	8.00223E-005	4	..........a	-327.66
	2790	0.5582	4.00170E-001	5.70501E-009	0.00000E+000	4.00000E-001	8.00223E-005	4	..........a	-327.66
	2791	0.5584	3.89870E-001	5.59800E-009	0.00000E+000	3.90000E-001	8.00223E-005	4	..........a	-327.66
	2792	0.5586	3.80070E-001	5.50200E-009	0.00000E+000	3.80000E-001	8.00223E-005	4	..........a	-327.66
	2793	0.5588	3.69970E-001	5.40700E-009	0.00000E+000	3.70000E-001	8.00223E-005	4	..........a	-327.66
	2794	0.559	3.60070E-001	5.30599E-009	0.00000E+000	3.60000E-001	8.00223E-005	4	..........a	-327.66
	2795	0.5592	3.50070E-001	5.20099E-009	0.00000E+000	3.50000E-001	8.00223E-005	4	..........a	-327.66
	2796	0.5594	3.40070E-001	5.10098E-009	0.00000E+000	3.40000E-001	8.00223E-005	4	..........a	-327.66
	2797	0.5596	3.29970E-001	4.99698E-009	0.00000E+000	3.30000E-001	8.00223E-005	4	..........a	-327.66
	2798	0.5598	3.19870E-001	4.88898E-009	0.00000E+000	3.20000E-001	8.00223E-005	4	..........a	-327.66