File: example_project/raw_outputs/20240321_ZJ_GM0016_HL03_E09_CV50k.DTA
EXPLAIN
TAG	CV
TITLE	LABEL	Cyclic Voltammetry	Test &Identifier
DATE	LABEL	3/21/2024	Date
TIME	LABEL	18:32:06	Time
NOTES	NOTES	1	&Notes...

PSTAT	PSTAT	REF600P-43058	Potentiostat
VINIT	POTEN	0.00000E+000	T	Initial &E (V)
VLIMIT1	POTEN	-6.00000E-001	F	Scan Limit &1 (V)
VLIMIT2	POTEN	8.00000E-001	F	Scan Limit &2 (V)
VFINAL	POTEN	0.00000E+000	T	Final &E (V)
SCANRATE	QUANT	4.99999E+004	&Scan Rate (mV/s)
STEPSIZE	QUANT	1.00000E+001	St&ep Size (mV)
CYCLES	IQUANT	10	C&ycles (#)
IMODE	SELECTOR	1	I/E Range &Mode
IRANGE	QUANT	1.00000E-005	&Max Current (mA)
AREA	QUANT	1.00000E+000	Electrode &Area (cm^2)
ELECTRODETYPE	SELECTOR	0	Electrode Type
STRIPPING	TOGGLE	F	Used for Stripping
POLARITY	TOGGLE	F	Signal Polarity
CONDIT	TWOPARAM	F	1.50000E+001	0.00000E+000	Conditionin&g	Time(s)	E(V)
DELAY	TWOPARAM	T	1.00000E+001	0.00000E+000	Init. De&lay	Time(s)	Stab.(mV/s)
EQDELAY	QUANT	1.00000E+001	Equil. &Time (s)
IRCOMP	SELECTOR	0	IRCom&p
PFCOR	QUANT	5.00000E+001	PF Corr. (ohm)
SAMPLINGMODE	SELECTOR	1	Sampling &Mode
OCVCURVE	TABLE	39
	Pt	T	Vf	Vm	Ach	Over	Temp
	#	s	V vs. Ref.	V	V	bits	deg C
	0	0.258333	3.44665E-001	3.44665E-001	2.52222E-004	..........a	-327.66
	1	0.516667	3.44669E-001	3.44878E-001	2.76889E-004	..........a	-327.66
	2	0.775	3.44694E-001	3.45036E-001	2.52956E-004	..........a	-327.66
	3	1.03333	3.44759E-001	3.45215E-001	2.45689E-004	..........a	-327.66
	4	1.29167	3.44875E-001	3.45435E-001	2.52356E-004	..........a	-327.66
	5	1.55	3.45032E-001	3.45628E-001	2.62356E-004	..........a	-327.66
	6	1.80833	3.45214E-001	3.45812E-001	2.62156E-004	..........a	-327.66
	7	2.06667	3.45411E-001	3.46153E-001	2.64356E-004	..........a	-327.66
	8	2.325	3.45623E-001	3.46383E-001	2.66422E-004	..........a	-327.66
	9	2.58333	3.45850E-001	3.46419E-001	2.60622E-004	..........a	-327.66
	10	2.84167	3.46076E-001	3.46553E-001	2.58956E-004	..........a	-327.66
	11	3.1	3.46270E-001	3.46724E-001	2.51156E-004	..........a	-327.66
	12	3.35833	3.46430E-001	3.46922E-001	2.52156E-004	..........a	-327.66
	13	3.61667	3.46577E-001	3.47056E-001	2.33822E-004	..........a	-327.66
	14	3.875	3.46726E-001	3.47094E-001	2.36556E-004	..........a	-327.66
	15	4.13333	3.46872E-001	3.47212E-001	2.45422E-004	..........a	-327.66
	16	4.39167	3.47005E-001	3.47647E-001	2.56889E-004	..........a	-327.66
	17	4.65	3.47153E-001	3.48046E-001	2.60956E-004	..........a	-327.66
	18	4.90833	3.47357E-001	3.48184E-001	2.41022E-004	..........a	-327.66
	19	5.16667	3.47618E-001	3.48306E-001	2.67356E-004	..........a	-327.66
	20	5.425	3.47888E-001	3.48532E-001	2.48356E-004	..........a	-327.66
	21	5.68333	3.48126E-001	3.48770E-001	2.73556E-004	..........a	-327.66
	22	5.94167	3.48335E-001	3.48949E-001	2.44689E-004	..........a	-327.66
	23	6.2	3.48534E-001	3.49127E-001	2.51822E-004	..........a	-327.66
	24	6.45833	3.48736E-001	3.49490E-001	2.47156E-004	..........a	-327.66
	25	6.71667	3.48946E-001	3.49605E-001	2.71356E-004	..........a	-327.66
	26	6.975	3.49164E-001	3.49673E-001	2.81356E-004	..........a	-327.66
	27	7.23333	3.49371E-001	3.49853E-001	2.61822E-004	..........a	-327.66
	28	7.49167	3.49549E-001	3.50008E-001	2.54156E-004	..........a	-327.66
	29	7.75	3.49705E-001	3.50266E-001	2.63022E-004	..........a	-327.66
	30	8.00833	3.49862E-001	3.50467E-001	2.61356E-004	..........a	-327.66
	31	8.26667	3.50038E-001	3.50617E-001	2.55622E-004	..........a	-327.66
	32	8.525	3.50230E-001	3.50815E-001	2.57422E-004	..........a	-327.66
	33	8.78333	3.50427E-001	3.51161E-001	2.58022E-004	..........a	-327.66
	34	9.04167	3.50631E-001	3.51251E-001	2.72489E-004	..........a	-327.66
	35	9.3	3.50842E-001	3.51378E-001	2.54289E-004	..........a	-327.66
	36	9.5583	3.51045E-001	3.51524E-001	2.60222E-004	..........a	-327.66
	37	9.8167	3.51223E-001	3.51736E-001	2.48222E-004	..........a	-327.66
	38	10.075	3.51386E-001	3.51964E-001	2.70422E-004	..........a	-327.66
EOC	QUANT	0.3513857	Open Circuit (V)
PSTATMODEL	IQUANT	7	Pstat Model
PSTATSECTION	LABEL	REF600P-43058	Pstat Section
PSTATSERIALNO	LABEL	43058	Pstat Serial Number
CTRLMODE	IQUANT	1	Control Mode
ELECTROMETER	IQUANT	0	RE=0 or CS=1
IESTAB	IQUANT	2	I/E Stability
CASPEED	IQUANT	4	Control Amp Speed
CONVENTION	IQUANT	1	Current Convention
ICHRANGE	IQUANT	2	Ich Range
ICHRANGEMODE	TOGGLE	F	Ich Auto Range
ICHOFFSETENABLE	TOGGLE	F	Ich Offset Enable
ICHOFFSET	QUANT	0	Ich Offset (V)
ICHFILTER	IQUANT	1	Ich Filter
VCHRANGE	IQUANT	2	Vch Range
VCHRANGEMODE	TOGGLE	F	Vch Auto Range
VCHOFFSETENABLE	TOGGLE	F	Vch Offset Enable
VCHOFFSET	QUANT	0	Vch Offset (V)
VCHFILTER	IQUANT	1	Vch Filter
ACHRANGE	IQUANT	2	Ach Range
ACHOFFSETENABLE	TOGGLE	F	Ach Offset Enable
ACHOFFSET	QUANT	0	Ach Offset (V)
ACHFILTER	IQUANT	1	Ach Filter
IERANGELOWERLIMIT	IQUANT	1	I/E Range Lower Limit
IERANGEMODE	TOGGLE	F	I/E AutoRange
IERANGE	IQUANT	4	I/E Range
POSFEEDENABLE	TOGGLE	F	Positive Feedback IR Comp
POSFEEDRESISTANCE	QUANT	0	Positive Feedback Resistance (ohm)
ACHSELECT	IQUANT	4	Ach Select
SENSECABLEID	IQUANT	7	Sense Cable ID
PWRCABLEID	IQUANT	7	Power Cable ID
DCCALDATE	LABEL	12/18/2023	DC Calibration Date
ACCALDATE	LABEL	12/18/2023	AC Calibration Date
THERMOSELECT	IQUANT	1	Thermo Select
FRAMEWORKVERSION	LABEL	7.8.4	Framework Version
INSTRUMENTVERSION	LABEL	4.42	Instrument Version
CURVE1	TABLE
	Pt	T	Vf	Im	Vu	Sig	Ach	IERange	Over	Temp
	#	s	V vs. Ref.	A	V	V	V	#	bits	deg C
	0	0.0002	3.51470E-001	2.07884E-011	0.00000E+000	3.51400E-001	8.00223E-005	4	..........a	-327.66
	1	0.0004	3.41270E-001	-1.52130E-011	0.00000E+000	3.41400E-001	8.00223E-005	4	..........a	-327.66
	2	0.0006	3.31470E-001	-5.42144E-011	0.00000E+000	3.31400E-001	8.00223E-005	4	..........a	-327.66
	3	0.0008	3.21170E-001	-9.42160E-011	0.00000E+000	3.21400E-001	8.00223E-005	4	..........a	-327.66
	4	0.001	3.11470E-001	-1.35218E-010	0.00000E+000	3.11400E-001	8.00223E-005	4	..........a	-327.66
	5	0.0012	3.01470E-001	-1.82219E-010	0.00000E+000	3.01400E-001	8.00223E-005	4	..........a	-327.66
	6	0.0014	2.91270E-001	-2.23221E-010	0.00000E+000	2.91400E-001	8.00223E-005	4	..........a	-327.66
	7	0.0016	2.81270E-001	-2.72223E-010	0.00000E+000	2.81400E-001	8.00223E-005	4	..........a	-327.66
	8	0.0018	2.71570E-001	-3.18225E-010	0.00000E+000	2.71400E-001	8.00223E-005	4	..........a	-327.66
	9	0.002	2.61370E-001	-3.72227E-010	0.00000E+000	2.61400E-001	-3.19978E-004	4	..........a	-327.66
	10	0.0022	2.51470E-001	-4.24229E-010	0.00000E+000	2.51400E-001	8.00223E-005	4	..........a	-327.66
	11	0.0024	2.41370E-001	-4.71230E-010	0.00000E+000	2.41400E-001	8.00223E-005	4	..........a	-327.66
	12	0.0026	2.31470E-001	-5.28233E-010	0.00000E+000	2.31400E-001	8.00223E-005	4	..........a	-327.66
	13	0.0028	2.21270E-001	-5.82235E-010	0.00000E+000	2.21400E-001	8.00223E-005	4	..........a	-327.66
	14	0.003	2.11370E-001	-6.40237E-010	0.00000E+000	2.11400E-001	8.00223E-005	4	..........a	-327.66
	15	0.0032	2.01370E-001	-7.03239E-010	0.00000E+000	2.01400E-001	8.00223E-005	4	..........a	-327.66
	16	0.0034	1.91570E-001	-7.61242E-010	0.00000E+000	1.91400E-001	8.00223E-005	4	..........a	-327.66
	17	0.0036	1.81470E-001	-8.24244E-010	0.00000E+000	1.81400E-001	8.00223E-005	4	..........a	-327.66
	18	0.0038	1.71470E-001	-8.86246E-010	0.00000E+000	1.71400E-001	8.00223E-005	4	..........a	-327.66
	19	0.004	1.61370E-001	-9.48249E-010	0.00000E+000	1.61400E-001	8.00223E-005	4	..........a	-327.66
	20	0.0042	1.51570E-001	-1.01925E-009	0.00000E+000	1.51400E-001	8.00223E-005	4	..........a	-327.66
	21	0.0044	1.41370E-001	-1.08625E-009	0.00000E+000	1.41400E-001	8.00223E-005	4	..........a	-327.66
	22	0.0046	1.31470E-001	-1.15926E-009	0.00000E+000	1.31400E-001	8.00223E-005	4	..........a	-327.66
	23	0.0048	1.21270E-001	-1.23126E-009	0.00000E+000	1.21400E-001	8.00223E-005	4	..........a	-327.66
	24	0.005	1.11470E-001	-1.31426E-009	0.00000E+000	1.11400E-001	8.00223E-005	4	..........a	-327.66
	25	0.0052	1.01270E-001	-1.37627E-009	0.00000E+000	1.01400E-001	8.00223E-005	4	..........a	-327.66
	26	0.0054	9.12695E-002	-1.46127E-009	0.00000E+000	9.14000E-002	-3.19978E-004	4	..........a	-327.66
	27	0.0056	8.14695E-002	-1.54327E-009	0.00000E+000	8.14000E-002	8.00223E-005	4	..........a	-327.66
	28	0.0058	7.14695E-002	-1.62327E-009	0.00000E+000	7.14000E-002	8.00223E-005	4	..........a	-327.66
	29	0.006	6.13695E-002	-1.71428E-009	0.00000E+000	6.14000E-002	8.00223E-005	4	..........a	-327.66
	30	0.0062	5.13695E-002	-1.80228E-009	0.00000E+000	5.14000E-002	8.00223E-005	4	..........a	-327.66
	31	0.0064	4.14695E-002	-1.89829E-009	0.00000E+000	4.14000E-002	8.00223E-005	4	..........a	-327.66
	32	0.0066	3.15695E-002	-1.99029E-009	0.00000E+000	3.14000E-002	8.00223E-005	4	..........a	-327.66
	33	0.0068	2.15695E-002	-2.08629E-009	0.00000E+000	2.14000E-002	8.00223E-005	4	..........a	-327.66
	34	0.007	1.13695E-002	-2.18030E-009	0.00000E+000	1.14000E-002	8.00223E-005	4	..........a	-327.66
	35	0.0072	1.46952E-003	-2.28430E-009	0.00000E+000	1.40000E-003	8.00223E-005	4	..........a	-327.66
	36	0.0074	-8.43048E-003	-2.38430E-009	0.00000E+000	-8.60000E-003	8.00223E-005	4	..........a	-327.66
	37	0.0076	-1.84805E-002	-2.49831E-009	0.00000E+000	-1.86000E-002	8.00223E-005	4	..........a	-327.66
	38	0.0078	-2.85305E-002	-2.60031E-009	0.00000E+000	-2.86000E-002	8.00223E-005	4	..........a	-327.66
	39	0.008	-3.84305E-002	-2.71532E-009	0.00000E+000	-3.86000E-002	8.00223E-005	4	..........a	-327.66
	40	0.0082	-4.84305E-002	-2.82332E-009	0.00000E+000	-4.86000E-002	8.00223E-005	4	..........a	-327.66
	41	0.0084	-5.87305E-002	-2.94033E-009	0.00000E+000	-5.86000E-002	8.00223E-005	4	..........a	-327.66
	42	0.0086	-6.87305E-002	-3.04833E-009	0.00000E+000	-6.86000E-002	8.00223E-005	4	..........a	-327.66
	43	0.0088	-7.86305E-002	-3.17633E-009	0.00000E+000	-7.86000E-002	8.00223E-005	4	..........a	-327.66
	44	0.009	-8.85305E-002	-3.29834E-009	0.00000E+000	-8.86000E-002	8.00223E-005	4	..........a	-327.66
	45	0.0092	-9.85305E-002	-3.42034E-009	0.00000E+000	-9.86000E-002	8.00223E-005	4	..........a	-327.66
	46	0.0094	-1.08530E-001	-3.54235E-009	0.00000E+000	-1.08600E-001	8.00223E-005	4	..........a	-327.66
	47	0.0096	-1.18430E-001	-3.67035E-009	0.00000E+000	-1.18600E-001	8.00223E-005	4	..........a	-327.66
	48	0.0098	-1.28530E-001	-3.79936E-009	0.00000E+000	-1.28600E-001	8.00223E-005	4	..........a	-327.66
	49	0.01	-1.38730E-001	-3.92636E-009	0.00000E+000	-1.38600E-001	8.00223E-005	4	..........a	-327.66
	50	0.0102	-1.48330E-001	-4.05537E-009	0.00000E+000	-1.48600E-001	8.00223E-005	4	..........a	-327.66
	51	0.0104	-1.58530E-001	-4.18737E-009	0.00000E+000	-1.58600E-001	8.00223E-005	4	..........a	-327.66
	52	0.0106	-1.68430E-001	-4.32038E-009	0.00000E+000	-1.68600E-001	-2.19978E-004	4	..........a	-327.66
	53	0.0108	-1.78530E-001	-4.44838E-009	0.00000E+000	-1.78600E-001	8.00223E-005	4	..........a	-327.66
	54	0.011	-1.88530E-001	-4.59239E-009	0.00000E+000	-1.88600E-001	8.00223E-005	4	..........a	-327.66
	55	0.0112	-1.98530E-001	-4.72539E-009	0.00000E+000	-1.98600E-001	8.00223E-005	4	..........a	-327.66
	56	0.0114	-2.08430E-001	-4.86340E-009	0.00000E+000	-2.08600E-001	8.00223E-005	4	..........a	-327.66
	57	0.0116	-2.18330E-001	-5.00240E-009	0.00000E+000	-2.18600E-001	8.00223E-005	4	..........a	-327.66
	58	0.0118	-2.28530E-001	-5.13841E-009	0.00000E+000	-2.28600E-001	8.00223E-005	4	..........a	-327.66
	59	0.012	-2.38430E-001	-5.27741E-009	0.00000E+000	-2.38600E-001	8.00223E-005	4	..........a	-327.66
	60	0.0122	-2.48530E-001	-5.41442E-009	0.00000E+000	-2.48600E-001	8.00223E-005	4	..........a	-327.66
	61	0.0124	-2.58730E-001	-5.55143E-009	0.00000E+000	-2.58600E-001	-3.19978E-004	4	..........a	-327.66
	62	0.0126	-2.68530E-001	-5.69243E-009	0.00000E+000	-2.68600E-001	8.00223E-005	4	..........a	-327.66
	63	0.0128	-2.78330E-001	-5.83444E-009	0.00000E+000	-2.78600E-001	8.00223E-005	4	..........a	-327.66
	64	0.013	-2.88530E-001	-5.97044E-009	0.00000E+000	-2.88600E-001	8.00223E-005	4	..........a	-327.66
	65	0.0132	-2.98430E-001	-6.11145E-009	0.00000E+000	-2.98600E-001	8.00223E-005	4	..........a	-327.66
	66	0.0134	-3.08530E-001	-6.25245E-009	0.00000E+000	-3.08600E-001	8.00223E-005	4	..........a	-327.66
	67	0.0136	-3.18530E-001	-6.39646E-009	0.00000E+000	-3.18600E-001	8.00223E-005	4	..........a	-327.66
	68	0.0138	-3.28530E-001	-6.54046E-009	0.00000E+000	-3.28600E-001	8.00223E-005	4	..........a	-327.66
	69	0.014	-3.38330E-001	-6.68247E-009	0.00000E+000	-3.38600E-001	8.00223E-005	4	..........a	-327.66
	70	0.0142	-3.48480E-001	-6.82347E-009	0.00000E+000	-3.48600E-001	8.00223E-005	4	..........a	-327.66
	71	0.0144	-3.58530E-001	-6.96348E-009	0.00000E+000	-3.58600E-001	8.00223E-005	4	..........a	-327.66
	72	0.0146	-3.68480E-001	-7.10449E-009	0.00000E+000	-3.68600E-001	8.00223E-005	4	..........a	-327.66
	73	0.0148	-3.78630E-001	-7.24849E-009	0.00000E+000	-3.78600E-001	-3.19978E-004	4	..........a	-327.66
	74	0.015	-3.88530E-001	-7.39450E-009	0.00000E+000	-3.88600E-001	-2.19978E-004	4	..........a	-327.66
	75	0.0152	-3.98430E-001	-7.53150E-009	0.00000E+000	-3.98600E-001	8.00223E-005	4	..........a	-327.66
	76	0.0154	-4.08330E-001	-7.68251E-009	0.00000E+000	-4.08600E-001	8.00223E-005	4	..........a	-327.66
	77	0.0156	-4.18630E-001	-7.82551E-009	0.00000E+000	-4.18600E-001	8.00223E-005	4	..........a	-327.66
	78	0.0158	-4.28530E-001	-7.97052E-009	0.00000E+000	-4.28600E-001	8.00223E-005	4	..........a	-327.66
	79	0.016	-4.38230E-001	-8.11252E-009	0.00000E+000	-4.38600E-001	8.00223E-005	4	..........a	-327.66
	80	0.0162	-4.48530E-001	-8.25853E-009	0.00000E+000	-4.48600E-001	8.00223E-005	4	..........a	-327.66
	81	0.0164	-4.58530E-001	-8.40453E-009	0.00000E+000	-4.58600E-001	8.00223E-005	4	..........a	-327.66
	82	0.0166	-4.68430E-001	-8.55154E-009	0.00000E+000	-4.68600E-001	8.00223E-005	4	..........a	-327.66
	83	0.0168	-4.78430E-001	-8.69755E-009	0.00000E+000	-4.78600E-001	8.00223E-005	4	..........a	-327.66
	84	0.017	-4.88430E-001	-8.84355E-009	0.00000E+000	-4.88600E-001	8.00223E-005	4	..........a	-327.66
	85	0.0172	-4.98530E-001	-8.99656E-009	0.00000E+000	-4.98600E-001	8.00223E-005	4	..........a	-327.66
	86	0.0174	-5.08330E-001	-9.14256E-009	0.00000E+000	-5.08600E-001	8.00223E-005	4	..........a	-327.66
	87	0.0176	-5.18530E-001	-9.29057E-009	0.00000E+000	-5.18600E-001	8.00223E-005	4	..........a	-327.66
	88	0.0178	-5.28331E-001	-9.43958E-009	0.00000E+000	-5.28600E-001	8.00223E-005	4	..........a	-327.66
	89	0.018	-5.38330E-001	-9.59558E-009	0.00000E+000	-5.38600E-001	8.00223E-005	4	..........a	-327.66
	90	0.0182	-5.48630E-001	-9.75059E-009	0.00000E+000	-5.48600E-001	8.00223E-005	4	..........a	-327.66
	91	0.0184	-5.58430E-001	-9.90559E-009	0.00000E+000	-5.58600E-001	8.00223E-005	4	..........a	-327.66
	92	0.0186	-5.68430E-001	-1.00586E-008	0.00000E+000	-5.68600E-001	8.00223E-005	4	..........a	-327.66
	93	0.0188	-5.78330E-001	-1.02196E-008	0.00000E+000	-5.78600E-001	8.00223E-005	4	..........a	-327.66
	94	0.019	-5.88530E-001	-1.03786E-008	0.00000E+000	-5.88600E-001	8.00223E-005	4	..........a	-327.66
	95	0.0192	-5.98330E-001	-1.05406E-008	0.00000E+000	-5.98600E-001	8.00223E-005	4	..........a	-327.66
	96	0.0194	-5.88331E-001	-1.05906E-008	0.00000E+000	-5.88600E-001	8.00223E-005	4	..........a	-327.66
	97	0.0196	-5.78430E-001	-1.06196E-008	0.00000E+000	-5.78600E-001	8.00223E-005	4	..........a	-327.66
	98	0.0198	-5.68430E-001	-1.06296E-008	0.00000E+000	-5.68600E-001	8.00223E-005	4	..........a	-327.66
	99	0.02	-5.58430E-001	-1.06276E-008	0.00000E+000	-5.58600E-001	8.00223E-005	4	..........a	-327.66
	100	0.0202	-5.48330E-001	-1.06146E-008	0.00000E+000	-5.48600E-001	8.00223E-005	4	..........a	-327.66
	101	0.0204	-5.38530E-001	-1.05926E-008	0.00000E+000	-5.38600E-001	8.00223E-005	4	..........a	-327.66
	102	0.0206	-5.28430E-001	-1.05766E-008	0.00000E+000	-5.28600E-001	8.00223E-005	4	..........a	-327.66
	103	0.0208	-5.18530E-001	-1.05476E-008	0.00000E+000	-5.18600E-001	8.00223E-005	4	..........a	-327.66
	104	0.021	-5.08330E-001	-1.05116E-008	0.00000E+000	-5.08600E-001	8.00223E-005	4	..........a	-327.66
	105	0.0212	-4.98430E-001	-1.04736E-008	0.00000E+000	-4.98600E-001	8.00223E-005	4	..........a	-327.66
	106	0.0214	-4.88430E-001	-1.04326E-008	0.00000E+000	-4.88600E-001	8.00223E-005	4	..........a	-327.66
	107	0.0216	-4.78430E-001	-1.03826E-008	0.00000E+000	-4.78600E-001	8.00223E-005	4	..........a	-327.66
	108	0.0218	-4.68430E-001	-1.03406E-008	0.00000E+000	-4.68600E-001	8.00223E-005	4	..........a	-327.66
	109	0.022	-4.58530E-001	-1.02866E-008	0.00000E+000	-4.58600E-001	8.00223E-005	4	..........a	-327.66
	110	0.0222	-4.48330E-001	-1.02406E-008	0.00000E+000	-4.48600E-001	8.00223E-005	4	..........a	-327.66
	111	0.0224	-4.38530E-001	-1.01826E-008	0.00000E+000	-4.38600E-001	8.00223E-005	4	..........a	-327.66
	112	0.0226	-4.28530E-001	-1.01236E-008	0.00000E+000	-4.28600E-001	-2.19978E-004	4	..........a	-327.66
	113	0.0228	-4.18230E-001	-1.00706E-008	0.00000E+000	-4.18600E-001	8.00223E-005	4	..........a	-327.66
	114	0.023	-4.08430E-001	-1.00066E-008	0.00000E+000	-4.08600E-001	8.00223E-005	4	..........a	-327.66
	115	0.0232	-3.98330E-001	-9.94259E-009	0.00000E+000	-3.98600E-001	8.00223E-005	4	..........a	-327.66
	116	0.0234	-3.88430E-001	-9.87959E-009	0.00000E+000	-3.88600E-001	8.00223E-005	4	..........a	-327.66
	117	0.0236	-3.78430E-001	-9.81959E-009	0.00000E+000	-3.78600E-001	8.00223E-005	4	..........a	-327.66
	118	0.0238	-3.68430E-001	-9.74959E-009	0.00000E+000	-3.68600E-001	8.00223E-005	4	..........a	-327.66
	119	0.024	-3.58330E-001	-9.68658E-009	0.00000E+000	-3.58600E-001	8.00223E-005	4	..........a	-327.66
	120	0.0242	-3.48530E-001	-9.61858E-009	0.00000E+000	-3.48600E-001	8.00223E-005	4	..........a	-327.66
	121	0.0244	-3.38330E-001	-9.54658E-009	0.00000E+000	-3.38600E-001	8.00223E-005	4	..........a	-327.66
	122	0.0246	-3.28330E-001	-9.47958E-009	0.00000E+000	-3.28600E-001	8.00223E-005	4	..........a	-327.66
	123	0.0248	-3.18430E-001	-9.40557E-009	0.00000E+000	-3.18600E-001	8.00223E-005	4	..........a	-327.66
	124	0.025	-3.08330E-001	-9.33557E-009	0.00000E+000	-3.08600E-001	8.00223E-005	4	..........a	-327.66
	125	0.0252	-2.98330E-001	-9.26457E-009	0.00000E+000	-2.98600E-001	8.00223E-005	4	..........a	-327.66
	126	0.0254	-2.88380E-001	-9.18957E-009	0.00000E+000	-2.88600E-001	8.00223E-005	4	..........a	-327.66
	127	0.0256	-2.78430E-001	-9.12256E-009	0.00000E+000	-2.78600E-001	8.00223E-005	4	..........a	-327.66
	128	0.0258	-2.68330E-001	-9.04256E-009	0.00000E+000	-2.68600E-001	8.00223E-005	4	..........a	-327.66
	129	0.026	-2.58330E-001	-8.96656E-009	0.00000E+000	-2.58600E-001	8.00223E-005	4	..........a	-327.66
	130	0.0262	-2.48430E-001	-8.89255E-009	0.00000E+000	-2.48600E-001	8.00223E-005	4	..........a	-327.66
	131	0.0264	-2.38630E-001	-8.81755E-009	0.00000E+000	-2.38600E-001	8.00223E-005	4	..........a	-327.66
	132	0.0266	-2.28530E-001	-8.73855E-009	0.00000E+000	-2.28600E-001	8.00223E-005	4	..........a	-327.66
	133	0.0268	-2.18530E-001	-8.66255E-009	0.00000E+000	-2.18600E-001	8.00223E-005	4	..........a	-327.66
	134	0.027	-2.08630E-001	-8.57954E-009	0.00000E+000	-2.08600E-001	8.00223E-005	4	..........a	-327.66
	135	0.0272	-1.98630E-001	-8.50654E-009	0.00000E+000	-1.98600E-001	8.00223E-005	4	..........a	-327.66
	136	0.0274	-1.88430E-001	-8.42254E-009	0.00000E+000	-1.88600E-001	8.00223E-005	4	..........a	-327.66
	137	0.0276	-1.78330E-001	-8.34853E-009	0.00000E+000	-1.78600E-001	8.00223E-005	4	..........a	-327.66
	138	0.0278	-1.68580E-001	-8.26653E-009	0.00000E+000	-1.68600E-001	8.00223E-005	4	..........a	-327.66
	139	0.028	-1.58530E-001	-8.18253E-009	0.00000E+000	-1.58600E-001	8.00223E-005	4	..........a	-327.66
	140	0.0282	-1.48530E-001	-8.10252E-009	0.00000E+000	-1.48600E-001	8.00223E-005	4	..........a	-327.66
	141	0.0284	-1.38530E-001	-8.02452E-009	0.00000E+000	-1.38600E-001	8.00223E-005	4	..........a	-327.66
	142	0.0286	-1.28580E-001	-7.93452E-009	0.00000E+000	-1.28600E-001	1.80022E-004	4	..........a	-327.66
	143	0.0288	-1.18330E-001	-7.85251E-009	0.00000E+000	-1.18600E-001	8.00223E-005	4	..........a	-327.66
	144	0.029	-1.08630E-001	-7.77151E-009	0.00000E+000	-1.08600E-001	8.00223E-005	4	..........a	-327.66
	145	0.0292	-9.85305E-002	-7.68651E-009	0.00000E+000	-9.86000E-002	8.00223E-005	4	..........a	-327.66
	146	0.0294	-8.84805E-002	-7.60250E-009	0.00000E+000	-8.86000E-002	8.00223E-005	4	..........a	-327.66
	147	0.0296	-7.86305E-002	-7.51550E-009	0.00000E+000	-7.86000E-002	8.00223E-005	4	..........a	-327.66
	148	0.0298	-6.86305E-002	-7.43450E-009	0.00000E+000	-6.86000E-002	8.00223E-005	4	..........a	-327.66
	149	0.03	-5.83305E-002	-7.34949E-009	0.00000E+000	-5.86000E-002	8.00223E-005	4	..........a	-327.66
	150	0.0302	-4.84305E-002	-7.26249E-009	0.00000E+000	-4.86000E-002	8.00223E-005	4	..........a	-327.66
	151	0.0304	-3.86305E-002	-7.17449E-009	0.00000E+000	-3.86000E-002	8.00223E-005	4	..........a	-327.66
	152	0.0306	-2.85305E-002	-7.08648E-009	0.00000E+000	-2.86000E-002	8.00223E-005	4	..........a	-327.66
	153	0.0308	-1.84305E-002	-6.99848E-009	0.00000E+000	-1.86000E-002	8.00223E-005	4	..........a	-327.66
	154	0.031	-8.58048E-003	-6.91448E-009	0.00000E+000	-8.60000E-003	8.00223E-005	4	..........a	-327.66
	155	0.0312	1.36952E-003	-6.82647E-009	0.00000E+000	1.40000E-003	8.00223E-005	4	..........a	-327.66
	156	0.0314	1.15695E-002	-6.74047E-009	0.00000E+000	1.14000E-002	8.00223E-005	4	..........a	-327.66
	157	0.0316	2.15695E-002	-6.64447E-009	0.00000E+000	2.14000E-002	8.00223E-005	4	..........a	-327.66
	158	0.0318	3.14695E-002	-6.56246E-009	0.00000E+000	3.14000E-002	8.00223E-005	4	..........a	-327.66
	159	0.032	4.12695E-002	-6.46346E-009	0.00000E+000	4.14000E-002	8.00223E-005	4	..........a	-327.66
	160	0.0322	5.15195E-002	-6.37746E-009	0.00000E+000	5.14000E-002	8.00223E-005	4	..........a	-327.66
	161	0.0324	6.14695E-002	-6.28245E-009	0.00000E+000	6.14000E-002	8.00223E-005	4	..........a	-327.66
	162	0.0326	7.14695E-002	-6.19245E-009	0.00000E+000	7.14000E-002	-2.19978E-004	4	..........a	-327.66
	163	0.0328	8.13695E-002	-6.09845E-009	0.00000E+000	8.14000E-002	8.00223E-005	4	..........a	-327.66
	164	0.033	9.12695E-002	-6.00344E-009	0.00000E+000	9.14000E-002	8.00223E-005	4	..........a	-327.66
	165	0.0332	1.01570E-001	-5.91444E-009	0.00000E+000	1.01400E-001	8.00223E-005	4	..........a	-327.66
	166	0.0334	1.11470E-001	-5.81944E-009	0.00000E+000	1.11400E-001	8.00223E-005	4	..........a	-327.66
	167	0.0336	1.21670E-001	-5.72143E-009	0.00000E+000	1.21400E-001	8.00223E-005	4	..........a	-327.66
	168	0.0338	1.31370E-001	-5.62443E-009	0.00000E+000	1.31400E-001	8.00223E-005	4	..........a	-327.66
	169	0.034	1.41470E-001	-5.53043E-009	0.00000E+000	1.41400E-001	8.00223E-005	4	..........a	-327.66
	170	0.0342	1.51570E-001	-5.43142E-009	0.00000E+000	1.51400E-001	8.00223E-005	4	..........a	-327.66
	171	0.0344	1.61570E-001	-5.33542E-009	0.00000E+000	1.61400E-001	8.00223E-005	4	..........a	-327.66
	172	0.0346	1.71470E-001	-5.23541E-009	0.00000E+000	1.71400E-001	8.00223E-005	4	..........a	-327.66
	173	0.0348	1.81470E-001	-5.13441E-009	0.00000E+000	1.81400E-001	8.00223E-005	4	..........a	-327.66
	174	0.035	1.91470E-001	-5.03841E-009	0.00000E+000	1.91400E-001	-4.19978E-004	4	..........a	-327.66
	175	0.0352	2.01370E-001	-4.93740E-009	0.00000E+000	2.01400E-001	8.00223E-005	4	..........a	-327.66
	176	0.0354	2.11470E-001	-4.83540E-009	0.00000E+000	2.11400E-001	8.00223E-005	4	..........a	-327.66
	177	0.0356	2.21270E-001	-4.73639E-009	0.00000E+000	2.21400E-001	8.00223E-005	4	..........a	-327.66
	178	0.0358	2.31470E-001	-4.63139E-009	0.00000E+000	2.31400E-001	8.00223E-005	4	..........a	-327.66
	179	0.036	2.41470E-001	-4.52739E-009	0.00000E+000	2.41400E-001	8.00223E-005	4	..........a	-327.66
	180	0.0362	2.51570E-001	-4.42638E-009	0.00000E+000	2.51400E-001	8.00223E-005	4	..........a	-327.66
	181	0.0364	2.61370E-001	-4.31838E-009	0.00000E+000	2.61400E-001	8.00223E-005	4	..........a	-327.66
	182	0.0366	2.71470E-001	-4.20837E-009	0.00000E+000	2.71400E-001	8.00223E-005	4	..........a	-327.66
	183	0.0368	2.81270E-001	-4.10037E-009	0.00000E+000	2.81400E-001	8.00223E-005	4	..........a	-327.66
	184	0.037	2.91370E-001	-3.99737E-009	0.00000E+000	2.91400E-001	8.00223E-005	4	..........a	-327.66
	185	0.0372	3.01270E-001	-3.88736E-009	0.00000E+000	3.01400E-001	8.00223E-005	4	..........a	-327.66
	186	0.0374	3.11470E-001	-3.77436E-009	0.00000E+000	3.11400E-001	8.00223E-005	4	..........a	-327.66
	187	0.0376	3.21470E-001	-3.66635E-009	0.00000E+000	3.21400E-001	8.00223E-005	4	..........a	-327.66
	188	0.0378	3.31470E-001	-3.55135E-009	0.00000E+000	3.31400E-001	8.00223E-005	4	..........a	-327.66
	189	0.038	3.41470E-001	-3.43334E-009	0.00000E+000	3.41400E-001	8.00223E-005	4	..........a	-327.66
	190	0.0382	3.51470E-001	-3.33034E-009	0.00000E+000	3.51400E-001	8.00223E-005	4	..........a	-327.66
	191	0.0384	3.61570E-001	-3.21334E-009	0.00000E+000	3.61400E-001	8.00223E-005	4	..........a	-327.66
	192	0.0386	3.71370E-001	-3.09833E-009	0.00000E+000	3.71400E-001	8.00223E-005	4	..........a	-327.66
	193	0.0388	3.81270E-001	-2.98433E-009	0.00000E+000	3.81400E-001	-3.19978E-004	4	..........a	-327.66
	194	0.039	3.91470E-001	-2.86332E-009	0.00000E+000	3.91400E-001	8.00223E-005	4	..........a	-327.66
	195	0.0392	4.01270E-001	-2.75232E-009	0.00000E+000	4.01400E-001	8.00223E-005	4	..........a	-327.66
	196	0.0394	4.11570E-001	-2.62931E-009	0.00000E+000	4.11400E-001	8.00223E-005	4	..........a	-327.66
	197	0.0396	4.21470E-001	-2.51431E-009	0.00000E+000	4.21400E-001	8.00223E-005	4	..........a	-327.66
	198	0.0398	4.31570E-001	-2.39130E-009	0.00000E+000	4.31400E-001	8.00223E-005	4	..........a	-327.66
	199	0.04	4.41370E-001	-2.26930E-009	0.00000E+000	4.41400E-001	8.00223E-005	4	..........a	-327.66
	200	0.0402	4.51370E-001	-2.14829E-009	0.00000E+000	4.51400E-001	8.00223E-005	4	..........a	-327.66
	201	0.0404	4.61270E-001	-2.01629E-009	0.00000E+000	4.61400E-001	8.00223E-005	4	..........a	-327.66
	202	0.0406	4.71420E-001	-1.88728E-009	0.00000E+000	4.71400E-001	8.00223E-005	4	..........a	-327.66
	203	0.0408	4.81370E-001	-1.76828E-009	0.00000E+000	4.81400E-001	8.00223E-005	4	..........a	-327.66
	204	0.041	4.91470E-001	-1.64028E-009	0.00000E+000	4.91400E-001	8.00223E-005	4	..........a	-327.66
	205	0.0412	5.01069E-001	-1.51327E-009	0.00000E+000	5.01400E-001	8.00223E-005	4	..........a	-327.66
	206	0.0414	5.11469E-001	-1.37527E-009	0.00000E+000	5.11400E-001	8.00223E-005	4	..........a	-327.66
	207	0.0416	5.21369E-001	-1.24726E-009	0.00000E+000	5.21400E-001	8.00223E-005	4	..........a	-327.66
	208	0.0418	5.31269E-001	-1.11226E-009	0.00000E+000	5.31400E-001	8.00223E-005	4	..........a	-327.66
	209	0.042	5.41369E-001	-9.82250E-010	0.00000E+000	5.41400E-001	8.00223E-005	4	..........a	-327.66
	210	0.0422	5.51369E-001	-8.40245E-010	0.00000E+000	5.51400E-001	8.00223E-005	4	..........a	-327.66
	211	0.0424	5.61269E-001	-6.99239E-010	0.00000E+000	5.61400E-001	8.00223E-005	4	..........a	-327.66
	212	0.0426	5.71369E-001	-5.58234E-010	0.00000E+000	5.71400E-001	8.00223E-005	4	..........a	-327.66
	213	0.0428	5.81369E-001	-4.12228E-010	0.00000E+000	5.81400E-001	8.00223E-005	4	..........a	-327.66
	214	0.043	5.91469E-001	-2.66223E-010	0.00000E+000	5.91400E-001	-2.19978E-004	4	..........a	-327.66
	215	0.0432	6.01269E-001	-1.14217E-010	0.00000E+000	6.01400E-001	8.00223E-005	4	..........a	-327.66
	216	0.0434	6.11369E-001	3.67890E-011	0.00000E+000	6.11400E-001	8.00223E-005	4	..........a	-327.66
	217	0.0436	6.21269E-001	1.89795E-010	0.00000E+000	6.21400E-001	8.00223E-005	4	..........a	-327.66
	218	0.0438	6.31469E-001	3.44801E-010	0.00000E+000	6.31400E-001	8.00223E-005	4	..........a	-327.66
	219	0.044	6.41369E-001	5.03807E-010	0.00000E+000	6.41400E-001	-3.19978E-004	4	..........a	-327.66
	220	0.0442	6.51269E-001	6.65813E-010	0.00000E+000	6.51400E-001	8.00223E-005	4	..........a	-327.66
	221	0.0444	6.61269E-001	8.30820E-010	0.00000E+000	6.61400E-001	8.00223E-005	4	..........a	-327.66
	222	0.0446	6.71369E-001	1.00483E-009	0.00000E+000	6.71400E-001	8.00223E-005	4	..........a	-327.66
	223	0.0448	6.81269E-001	1.17083E-009	0.00000E+000	6.81400E-001	8.00223E-005	4	..........a	-327.66
	224	0.045	6.91269E-001	1.34884E-009	0.00000E+000	6.91400E-001	8.00223E-005	4	..........a	-327.66
	225	0.0452	7.01270E-001	1.52185E-009	0.00000E+000	7.01400E-001	8.00223E-005	4	..........a	-327.66
	226	0.0454	7.11569E-001	1.70385E-009	0.00000E+000	7.11400E-001	8.00223E-005	4	..........a	-327.66
	227	0.0456	7.21370E-001	1.89186E-009	0.00000E+000	7.21400E-001	8.00223E-005	4	..........a	-327.66
	228	0.0458	7.31269E-001	2.08387E-009	0.00000E+000	7.31400E-001	8.00223E-005	4	..........a	-327.66
	229	0.046	7.41369E-001	2.26887E-009	0.00000E+000	7.41400E-001	8.00223E-005	4	..........a	-327.66
	230	0.0462	7.51369E-001	2.46688E-009	0.00000E+000	7.51400E-001	8.00223E-005	4	..........a	-327.66
	231	0.0464	7.61269E-001	2.66389E-009	0.00000E+000	7.61400E-001	8.00223E-005	4	..........a	-327.66
	232	0.0466	7.71169E-001	2.87190E-009	0.00000E+000	7.71400E-001	8.00223E-005	4	..........a	-327.66
	233	0.0468	7.81169E-001	3.07991E-009	0.00000E+000	7.81400E-001	8.00223E-005	4	..........a	-327.66
	234	0.047	7.91469E-001	3.29191E-009	0.00000E+000	7.91400E-001	8.00223E-005	4	..........a	-327.66
	235	0.0472	8.01369E-001	3.50892E-009	0.00000E+000	8.01400E-001	8.00223E-005	4	..........a	-327.66
CURVE2	TABLE
	Pt	T	Vf	Im	Vu	Sig	Ach	IERange	Over	Temp
	#	s	V vs. Ref.	A	V	V	V	#	bits	deg C
	236	0.0474	7.89919E-001	3.60993E-009	0.00000E+000	7.90000E-001	8.00223E-005	4	..........a	-327.66
	237	0.0476	7.79869E-001	3.68393E-009	0.00000E+000	7.80000E-001	8.00223E-005	4	..........a	-327.66
	238	0.0478	7.69969E-001	3.73693E-009	0.00000E+000	7.70000E-001	8.00223E-005	4	..........a	-327.66
	239	0.048	7.60069E-001	3.77393E-009	0.00000E+000	7.60000E-001	8.00223E-005	4	..........a	-327.66
	240	0.0482	7.49969E-001	3.79493E-009	0.00000E+000	7.50000E-001	8.00223E-005	4	..........a	-327.66
	241	0.0484	7.39969E-001	3.80193E-009	0.00000E+000	7.40000E-001	8.00223E-005	4	..........a	-327.66
	242	0.0486	7.29970E-001	3.80193E-009	0.00000E+000	7.30000E-001	8.00223E-005	4	..........a	-327.66
	243	0.0488	7.19969E-001	3.80093E-009	0.00000E+000	7.20000E-001	8.00223E-005	4	..........a	-327.66
	244	0.049	7.10069E-001	3.78593E-009	0.00000E+000	7.10000E-001	8.00223E-005	4	..........a	-327.66
	245	0.0492	6.99969E-001	3.76093E-009	0.00000E+000	7.00000E-001	8.00223E-005	4	..........a	-327.66
	246	0.0494	6.90069E-001	3.74393E-009	0.00000E+000	6.90000E-001	-2.19978E-004	4	..........a	-327.66
	247	0.0496	6.80070E-001	3.70593E-009	0.00000E+000	6.80000E-001	8.00223E-005	4	..........a	-327.66
	248	0.0498	6.70069E-001	3.67593E-009	0.00000E+000	6.70000E-001	8.00223E-005	4	..........a	-327.66
	249	0.05	6.59869E-001	3.64293E-009	0.00000E+000	6.60000E-001	8.00223E-005	4	..........a	-327.66
	250	0.0502	6.49870E-001	3.59993E-009	0.00000E+000	6.50000E-001	8.00223E-005	4	..........a	-327.66
	251	0.0504	6.39769E-001	3.55492E-009	0.00000E+000	6.40000E-001	8.00223E-005	4	..........a	-327.66
	252	0.0506	6.30069E-001	3.51192E-009	0.00000E+000	6.30000E-001	8.00223E-005	4	..........a	-327.66
	253	0.0508	6.20070E-001	3.46592E-009	0.00000E+000	6.20000E-001	8.00223E-005	4	..........a	-327.66
	254	0.051	6.09869E-001	3.41592E-009	0.00000E+000	6.10000E-001	8.00223E-005	4	..........a	-327.66
	255	0.0512	5.99769E-001	3.36592E-009	0.00000E+000	6.00000E-001	8.00223E-005	4	..........a	-327.66
	256	0.0514	5.90069E-001	3.30991E-009	0.00000E+000	5.90000E-001	8.00223E-005	4	..........a	-327.66
	257	0.0516	5.79870E-001	3.25591E-009	0.00000E+000	5.80000E-001	8.00223E-005	4	..........a	-327.66
	258	0.0518	5.70069E-001	3.20291E-009	0.00000E+000	5.70000E-001	8.00223E-005	4	..........a	-327.66
	259	0.052	5.59869E-001	3.13991E-009	0.00000E+000	5.60000E-001	8.00223E-005	4	..........a	-327.66
	260	0.0522	5.49869E-001	3.08291E-009	0.00000E+000	5.50000E-001	8.00223E-005	4	..........a	-327.66
	261	0.0524	5.40069E-001	3.02590E-009	0.00000E+000	5.40000E-001	8.00223E-005	4	..........a	-327.66
	262	0.0526	5.29869E-001	2.96090E-009	0.00000E+000	5.30000E-001	8.00223E-005	4	..........a	-327.66
	263	0.0528	5.19870E-001	2.89690E-009	0.00000E+000	5.20000E-001	8.00223E-005	4	..........a	-327.66
	264	0.053	5.09870E-001	2.83390E-009	0.00000E+000	5.10000E-001	8.00223E-005	4	..........a	-327.66
	265	0.0532	4.99970E-001	2.76789E-009	0.00000E+000	5.00000E-001	8.00223E-005	4	..........a	-327.66
	266	0.0534	4.90070E-001	2.69989E-009	0.00000E+000	4.90000E-001	8.00223E-005	4	..........a	-327.66
	267	0.0536	4.79870E-001	2.63589E-009	0.00000E+000	4.80000E-001	-4.19978E-004	4	..........a	-327.66
	268	0.0538	4.70170E-001	2.55989E-009	0.00000E+000	4.70000E-001	8.00223E-005	4	..........a	-327.66
	269	0.054	4.60070E-001	2.49088E-009	0.00000E+000	4.60000E-001	8.00223E-005	4	..........a	-327.66
	270	0.0542	4.49870E-001	2.42188E-009	0.00000E+000	4.50000E-001	8.00223E-005	4	..........a	-327.66
	271	0.0544	4.39820E-001	2.34588E-009	0.00000E+000	4.40000E-001	8.00223E-005	4	..........a	-327.66
	272	0.0546	4.29870E-001	2.26787E-009	0.00000E+000	4.30000E-001	8.00223E-005	4	..........a	-327.66
	273	0.0548	4.20070E-001	2.20087E-009	0.00000E+000	4.20000E-001	8.00223E-005	4	..........a	-327.66
	274	0.055	4.09970E-001	2.12287E-009	0.00000E+000	4.10000E-001	8.00223E-005	4	..........a	-327.66
	275	0.0552	4.00070E-001	2.04087E-009	0.00000E+000	4.00000E-001	8.00223E-005	4	..........a	-327.66
	276	0.0554	3.89970E-001	1.96486E-009	0.00000E+000	3.90000E-001	8.00223E-005	4	..........a	-327.66
	277	0.0556	3.80070E-001	1.88086E-009	0.00000E+000	3.80000E-001	8.00223E-005	4	..........a	-327.66
	278	0.0558	3.69970E-001	1.79886E-009	0.00000E+000	3.70000E-001	8.00223E-005	4	..........a	-327.66
	279	0.056	3.59770E-001	1.71685E-009	0.00000E+000	3.60000E-001	-2.19978E-004	4	..........a	-327.66
	280	0.0562	3.50070E-001	1.62785E-009	0.00000E+000	3.50000E-001	8.00223E-005	4	..........a	-327.66
	281	0.0564	3.39970E-001	1.54385E-009	0.00000E+000	3.40000E-001	8.00223E-005	4	..........a	-327.66
	282	0.0566	3.30070E-001	1.45284E-009	0.00000E+000	3.30000E-001	8.00223E-005	4	..........a	-327.66
	283	0.0568	3.20070E-001	1.36484E-009	0.00000E+000	3.20000E-001	8.00223E-005	4	..........a	-327.66
	284	0.057	3.09970E-001	1.27484E-009	0.00000E+000	3.10000E-001	8.00223E-005	4	..........a	-327.66
	285	0.0572	3.00170E-001	1.17983E-009	0.00000E+000	3.00000E-001	8.00223E-005	4	..........a	-327.66
	286	0.0574	2.90070E-001	1.08483E-009	0.00000E+000	2.90000E-001	8.00223E-005	4	..........a	-327.66
	287	0.0576	2.80070E-001	9.86826E-010	0.00000E+000	2.80000E-001	8.00223E-005	4	..........a	-327.66
	288	0.0578	2.70070E-001	8.91822E-010	0.00000E+000	2.70000E-001	8.00223E-005	4	..........a	-327.66
	289	0.058	2.59870E-001	7.92818E-010	0.00000E+000	2.60000E-001	8.00223E-005	4	..........a	-327.66
	290	0.0582	2.49870E-001	6.87814E-010	0.00000E+000	2.50000E-001	-3.19978E-004	4	..........a	-327.66
	291	0.0584	2.39970E-001	5.89810E-010	0.00000E+000	2.40000E-001	8.00223E-005	4	..........a	-327.66
	292	0.0586	2.29920E-001	4.83806E-010	0.00000E+000	2.30000E-001	8.00223E-005	4	..........a	-327.66
	293	0.0588	2.20270E-001	3.76802E-010	0.00000E+000	2.20000E-001	8.00223E-005	4	..........a	-327.66
	294	0.059	2.09920E-001	2.70798E-010	0.00000E+000	2.10000E-001	8.00223E-005	4	..........a	-327.66
	295	0.0592	2.00070E-001	1.63794E-010	0.00000E+000	2.00000E-001	8.00223E-005	4	..........a	-327.66
	296	0.0594	1.89970E-001	4.57894E-011	0.00000E+000	1.90000E-001	8.00223E-005	4	..........a	-327.66
	297	0.0596	1.80270E-001	-6.82150E-011	0.00000E+000	1.80000E-001	8.00223E-005	4	..........a	-327.66
	298	0.0598	1.70170E-001	-1.77219E-010	0.00000E+000	1.70000E-001	8.00223E-005	4	..........a	-327.66
	299	0.06	1.60070E-001	-2.94224E-010	0.00000E+000	1.60000E-001	8.00223E-005	4	..........a	-327.66
	300	0.0602	1.50070E-001	-4.20228E-010	0.00000E+000	1.50000E-001	8.00223E-005	4	..........a	-327.66
	301	0.0604	1.40070E-001	-5.40233E-010	0.00000E+000	1.40000E-001	8.00223E-005	4	..........a	-327.66
	302	0.0606	1.30070E-001	-6.58238E-010	0.00000E+000	1.30000E-001	8.00223E-005	4	..........a	-327.66
	303	0.0608	1.19970E-001	-7.80242E-010	0.00000E+000	1.20000E-001	8.00223E-005	4	..........a	-327.66
	304	0.061	1.10070E-001	-8.99247E-010	0.00000E+000	1.10000E-001	8.00223E-005	4	..........a	-327.66
	305	0.0612	9.99695E-002	-1.02825E-009	0.00000E+000	1.00000E-001	8.00223E-005	4	..........a	-327.66
	306	0.0614	9.00695E-002	-1.15026E-009	0.00000E+000	9.00000E-002	8.00223E-005	4	..........a	-327.66
	307	0.0616	7.98695E-002	-1.27526E-009	0.00000E+000	8.00000E-002	8.00223E-005	4	..........a	-327.66
	308	0.0618	7.00695E-002	-1.40227E-009	0.00000E+000	7.00000E-002	8.00223E-005	4	..........a	-327.66
	309	0.062	6.00695E-002	-1.52827E-009	0.00000E+000	6.00000E-002	8.00223E-005	4	..........a	-327.66
	310	0.0622	5.01195E-002	-1.66228E-009	0.00000E+000	5.00000E-002	8.00223E-005	4	..........a	-327.66
	311	0.0624	4.00695E-002	-1.79128E-009	0.00000E+000	4.00000E-002	8.00223E-005	4	..........a	-327.66
	312	0.0626	3.00695E-002	-1.91529E-009	0.00000E+000	3.00000E-002	8.00223E-005	4	..........a	-327.66
	313	0.0628	2.02695E-002	-2.04629E-009	0.00000E+000	2.00000E-002	8.00223E-005	4	..........a	-327.66
	314	0.063	9.96952E-003	-2.17730E-009	0.00000E+000	1.00000E-002	8.00223E-005	4	..........a	-327.66
	315	0.0632	-1.30481E-004	-2.30430E-009	0.00000E+000	7.45058E-009	8.00223E-005	4	..........a	-327.66
	316	0.0634	-9.93048E-003	-2.42731E-009	0.00000E+000	-1.00000E-002	8.00223E-005	4	..........a	-327.66
	317	0.0636	-1.98305E-002	-2.55631E-009	0.00000E+000	-2.00000E-002	8.00223E-005	4	..........a	-327.66
	318	0.0638	-3.00305E-002	-2.68632E-009	0.00000E+000	-3.00000E-002	-6.19978E-004	4	..........a	-327.66
	319	0.064	-3.99305E-002	-2.81232E-009	0.00000E+000	-4.00000E-002	8.00223E-005	4	..........a	-327.66
	320	0.0642	-4.99305E-002	-2.93533E-009	0.00000E+000	-5.00000E-002	8.00223E-005	4	..........a	-327.66
	321	0.0644	-5.97305E-002	-3.06133E-009	0.00000E+000	-6.00000E-002	8.00223E-005	4	..........a	-327.66
	322	0.0646	-7.00305E-002	-3.18533E-009	0.00000E+000	-7.00000E-002	8.00223E-005	4	..........a	-327.66
	323	0.0648	-8.00805E-002	-3.31234E-009	0.00000E+000	-8.00000E-002	8.00223E-005	4	..........a	-327.66
	324	0.065	-8.99805E-002	-3.42434E-009	0.00000E+000	-9.00000E-002	8.00223E-005	4	..........a	-327.66
	325	0.0652	-9.98305E-002	-3.55635E-009	0.00000E+000	-1.00000E-001	8.00223E-005	4	..........a	-327.66
	326	0.0654	-1.10030E-001	-3.67435E-009	0.00000E+000	-1.10000E-001	8.00223E-005	4	..........a	-327.66
	327	0.0656	-1.19930E-001	-3.79436E-009	0.00000E+000	-1.20000E-001	8.00223E-005	4	..........a	-327.66
	328	0.0658	-1.29930E-001	-3.91236E-009	0.00000E+000	-1.30000E-001	8.00223E-005	4	..........a	-327.66
	329	0.066	-1.39730E-001	-4.03437E-009	0.00000E+000	-1.40000E-001	8.00223E-005	4	..........a	-327.66
	330	0.0662	-1.49930E-001	-4.14937E-009	0.00000E+000	-1.50000E-001	8.00223E-005	4	..........a	-327.66
	331	0.0664	-1.59730E-001	-4.26238E-009	0.00000E+000	-1.60000E-001	8.00223E-005	4	..........a	-327.66
	332	0.0666	-1.69730E-001	-4.38638E-009	0.00000E+000	-1.70000E-001	8.00223E-005	4	..........a	-327.66
	333	0.0668	-1.79930E-001	-4.49439E-009	0.00000E+000	-1.80000E-001	8.00223E-005	4	..........a	-327.66
	334	0.067	-1.89930E-001	-4.60439E-009	0.00000E+000	-1.90000E-001	8.00223E-005	4	..........a	-327.66
	335	0.0672	-2.00030E-001	-4.71639E-009	0.00000E+000	-2.00000E-001	8.00223E-005	4	..........a	-327.66
	336	0.0674	-2.09730E-001	-4.82640E-009	0.00000E+000	-2.10000E-001	8.00223E-005	4	..........a	-327.66
	337	0.0676	-2.19830E-001	-4.93840E-009	0.00000E+000	-2.20000E-001	8.00223E-005	4	..........a	-327.66
	338	0.0678	-2.29930E-001	-5.04741E-009	0.00000E+000	-2.30000E-001	8.00223E-005	4	..........a	-327.66
	339	0.068	-2.39730E-001	-5.15641E-009	0.00000E+000	-2.40000E-001	8.00223E-005	4	..........a	-327.66
	340	0.0682	-2.49930E-001	-5.26641E-009	0.00000E+000	-2.50000E-001	8.00223E-005	4	..........a	-327.66
	341	0.0684	-2.59830E-001	-5.37142E-009	0.00000E+000	-2.60000E-001	8.00223E-005	4	..........a	-327.66
	342	0.0686	-2.69930E-001	-5.47142E-009	0.00000E+000	-2.70000E-001	8.00223E-005	4	..........a	-327.66
	343	0.0688	-2.79830E-001	-5.58743E-009	0.00000E+000	-2.80000E-001	8.00223E-005	4	..........a	-327.66
	344	0.069	-2.89930E-001	-5.69343E-009	0.00000E+000	-2.90000E-001	8.00223E-005	4	..........a	-327.66
	345	0.0692	-2.99830E-001	-5.79743E-009	0.00000E+000	-3.00000E-001	8.00223E-005	4	..........a	-327.66
[...]
	2605	0.5212	-4.99930E-001	-5.51442E-009	0.00000E+000	-5.00000E-001	8.00223E-005	4	..........a	-327.66
	2606	0.5214	-5.09530E-001	-5.62243E-009	0.00000E+000	-5.10000E-001	8.00223E-005	4	..........a	-327.66
	2607	0.5216	-5.19830E-001	-5.73543E-009	0.00000E+000	-5.20000E-001	8.00223E-005	4	..........a	-327.66
	2608	0.5218	-5.29930E-001	-5.85244E-009	0.00000E+000	-5.30000E-001	8.00223E-005	4	..........a	-327.66
	2609	0.522	-5.39730E-001	-5.96144E-009	0.00000E+000	-5.40000E-001	8.00223E-005	4	..........a	-327.66
	2610	0.5222	-5.49931E-001	-6.08245E-009	0.00000E+000	-5.50000E-001	8.00223E-005	4	..........a	-327.66
	2611	0.5224	-5.59830E-001	-6.19945E-009	0.00000E+000	-5.60000E-001	8.00223E-005	4	..........a	-327.66
	2612	0.5226	-5.69730E-001	-6.31645E-009	0.00000E+000	-5.70000E-001	8.00223E-005	4	..........a	-327.66
	2613	0.5228	-5.79830E-001	-6.44046E-009	0.00000E+000	-5.80000E-001	8.00223E-005	4	..........a	-327.66
	2614	0.523	-5.89930E-001	-6.56646E-009	0.00000E+000	-5.90000E-001	8.00223E-005	4	..........a	-327.66
	2615	0.5232	-5.99730E-001	-6.69247E-009	0.00000E+000	-6.00000E-001	8.00223E-005	4	..........a	-327.66
	2616	0.5234	-5.89930E-001	-6.71147E-009	0.00000E+000	-5.90000E-001	8.00223E-005	4	..........a	-327.66
	2617	0.5236	-5.79731E-001	-6.71747E-009	0.00000E+000	-5.80000E-001	8.00223E-005	4	..........a	-327.66
	2618	0.5238	-5.69930E-001	-6.71247E-009	0.00000E+000	-5.70000E-001	8.00223E-005	4	..........a	-327.66
	2619	0.524	-5.59830E-001	-6.69747E-009	0.00000E+000	-5.60000E-001	8.00223E-005	4	..........a	-327.66
	2620	0.5242	-5.49531E-001	-6.67847E-009	0.00000E+000	-5.50000E-001	8.00223E-005	4	..........a	-327.66
	2621	0.5244	-5.39730E-001	-6.64747E-009	0.00000E+000	-5.40000E-001	8.00223E-005	4	..........a	-327.66
	2622	0.5246	-5.29930E-001	-6.62247E-009	0.00000E+000	-5.30000E-001	1.80022E-004	4	..........a	-327.66
	2623	0.5248	-5.19830E-001	-6.58847E-009	0.00000E+000	-5.20000E-001	8.00223E-005	4	..........a	-327.66
	2624	0.525	-5.09930E-001	-6.54646E-009	0.00000E+000	-5.10000E-001	8.00223E-005	4	..........a	-327.66
	2625	0.5252	-4.99830E-001	-6.49646E-009	0.00000E+000	-5.00000E-001	8.00223E-005	4	..........a	-327.66
	2626	0.5254	-4.89730E-001	-6.46246E-009	0.00000E+000	-4.90000E-001	8.00223E-005	4	..........a	-327.66
	2627	0.5256	-4.79830E-001	-6.42046E-009	0.00000E+000	-4.80000E-001	8.00223E-005	4	..........a	-327.66
	2628	0.5258	-4.69830E-001	-6.36946E-009	0.00000E+000	-4.70000E-001	8.00223E-005	4	..........a	-327.66
	2629	0.526	-4.59730E-001	-6.31846E-009	0.00000E+000	-4.60000E-001	8.00223E-005	4	..........a	-327.66
	2630	0.5262	-4.49930E-001	-6.26645E-009	0.00000E+000	-4.50000E-001	8.00223E-005	4	..........a	-327.66
	2631	0.5264	-4.39830E-001	-6.21245E-009	0.00000E+000	-4.40000E-001	8.00223E-005	4	..........a	-327.66
	2632	0.5266	-4.29930E-001	-6.15945E-009	0.00000E+000	-4.30000E-001	8.00223E-005	4	..........a	-327.66
	2633	0.5268	-4.19930E-001	-6.10645E-009	0.00000E+000	-4.20000E-001	8.00223E-005	4	..........a	-327.66
	2634	0.527	-4.09930E-001	-6.05045E-009	0.00000E+000	-4.10000E-001	8.00223E-005	4	..........a	-327.66
	2635	0.5272	-3.99730E-001	-5.98344E-009	0.00000E+000	-4.00000E-001	8.00223E-005	4	..........a	-327.66
	2636	0.5274	-3.89830E-001	-5.92644E-009	0.00000E+000	-3.90000E-001	-4.19978E-004	4	..........a	-327.66
	2637	0.5276	-3.79830E-001	-5.86744E-009	0.00000E+000	-3.80000E-001	8.00223E-005	4	..........a	-327.66
	2638	0.5278	-3.69930E-001	-5.80644E-009	0.00000E+000	-3.70000E-001	8.00223E-005	4	..........a	-327.66
	2639	0.528	-3.59930E-001	-5.74743E-009	0.00000E+000	-3.60000E-001	-3.19978E-004	4	..........a	-327.66
	2640	0.5282	-3.49930E-001	-5.68443E-009	0.00000E+000	-3.50000E-001	8.00223E-005	4	..........a	-327.66
	2641	0.5284	-3.39730E-001	-5.61843E-009	0.00000E+000	-3.40000E-001	8.00223E-005	4	..........a	-327.66
	2642	0.5286	-3.29830E-001	-5.55643E-009	0.00000E+000	-3.30000E-001	8.00223E-005	4	..........a	-327.66
	2643	0.5288	-3.19730E-001	-5.49242E-009	0.00000E+000	-3.20000E-001	8.00223E-005	4	..........a	-327.66
	2644	0.529	-3.09930E-001	-5.42442E-009	0.00000E+000	-3.10000E-001	8.00223E-005	4	..........a	-327.66
	2645	0.5292	-2.99730E-001	-5.35742E-009	0.00000E+000	-3.00000E-001	8.00223E-005	4	..........a	-327.66
	2646	0.5294	-2.90030E-001	-5.29342E-009	0.00000E+000	-2.90000E-001	8.00223E-005	4	..........a	-327.66
	2647	0.5296	-2.79830E-001	-5.22441E-009	0.00000E+000	-2.80000E-001	8.00223E-005	4	..........a	-327.66
	2648	0.5298	-2.69930E-001	-5.15841E-009	0.00000E+000	-2.70000E-001	8.00223E-005	4	..........a	-327.66
	2649	0.53	-2.59830E-001	-5.08741E-009	0.00000E+000	-2.60000E-001	8.00223E-005	4	..........a	-327.66
	2650	0.5302	-2.50030E-001	-5.02041E-009	0.00000E+000	-2.50000E-001	8.00223E-005	4	..........a	-327.66
	2651	0.5304	-2.39830E-001	-4.94640E-009	0.00000E+000	-2.40000E-001	8.00223E-005	4	..........a	-327.66
	2652	0.5306	-2.30030E-001	-4.88140E-009	0.00000E+000	-2.30000E-001	8.00223E-005	4	..........a	-327.66
	2653	0.5308	-2.19930E-001	-4.80740E-009	0.00000E+000	-2.20000E-001	8.00223E-005	4	..........a	-327.66
	2654	0.531	-2.09930E-001	-4.73739E-009	0.00000E+000	-2.10000E-001	-3.19978E-004	4	..........a	-327.66
	2655	0.5312	-1.99930E-001	-4.66339E-009	0.00000E+000	-2.00000E-001	8.00223E-005	4	..........a	-327.66
	2656	0.5314	-1.89930E-001	-4.58739E-009	0.00000E+000	-1.90000E-001	8.00223E-005	4	..........a	-327.66
	2657	0.5316	-1.79930E-001	-4.52039E-009	0.00000E+000	-1.80000E-001	8.00223E-005	4	..........a	-327.66
	2658	0.5318	-1.69930E-001	-4.44438E-009	0.00000E+000	-1.70000E-001	8.00223E-005	4	..........a	-327.66
	2659	0.532	-1.59930E-001	-4.37838E-009	0.00000E+000	-1.60000E-001	8.00223E-005	4	..........a	-327.66
	2660	0.5322	-1.50030E-001	-4.29838E-009	0.00000E+000	-1.50000E-001	8.00223E-005	4	..........a	-327.66
	2661	0.5324	-1.39930E-001	-4.22637E-009	0.00000E+000	-1.40000E-001	8.00223E-005	4	..........a	-327.66
	2662	0.5326	-1.30030E-001	-4.15137E-009	0.00000E+000	-1.30000E-001	8.00223E-005	4	..........a	-327.66
	2663	0.5328	-1.19830E-001	-4.06437E-009	0.00000E+000	-1.20000E-001	8.00223E-005	4	..........a	-327.66
	2664	0.533	-1.09930E-001	-4.00237E-009	0.00000E+000	-1.10000E-001	8.00223E-005	4	..........a	-327.66
	2665	0.5332	-1.00030E-001	-3.91836E-009	0.00000E+000	-1.00000E-001	8.00223E-005	4	..........a	-327.66
	2666	0.5334	-8.99305E-002	-3.84436E-009	0.00000E+000	-9.00000E-002	8.00223E-005	4	..........a	-327.66
	2667	0.5336	-8.00305E-002	-3.76836E-009	0.00000E+000	-8.00000E-002	8.00223E-005	4	..........a	-327.66
	2668	0.5338	-6.99305E-002	-3.69135E-009	0.00000E+000	-7.00000E-002	8.00223E-005	4	..........a	-327.66
	2669	0.534	-5.98805E-002	-3.61835E-009	0.00000E+000	-6.00000E-002	8.00223E-005	4	..........a	-327.66
	2670	0.5342	-4.99305E-002	-3.53435E-009	0.00000E+000	-5.00000E-002	8.00223E-005	4	..........a	-327.66
	2671	0.5344	-4.01305E-002	-3.45635E-009	0.00000E+000	-4.00000E-002	8.00223E-005	4	..........a	-327.66
	2672	0.5346	-2.98305E-002	-3.37834E-009	0.00000E+000	-3.00000E-002	8.00223E-005	4	..........a	-327.66
	2673	0.5348	-2.00305E-002	-3.29534E-009	0.00000E+000	-2.00000E-002	8.00223E-005	4	..........a	-327.66
	2674	0.535	-9.93048E-003	-3.21834E-009	0.00000E+000	-1.00000E-002	8.00223E-005	4	..........a	-327.66
	2675	0.5352	6.95192E-005	-3.13333E-009	0.00000E+000	7.45058E-009	8.00223E-005	4	..........a	-327.66
	2676	0.5354	1.00695E-002	-3.05533E-009	0.00000E+000	1.00000E-002	8.00223E-005	4	..........a	-327.66
	2677	0.5356	2.01695E-002	-2.97833E-009	0.00000E+000	2.00000E-002	8.00223E-005	4	..........a	-327.66
	2678	0.5358	3.00695E-002	-2.89632E-009	0.00000E+000	3.00000E-002	8.00223E-005	4	..........a	-327.66
	2679	0.536	3.99695E-002	-2.81232E-009	0.00000E+000	4.00000E-002	8.00223E-005	4	..........a	-327.66
	2680	0.5362	5.00695E-002	-2.72532E-009	0.00000E+000	5.00000E-002	8.00223E-005	4	..........a	-327.66
	2681	0.5364	6.01695E-002	-2.64431E-009	0.00000E+000	6.00000E-002	8.00223E-005	4	..........a	-327.66
	2682	0.5366	6.99695E-002	-2.56131E-009	0.00000E+000	7.00000E-002	8.00223E-005	4	..........a	-327.66
	2683	0.5368	8.00695E-002	-2.47431E-009	0.00000E+000	8.00000E-002	8.00223E-005	4	..........a	-327.66
	2684	0.537	9.00695E-002	-2.39230E-009	0.00000E+000	9.00000E-002	8.00223E-005	4	..........a	-327.66
	2685	0.5372	1.00020E-001	-2.30630E-009	0.00000E+000	1.00000E-001	8.00223E-005	4	..........a	-327.66
	2686	0.5374	1.10170E-001	-2.21530E-009	0.00000E+000	1.10000E-001	8.00223E-005	4	..........a	-327.66
	2687	0.5376	1.20070E-001	-2.13329E-009	0.00000E+000	1.20000E-001	-2.19978E-004	4	..........a	-327.66
	2688	0.5378	1.30070E-001	-2.04729E-009	0.00000E+000	1.30000E-001	8.00223E-005	4	..........a	-327.66
	2689	0.538	1.40070E-001	-1.95429E-009	0.00000E+000	1.40000E-001	8.00223E-005	4	..........a	-327.66
	2690	0.5382	1.50070E-001	-1.87028E-009	0.00000E+000	1.50000E-001	8.00223E-005	4	..........a	-327.66
	2691	0.5384	1.60070E-001	-1.78028E-009	0.00000E+000	1.60000E-001	8.00223E-005	4	..........a	-327.66
	2692	0.5386	1.70170E-001	-1.68728E-009	0.00000E+000	1.70000E-001	8.00223E-005	4	..........a	-327.66
	2693	0.5388	1.80270E-001	-1.59027E-009	0.00000E+000	1.80000E-001	8.00223E-005	4	..........a	-327.66
	2694	0.539	1.90070E-001	-1.49627E-009	0.00000E+000	1.90000E-001	8.00223E-005	4	..........a	-327.66
	2695	0.5392	2.00070E-001	-1.40627E-009	0.00000E+000	2.00000E-001	8.00223E-005	4	..........a	-327.66
	2696	0.5394	2.09970E-001	-1.31626E-009	0.00000E+000	2.10000E-001	8.00223E-005	4	..........a	-327.66
	2697	0.5396	2.20270E-001	-1.21426E-009	0.00000E+000	2.20000E-001	8.00223E-005	4	..........a	-327.66
	2698	0.5398	2.29970E-001	-1.12426E-009	0.00000E+000	2.30000E-001	8.00223E-005	4	..........a	-327.66
	2699	0.54	2.39970E-001	-1.02225E-009	0.00000E+000	2.40000E-001	8.00223E-005	4	..........a	-327.66
	2700	0.5402	2.49970E-001	-9.32248E-010	0.00000E+000	2.50000E-001	8.00223E-005	4	..........a	-327.66
	2701	0.5404	2.59970E-001	-8.32244E-010	0.00000E+000	2.60000E-001	8.00223E-005	4	..........a	-327.66
	2702	0.5406	2.70070E-001	-7.28240E-010	0.00000E+000	2.70000E-001	8.00223E-005	4	..........a	-327.66
	2703	0.5408	2.79970E-001	-6.25236E-010	0.00000E+000	2.80000E-001	8.00223E-005	4	..........a	-327.66
	2704	0.541	2.90070E-001	-5.20232E-010	0.00000E+000	2.90000E-001	8.00223E-005	4	..........a	-327.66
	2705	0.5412	2.99970E-001	-4.22229E-010	0.00000E+000	3.00000E-001	8.00223E-005	4	..........a	-327.66
	2706	0.5414	3.10170E-001	-3.11224E-010	0.00000E+000	3.10000E-001	8.00223E-005	4	..........a	-327.66
	2707	0.5416	3.19970E-001	-2.06220E-010	0.00000E+000	3.20000E-001	8.00223E-005	4	..........a	-327.66
	2708	0.5418	3.30170E-001	-1.04216E-010	0.00000E+000	3.30000E-001	8.00223E-005	4	..........a	-327.66
	2709	0.542	3.40170E-001	5.78786E-012	0.00000E+000	3.40000E-001	8.00223E-005	4	..........a	-327.66
	2710	0.5422	3.49920E-001	1.18792E-010	0.00000E+000	3.50000E-001	8.00223E-005	4	..........a	-327.66
	2711	0.5424	3.60070E-001	2.26796E-010	0.00000E+000	3.60000E-001	8.00223E-005	4	..........a	-327.66
	2712	0.5426	3.70070E-001	3.38801E-010	0.00000E+000	3.70000E-001	8.00223E-005	4	..........a	-327.66
	2713	0.5428	3.80020E-001	4.51805E-010	0.00000E+000	3.80000E-001	8.00223E-005	4	..........a	-327.66
	2714	0.543	3.89970E-001	5.58809E-010	0.00000E+000	3.90000E-001	8.00223E-005	4	..........a	-327.66
	2715	0.5432	4.00070E-001	6.73814E-010	0.00000E+000	4.00000E-001	8.00223E-005	4	..........a	-327.66
	2716	0.5434	4.09970E-001	7.88818E-010	0.00000E+000	4.10000E-001	8.00223E-005	4	..........a	-327.66
	2717	0.5436	4.20070E-001	9.09823E-010	0.00000E+000	4.20000E-001	8.00223E-005	4	..........a	-327.66
	2718	0.5438	4.30070E-001	1.02783E-009	0.00000E+000	4.30000E-001	8.00223E-005	4	..........a	-327.66
	2719	0.544	4.39970E-001	1.15483E-009	0.00000E+000	4.40000E-001	8.00223E-005	4	..........a	-327.66
	2720	0.5442	4.49670E-001	1.26784E-009	0.00000E+000	4.50000E-001	8.00223E-005	4	..........a	-327.66
	2721	0.5444	4.59970E-001	1.39084E-009	0.00000E+000	4.60000E-001	8.00223E-005	4	..........a	-327.66
	2722	0.5446	4.69970E-001	1.51185E-009	0.00000E+000	4.70000E-001	8.00223E-005	4	..........a	-327.66
	2723	0.5448	4.79820E-001	1.63685E-009	0.00000E+000	4.80000E-001	8.00223E-005	4	..........a	-327.66
	2724	0.545	4.89820E-001	1.76186E-009	0.00000E+000	4.90000E-001	8.00223E-005	4	..........a	-327.66
	2725	0.5452	5.00269E-001	1.89386E-009	0.00000E+000	5.00000E-001	8.00223E-005	4	..........a	-327.66
	2726	0.5454	5.09870E-001	2.01887E-009	0.00000E+000	5.10000E-001	8.00223E-005	4	..........a	-327.66
	2727	0.5456	5.19870E-001	2.15087E-009	0.00000E+000	5.20000E-001	8.00223E-005	4	..........a	-327.66
	2728	0.5458	5.29669E-001	2.28688E-009	0.00000E+000	5.30000E-001	8.00223E-005	4	..........a	-327.66
	2729	0.546	5.40069E-001	2.41788E-009	0.00000E+000	5.40000E-001	8.00223E-005	4	..........a	-327.66
	2730	0.5462	5.49969E-001	2.55789E-009	0.00000E+000	5.50000E-001	8.00223E-005	4	..........a	-327.66
	2731	0.5464	5.59969E-001	2.69989E-009	0.00000E+000	5.60000E-001	8.00223E-005	4	..........a	-327.66
	2732	0.5466	5.69869E-001	2.83790E-009	0.00000E+000	5.70000E-001	8.00223E-005	4	..........a	-327.66
	2733	0.5468	5.80069E-001	2.97990E-009	0.00000E+000	5.80000E-001	8.00223E-005	4	..........a	-327.66
	2734	0.547	5.90069E-001	3.12191E-009	0.00000E+000	5.90000E-001	8.00223E-005	4	..........a	-327.66
	2735	0.5472	5.99869E-001	3.26991E-009	0.00000E+000	6.00000E-001	8.00223E-005	4	..........a	-327.66
	2736	0.5474	6.09969E-001	3.42492E-009	0.00000E+000	6.10000E-001	8.00223E-005	4	..........a	-327.66
	2737	0.5476	6.19869E-001	3.57392E-009	0.00000E+000	6.20000E-001	8.00223E-005	4	..........a	-327.66
	2738	0.5478	6.29969E-001	3.72593E-009	0.00000E+000	6.30000E-001	8.00223E-005	4	..........a	-327.66
	2739	0.548	6.39820E-001	3.88394E-009	0.00000E+000	6.40000E-001	8.00223E-005	4	..........a	-327.66
	2740	0.5482	6.49870E-001	4.04594E-009	0.00000E+000	6.50000E-001	8.00223E-005	4	..........a	-327.66
	2741	0.5484	6.59920E-001	4.20595E-009	0.00000E+000	6.60000E-001	8.00223E-005	4	..........a	-327.66
	2742	0.5486	6.69819E-001	4.37396E-009	0.00000E+000	6.70000E-001	8.00223E-005	4	..........a	-327.66
	2743	0.5488	6.80169E-001	4.54296E-009	0.00000E+000	6.80000E-001	8.00223E-005	4	..........a	-327.66
	2744	0.549	6.89719E-001	4.70997E-009	0.00000E+000	6.90000E-001	8.00223E-005	4	..........a	-327.66
	2745	0.5492	6.99869E-001	4.88998E-009	0.00000E+000	7.00000E-001	8.00223E-005	4	..........a	-327.66
	2746	0.5494	7.09870E-001	5.06298E-009	0.00000E+000	7.10000E-001	8.00223E-005	4	..........a	-327.66
	2747	0.5496	7.19969E-001	5.24899E-009	0.00000E+000	7.20000E-001	8.00223E-005	4	..........a	-327.66
	2748	0.5498	7.29919E-001	5.43400E-009	0.00000E+000	7.30000E-001	8.00223E-005	4	..........a	-327.66
	2749	0.55	7.39869E-001	5.61800E-009	0.00000E+000	7.40000E-001	8.00223E-005	4	..........a	-327.66
	2750	0.5502	7.49969E-001	5.81001E-009	0.00000E+000	7.50000E-001	8.00223E-005	4	..........a	-327.66
	2751	0.5504	7.59769E-001	6.00702E-009	0.00000E+000	7.60000E-001	8.00223E-005	4	..........a	-327.66
	2752	0.5506	7.69969E-001	6.20903E-009	0.00000E+000	7.70000E-001	8.00223E-005	4	..........a	-327.66
	2753	0.5508	7.79769E-001	6.41303E-009	0.00000E+000	7.80000E-001	8.00223E-005	4	..........a	-327.66
	2754	0.551	7.89970E-001	6.61204E-009	0.00000E+000	7.90000E-001	8.00223E-005	4	..........a	-327.66
	2755	0.5512	7.99969E-001	6.83405E-009	0.00000E+000	8.00000E-001	8.00223E-005	4	..........a	-327.66
CURVE11	TABLE
	Pt	T	Vf	Im	Vu	Sig	Ach	IERange	Over	Temp
	#	s	V vs. Ref.	A	V	V	V	#	bits	deg C
	2756	0.5514	7.89869E-001	6.93605E-009	0.00000E+000	7.90000E-001	8.00223E-005	4	..........a	-327.66
	2757	0.5516	7.79869E-001	7.00806E-009	0.00000E+000	7.80000E-001	8.00223E-005	4	..........a	-327.66
	2758	0.5518	7.69870E-001	7.05406E-009	0.00000E+000	7.70000E-001	8.00223E-005	4	..........a	-327.66
	2759	0.552	7.59669E-001	7.08906E-009	0.00000E+000	7.60000E-001	8.00223E-005	4	..........a	-327.66
	2760	0.5522	7.49869E-001	7.10206E-009	0.00000E+000	7.50000E-001	8.00223E-005	4	..........a	-327.66
	2761	0.5524	7.40070E-001	7.11106E-009	0.00000E+000	7.40000E-001	8.00223E-005	4	..........a	-327.66
	2762	0.5526	7.29869E-001	7.10206E-009	0.00000E+000	7.30000E-001	8.00223E-005	4	..........a	-327.66
	2763	0.5528	7.19969E-001	7.09306E-009	0.00000E+000	7.20000E-001	8.00223E-005	4	..........a	-327.66
	2764	0.553	7.09870E-001	7.06806E-009	0.00000E+000	7.10000E-001	8.00223E-005	4	..........a	-327.66
	2765	0.5532	6.99969E-001	7.04106E-009	0.00000E+000	7.00000E-001	8.00223E-005	4	..........a	-327.66
	2766	0.5534	6.89869E-001	7.01606E-009	0.00000E+000	6.90000E-001	8.00223E-005	4	..........a	-327.66
	2767	0.5536	6.80169E-001	6.97606E-009	0.00000E+000	6.80000E-001	8.00223E-005	4	..........a	-327.66
	2768	0.5538	6.69869E-001	6.94205E-009	0.00000E+000	6.70000E-001	8.00223E-005	4	..........a	-327.66
	2769	0.554	6.60069E-001	6.89205E-009	0.00000E+000	6.60000E-001	8.00223E-005	4	..........a	-327.66
	2770	0.5542	6.49969E-001	6.85005E-009	0.00000E+000	6.50000E-001	8.00223E-005	4	..........a	-327.66
	2771	0.5544	6.39769E-001	6.79805E-009	0.00000E+000	6.40000E-001	8.00223E-005	4	..........a	-327.66
	2772	0.5546	6.29969E-001	6.74805E-009	0.00000E+000	6.30000E-001	8.00223E-005	4	..........a	-327.66
	2773	0.5548	6.19669E-001	6.69304E-009	0.00000E+000	6.20000E-001	8.00223E-005	4	..........a	-327.66
	2774	0.555	6.09969E-001	6.63604E-009	0.00000E+000	6.10000E-001	8.00223E-005	4	..........a	-327.66
	2775	0.5552	6.00069E-001	6.57804E-009	0.00000E+000	6.00000E-001	8.00223E-005	4	..........a	-327.66
	2776	0.5554	5.89869E-001	6.51604E-009	0.00000E+000	5.90000E-001	8.00223E-005	4	..........a	-327.66
	2777	0.5556	5.80069E-001	6.45804E-009	0.00000E+000	5.80000E-001	8.00223E-005	4	..........a	-327.66
	2778	0.5558	5.69869E-001	6.38803E-009	0.00000E+000	5.70000E-001	8.00223E-005	4	..........a	-327.66
	2779	0.556	5.59669E-001	6.32503E-009	0.00000E+000	5.60000E-001	8.00223E-005	4	..........a	-327.66
	2780	0.5562	5.50070E-001	6.25103E-009	0.00000E+000	5.50000E-001	8.00223E-005	4	..........a	-327.66
	2781	0.5564	5.40069E-001	6.18603E-009	0.00000E+000	5.40000E-001	-4.19978E-004	4	..........a	-327.66
	2782	0.5566	5.29970E-001	6.11202E-009	0.00000E+000	5.30000E-001	-3.19978E-004	4	..........a	-327.66
	2783	0.5568	5.19969E-001	6.04202E-009	0.00000E+000	5.20000E-001	8.00223E-005	4	..........a	-327.66
	2784	0.557	5.09969E-001	5.96802E-009	0.00000E+000	5.10000E-001	8.00223E-005	4	..........a	-327.66
	2785	0.5572	5.00219E-001	5.89501E-009	0.00000E+000	5.00000E-001	8.00223E-005	4	..........a	-327.66
	2786	0.5574	4.90070E-001	5.82201E-009	0.00000E+000	4.90000E-001	8.00223E-005	4	..........a	-327.66
	2787	0.5576	4.80220E-001	5.73801E-009	0.00000E+000	4.80000E-001	8.00223E-005	4	..........a	-327.66
	2788	0.5578	4.69970E-001	5.66801E-009	0.00000E+000	4.70000E-001	8.00223E-005	4	..........a	-327.66
	2789	0.558	4.59870E-001	5.58300E-009	0.00000E+000	4.60000E-001	8.00223E-005	4	..........a	-327.66
	2790	0.5582	4.49970E-001	5.50000E-009	0.00000E+000	4.50000E-001	8.00223E-005	4	..........a	-327.66
	2791	0.5584	4.39870E-001	5.41600E-009	0.00000E+000	4.40000E-001	-3.19978E-004	4	..........a	-327.66
	2792	0.5586	4.30070E-001	5.33399E-009	0.00000E+000	4.30000E-001	8.00223E-005	4	..........a	-327.66
	2793	0.5588	4.19970E-001	5.24599E-009	0.00000E+000	4.20000E-001	8.00223E-005	4	..........a	-327.66
	2794	0.559	4.10070E-001	5.16099E-009	0.00000E+000	4.10000E-001	8.00223E-005	4	..........a	-327.66
	2795	0.5592	4.00270E-001	5.07198E-009	0.00000E+000	4.00000E-001	8.00223E-005	4	..........a	-327.66
	2796	0.5594	3.89870E-001	4.97998E-009	0.00000E+000	3.90000E-001	-2.19978E-004	4	..........a	-327.66
	2797	0.5596	3.79970E-001	4.88598E-009	0.00000E+000	3.80000E-001	8.00223E-005	4	..........a	-327.66
	2798	0.5598	3.69970E-001	4.79097E-009	0.00000E+000	3.70000E-001	8.00223E-005	4	..........a	-327.66
	2799	0.56	3.59870E-001	4.69697E-009	0.00000E+000	3.60000E-001	8.00223E-005	4	..........a	-327.66
	2800	0.5602	3.49870E-001	4.59796E-009	0.00000E+000	3.50000E-001	8.00223E-005	4	..........a	-327.66