File: example_project/raw_outputs/20240321_ZQ_GM0016_HL03_E11_CV50.DTA
EXPLAIN
TAG	CV
TITLE	LABEL	Cyclic Voltammetry	Test &Identifier
DATE	LABEL	3/21/2024	Date
TIME	LABEL	18:54:49	Time
NOTES	NOTES	1	&Notes...

PSTAT	PSTAT	REF600P-43058	Potentiostat
VINIT	POTEN	0.00000E+000	T	Initial &E (V)
VLIMIT1	POTEN	-6.00000E-001	F	Scan Limit &1 (V)
VLIMIT2	POTEN	8.00000E-001	F	Scan Limit &2 (V)
VFINAL	POTEN	0.00000E+000	T	Final &E (V)
SCANRATE	QUANT	4.99999E+001	&Scan Rate (mV/s)
STEPSIZE	QUANT	1.00000E+001	St&ep Size (mV)
CYCLES	IQUANT	4	C&ycles (#)
IMODE	SELECTOR	1	I/E Range &Mode
IRANGE	QUANT	1.00000E-005	&Max Current (mA)
AREA	QUANT	1.00000E+000	Electrode &Area (cm^2)
ELECTRODETYPE	SELECTOR	0	Electrode Type
STRIPPING	TOGGLE	F	Used for Stripping
POLARITY	TOGGLE	F	Signal Polarity
CONDIT	TWOPARAM	F	1.50000E+001	0.00000E+000	Conditionin&g	Time(s)	E(V)
DELAY	TWOPARAM	T	1.00000E+001	0.00000E+000	Init. De&lay	Time(s)	Stab.(mV/s)
EQDELAY	QUANT	1.00000E+001	Equil. &Time (s)
IRCOMP	SELECTOR	0	IRCom&p
PFCOR	QUANT	5.00000E+001	PF Corr. (ohm)
SAMPLINGMODE	SELECTOR	1	Sampling &Mode
OCVCURVE	TABLE	39
	Pt	T	Vf	Vm	Ach	Over	Temp
	#	s	V vs. Ref.	V	V	bits	deg C
	0	0.258333	1.62218E-001	1.62218E-001	2.36556E-004	..........a	-327.66
	1	0.516667	1.62227E-001	1.62673E-001	2.53822E-004	..........a	-327.66
	2	0.775	1.62282E-001	1.63223E-001	2.38822E-004	..........a	-327.66
	3	1.03333	1.62449E-001	1.63829E-001	2.50289E-004	..........a	-327.66
	4	1.29167	1.62769E-001	1.64452E-001	2.52556E-004	..........a	-327.66
	5	1.55	1.63231E-001	1.65088E-001	2.56822E-004	..........a	-327.66
	6	1.80833	1.63790E-001	1.65733E-001	2.54356E-004	..........a	-327.66
	7	2.06667	1.64403E-001	1.66389E-001	2.48556E-004	..........a	-327.66
	8	2.325	1.65039E-001	1.67050E-001	2.50556E-004	..........a	-327.66
	9	2.58333	1.65687E-001	1.67701E-001	2.54556E-004	..........a	-327.66
	10	2.84167	1.66340E-001	1.68359E-001	2.53556E-004	..........a	-327.66
	11	3.1	1.66995E-001	1.69013E-001	2.54156E-004	..........a	-327.66
	12	3.35833	1.67651E-001	1.69668E-001	2.48689E-004	..........a	-327.66
	13	3.61667	1.68307E-001	1.70305E-001	2.56222E-004	..........a	-327.66
	14	3.875	1.68960E-001	1.70964E-001	2.45689E-004	..........a	-327.66
	15	4.13333	1.69611E-001	1.71611E-001	2.50022E-004	..........a	-327.66
	16	4.39167	1.70261E-001	1.72259E-001	2.44089E-004	..........a	-327.66
	17	4.65	1.70911E-001	1.72900E-001	2.45489E-004	..........a	-327.66
	18	4.90833	1.71559E-001	1.73543E-001	2.61422E-004	..........a	-327.66
	19	5.16667	1.72206E-001	1.74181E-001	2.67822E-004	..........a	-327.66
	20	5.425	1.72850E-001	1.74821E-001	2.58022E-004	..........a	-327.66
	21	5.68333	1.73491E-001	1.75447E-001	2.49022E-004	..........a	-327.66
	22	5.94167	1.74130E-001	1.76085E-001	2.65822E-004	..........a	-327.66
	23	6.2	1.74767E-001	1.76716E-001	2.38156E-004	..........a	-327.66
	24	6.45833	1.75401E-001	1.77342E-001	2.39089E-004	..........a	-327.66
	25	6.71667	1.76033E-001	1.77963E-001	2.39156E-004	..........a	-327.66
	26	6.975	1.76664E-001	1.78586E-001	2.41889E-004	..........a	-327.66
	27	7.23333	1.77291E-001	1.79205E-001	2.48956E-004	..........a	-327.66
	28	7.49167	1.77915E-001	1.79826E-001	2.42422E-004	..........a	-327.66
	29	7.75	1.78536E-001	1.80435E-001	2.48489E-004	..........a	-327.66
	30	8.00833	1.79156E-001	1.81041E-001	2.55622E-004	..........a	-327.66
	31	8.26667	1.79772E-001	1.81651E-001	2.46622E-004	..........a	-327.66
	32	8.525	1.80385E-001	1.82256E-001	2.51889E-004	..........a	-327.66
	33	8.78333	1.80995E-001	1.82868E-001	2.43556E-004	..........a	-327.66
	34	9.04167	1.81603E-001	1.83462E-001	2.48756E-004	..........a	-327.66
	35	9.3	1.82209E-001	1.84060E-001	2.48289E-004	..........a	-327.66
	36	9.5583	1.82813E-001	1.84654E-001	2.43756E-004	..........a	-327.66
	37	9.8167	1.83414E-001	1.85246E-001	2.50022E-004	..........a	-327.66
	38	10.075	1.84011E-001	1.85828E-001	2.51022E-004	..........a	-327.66
EOC	QUANT	0.1840114	Open Circuit (V)
PSTATMODEL	IQUANT	7	Pstat Model
PSTATSECTION	LABEL	REF600P-43058	Pstat Section
PSTATSERIALNO	LABEL	43058	Pstat Serial Number
CTRLMODE	IQUANT	1	Control Mode
ELECTROMETER	IQUANT	0	RE=0 or CS=1
IESTAB	IQUANT	2	I/E Stability
CASPEED	IQUANT	4	Control Amp Speed
CONVENTION	IQUANT	1	Current Convention
ICHRANGE	IQUANT	2	Ich Range
ICHRANGEMODE	TOGGLE	F	Ich Auto Range
ICHOFFSETENABLE	TOGGLE	F	Ich Offset Enable
ICHOFFSET	QUANT	0	Ich Offset (V)
ICHFILTER	IQUANT	2	Ich Filter
VCHRANGE	IQUANT	2	Vch Range
VCHRANGEMODE	TOGGLE	F	Vch Auto Range
VCHOFFSETENABLE	TOGGLE	F	Vch Offset Enable
VCHOFFSET	QUANT	0	Vch Offset (V)
VCHFILTER	IQUANT	2	Vch Filter
ACHRANGE	IQUANT	2	Ach Range
ACHOFFSETENABLE	TOGGLE	F	Ach Offset Enable
ACHOFFSET	QUANT	0	Ach Offset (V)
ACHFILTER	IQUANT	1	Ach Filter
IERANGELOWERLIMIT	IQUANT	1	I/E Range Lower Limit
IERANGEMODE	TOGGLE	F	I/E AutoRange
IERANGE	IQUANT	4	I/E Range
POSFEEDENABLE	TOGGLE	F	Positive Feedback IR Comp
POSFEEDRESISTANCE	QUANT	0	Positive Feedback Resistance (ohm)
ACHSELECT	IQUANT	4	Ach Select
SENSECABLEID	IQUANT	7	Sense Cable ID
PWRCABLEID	IQUANT	7	Power Cable ID
DCCALDATE	LABEL	12/18/2023	DC Calibration Date
ACCALDATE	LABEL	12/18/2023	AC Calibration Date
THERMOSELECT	IQUANT	1	Thermo Select
FRAMEWORKVERSION	LABEL	7.8.4	Framework Version
INSTRUMENTVERSION	LABEL	4.42	Instrument Version
CURVE1	TABLE
	Pt	T	Vf	Im	Vu	Sig	Ach	IERange	Over	Temp
	#	s	V vs. Ref.	A	V	V	V	#	bits	deg C
	0	0.2	1.84032E-001	1.61254E-011	0.00000E+000	1.84000E-001	1.01782E-003	4	..........a	-327.66
	1	0.4	1.73997E-001	-2.00630E-011	0.00000E+000	1.74000E-001	1.01552E-003	4	..........a	-327.66
	2	0.6	1.64092E-001	-4.06458E-011	0.00000E+000	1.64000E-001	1.01312E-003	4	..........a	-327.66
	3	0.8	1.54063E-001	-5.73754E-011	0.00000E+000	1.54000E-001	1.00092E-003	4	..........a	-327.66
	4	1	1.44007E-001	-7.11499E-011	0.00000E+000	1.44000E-001	1.01772E-003	4	..........a	-327.66
	5	1.2	1.34007E-001	-8.27824E-011	0.00000E+000	1.34000E-001	1.00762E-003	4	..........a	-327.66
	6	1.4	1.24009E-001	-9.15567E-011	0.00000E+000	1.24000E-001	1.03822E-003	4	..........a	-327.66
	7	1.6	1.14047E-001	-1.00835E-010	0.00000E+000	1.14000E-001	1.02022E-003	4	..........a	-327.66
	8	1.8	1.04043E-001	-1.08051E-010	0.00000E+000	1.04000E-001	1.01242E-003	4	..........a	-327.66
	9	2	9.39756E-002	-1.15322E-010	0.00000E+000	9.40000E-002	1.02452E-003	4	..........a	-327.66
	10	2.2	8.40494E-002	-1.22003E-010	0.00000E+000	8.40000E-002	9.95822E-004	4	..........a	-327.66
	11	2.4	7.40590E-002	-1.29162E-010	0.00000E+000	7.40000E-002	1.02042E-003	4	..........a	-327.66
	12	2.6	6.39521E-002	-1.35062E-010	0.00000E+000	6.40000E-002	1.01432E-003	4	..........a	-327.66
	13	2.8	5.39827E-002	-1.40799E-010	0.00000E+000	5.40000E-002	1.01062E-003	4	..........a	-327.66
	14	3	4.39940E-002	-1.46991E-010	0.00000E+000	4.40000E-002	1.04562E-003	4	..........a	-327.66
	15	3.2	3.40649E-002	-1.51950E-010	0.00000E+000	3.40000E-002	1.00032E-003	4	..........a	-327.66
	16	3.4	2.39953E-002	-1.58341E-010	0.00000E+000	2.40000E-002	1.02252E-003	4	..........a	-327.66
	17	3.6	1.40446E-002	-1.63346E-010	0.00000E+000	1.40000E-002	1.02132E-003	4	..........a	-327.66
	18	3.8	4.07464E-003	-1.68242E-010	0.00000E+000	4.00000E-003	1.02592E-003	4	..........a	-327.66
	19	4	-6.03971E-003	-1.74317E-010	0.00000E+000	-6.00000E-003	1.01072E-003	4	..........a	-327.66
	20	4.2	-1.59922E-002	-1.79881E-010	0.00000E+000	-1.60000E-002	1.01802E-003	4	..........a	-327.66
	21	4.4	-2.60108E-002	-1.84754E-010	0.00000E+000	-2.60000E-002	1.00632E-003	4	..........a	-327.66
	22	4.6	-3.59941E-002	-1.90765E-010	0.00000E+000	-3.60000E-002	1.02552E-003	4	..........a	-327.66
	23	4.8	-4.59904E-002	-1.96605E-010	0.00000E+000	-4.60000E-002	1.00152E-003	4	..........a	-327.66
	24	5	-5.60269E-002	-2.02011E-010	0.00000E+000	-5.60000E-002	1.02552E-003	4	..........a	-327.66
	25	5.2	-6.59915E-002	-2.08054E-010	0.00000E+000	-6.60000E-002	1.03412E-003	4	..........a	-327.66
	26	5.4	-7.59394E-002	-2.14682E-010	0.00000E+000	-7.60000E-002	1.04132E-003	4	..........a	-327.66
	27	5.6	-8.59131E-002	-2.21795E-010	0.00000E+000	-8.60000E-002	1.03182E-003	4	..........a	-327.66
	28	5.8	-9.59666E-002	-2.28123E-010	0.00000E+000	-9.60000E-002	9.98322E-004	4	..........a	-327.66
	29	6	-1.06021E-001	-2.34360E-010	0.00000E+000	-1.06000E-001	1.02782E-003	4	..........a	-327.66
	30	6.2	-1.15949E-001	-2.41796E-010	0.00000E+000	-1.16000E-001	1.01272E-003	4	..........a	-327.66
	31	6.4	-1.25967E-001	-2.49148E-010	0.00000E+000	-1.26000E-001	1.02422E-003	4	..........a	-327.66
	32	6.6	-1.36082E-001	-2.57392E-010	0.00000E+000	-1.36000E-001	1.00652E-003	4	..........a	-327.66
	33	6.8	-1.45946E-001	-2.63038E-010	0.00000E+000	-1.46000E-001	1.03032E-003	4	..........a	-327.66
	34	7	-1.55954E-001	-2.72051E-010	0.00000E+000	-1.56000E-001	1.03022E-003	4	..........a	-327.66
	35	7.2	-1.65909E-001	-2.85122E-010	0.00000E+000	-1.66000E-001	1.00622E-003	4	..........a	-327.66
	36	7.4	-1.75951E-001	-2.92361E-010	0.00000E+000	-1.76000E-001	1.01012E-003	4	..........a	-327.66
	37	7.6	-1.85922E-001	-2.95791E-010	0.00000E+000	-1.86000E-001	1.04122E-003	4	..........a	-327.66
	38	7.8	-1.95935E-001	-3.06373E-010	0.00000E+000	-1.96000E-001	1.02602E-003	4	..........a	-327.66
	39	8	-2.05923E-001	-3.15703E-010	0.00000E+000	-2.06000E-001	9.83222E-004	4	..........a	-327.66
	40	8.2	-2.15849E-001	-3.24534E-010	0.00000E+000	-2.16000E-001	1.01552E-003	4	..........a	-327.66
	41	8.4	-2.25918E-001	-3.35537E-010	0.00000E+000	-2.26000E-001	9.96122E-004	4	..........a	-327.66
	42	8.6	-2.35861E-001	-3.44762E-010	0.00000E+000	-2.36000E-001	1.01772E-003	4	..........a	-327.66
	43	8.8	-2.45909E-001	-3.51850E-010	0.00000E+000	-2.46000E-001	1.02182E-003	4	..........a	-327.66
	44	9	-2.55858E-001	-3.56702E-010	0.00000E+000	-2.56000E-001	1.00492E-003	4	..........a	-327.66
	45	9.2	-2.65892E-001	-3.77025E-010	0.00000E+000	-2.66000E-001	1.01232E-003	4	..........a	-327.66
	46	9.4	-2.75872E-001	-3.88604E-010	0.00000E+000	-2.76000E-001	9.81322E-004	4	..........a	-327.66
	47	9.6	-2.85919E-001	-4.01484E-010	0.00000E+000	-2.86000E-001	9.88022E-004	4	..........a	-327.66
	48	9.8	-2.95925E-001	-4.16154E-010	0.00000E+000	-2.96000E-001	1.01182E-003	4	..........a	-327.66
	49	10	-3.05895E-001	-4.25174E-010	0.00000E+000	-3.06000E-001	9.92222E-004	4	..........a	-327.66
	50	10.2	-3.15906E-001	-4.40424E-010	0.00000E+000	-3.16000E-001	1.01202E-003	4	..........a	-327.66
	51	10.4	-3.25904E-001	-4.53580E-010	0.00000E+000	-3.26000E-001	1.00202E-003	4	..........a	-327.66
	52	10.6	-3.35903E-001	-4.67010E-010	0.00000E+000	-3.36000E-001	1.01872E-003	4	..........a	-327.66
	53	10.8	-3.45930E-001	-4.78953E-010	0.00000E+000	-3.46000E-001	1.00472E-003	4	..........a	-327.66
	54	11	-3.55886E-001	-4.95380E-010	0.00000E+000	-3.56000E-001	1.01572E-003	4	..........a	-327.66
	55	11.2	-3.65932E-001	-5.12985E-010	0.00000E+000	-3.66000E-001	1.00202E-003	4	..........a	-327.66
	56	11.4	-3.75912E-001	-5.27382E-010	0.00000E+000	-3.76000E-001	1.02412E-003	4	..........a	-327.66
	57	11.6	-3.85953E-001	-5.46001E-010	0.00000E+000	-3.86000E-001	1.00622E-003	4	..........a	-327.66
	58	11.8	-3.95865E-001	-5.59767E-010	0.00000E+000	-3.96000E-001	1.01232E-003	4	..........a	-327.66
	59	12	-4.05907E-001	-5.78514E-010	0.00000E+000	-4.06000E-001	1.00962E-003	4	..........a	-327.66
	60	12.2	-4.15869E-001	-5.95395E-010	0.00000E+000	-4.16000E-001	9.95022E-004	4	..........a	-327.66
	61	12.4	-4.25859E-001	-6.12304E-010	0.00000E+000	-4.26000E-001	1.01812E-003	4	..........a	-327.66
	62	12.6	-4.35888E-001	-6.31703E-010	0.00000E+000	-4.36000E-001	1.01912E-003	4	..........a	-327.66
	63	12.8	-4.45897E-001	-6.50891E-010	0.00000E+000	-4.46000E-001	9.78522E-004	4	..........a	-327.66
	64	13	-4.55899E-001	-6.72013E-010	0.00000E+000	-4.56000E-001	9.90222E-004	4	..........a	-327.66
	65	13.2	-4.65947E-001	-6.91482E-010	0.00000E+000	-4.66000E-001	1.01732E-003	4	..........a	-327.66
	66	13.4	-4.75858E-001	-7.12217E-010	0.00000E+000	-4.76000E-001	1.02732E-003	4	..........a	-327.66
	67	13.6	-4.85874E-001	-7.34560E-010	0.00000E+000	-4.86000E-001	1.02352E-003	4	..........a	-327.66
	68	13.8	-4.95864E-001	-7.57302E-010	0.00000E+000	-4.96000E-001	9.94022E-004	4	..........a	-327.66
	69	14	-5.05895E-001	-7.80048E-010	0.00000E+000	-5.06000E-001	1.00902E-003	4	..........a	-327.66
	70	14.2	-5.15870E-001	-8.05991E-010	0.00000E+000	-5.16000E-001	1.00782E-003	4	..........a	-327.66
	71	14.4	-5.25865E-001	-8.31945E-010	0.00000E+000	-5.26000E-001	9.94422E-004	4	..........a	-327.66
	72	14.6	-5.35881E-001	-8.57701E-010	0.00000E+000	-5.36000E-001	1.01232E-003	4	..........a	-327.66
	73	14.8	-5.45914E-001	-8.84588E-010	0.00000E+000	-5.46000E-001	1.01672E-003	4	..........a	-327.66
	74	15	-5.55863E-001	-9.14277E-010	0.00000E+000	-5.56000E-001	9.96322E-004	4	..........a	-327.66
	75	15.2	-5.65846E-001	-9.44727E-010	0.00000E+000	-5.66000E-001	1.00782E-003	4	..........a	-327.66
	76	15.4	-5.75866E-001	-9.77748E-010	0.00000E+000	-5.76000E-001	1.00892E-003	4	..........a	-327.66
	77	15.6	-5.85892E-001	-1.01177E-009	0.00000E+000	-5.86000E-001	1.03872E-003	4	..........a	-327.66
	78	15.8	-5.95942E-001	-1.05103E-009	0.00000E+000	-5.96000E-001	1.02912E-003	4	..........a	-327.66
	79	16	-5.85916E-001	-8.61741E-010	0.00000E+000	-5.86000E-001	1.02442E-003	4	..........a	-327.66
	80	16.2	-5.75833E-001	-7.28496E-010	0.00000E+000	-5.76000E-001	9.93822E-004	4	..........a	-327.66
	81	16.4	-5.65875E-001	-6.24089E-010	0.00000E+000	-5.66000E-001	9.95722E-004	4	..........a	-327.66
	82	16.6	-5.55869E-001	-5.36619E-010	0.00000E+000	-5.56000E-001	1.03002E-003	4	..........a	-327.66
	83	16.8	-5.45959E-001	-4.60764E-010	0.00000E+000	-5.46000E-001	9.96722E-004	4	..........a	-327.66
	84	17	-5.35936E-001	-3.95482E-010	0.00000E+000	-5.36000E-001	1.00642E-003	4	..........a	-327.66
	85	17.2	-5.25880E-001	-3.38760E-010	0.00000E+000	-5.26000E-001	1.00212E-003	4	..........a	-327.66
	86	17.4	-5.15901E-001	-2.91532E-010	0.00000E+000	-5.16000E-001	1.00992E-003	4	..........a	-327.66
	87	17.6	-5.05907E-001	-2.41315E-010	0.00000E+000	-5.06000E-001	9.92522E-004	4	..........a	-327.66
	88	17.8	-4.95971E-001	-2.00160E-010	0.00000E+000	-4.96000E-001	9.96022E-004	4	..........a	-327.66
	89	18	-4.85910E-001	-1.63567E-010	0.00000E+000	-4.86000E-001	1.00512E-003	4	..........a	-327.66
	90	18.2	-4.75885E-001	-1.29403E-010	0.00000E+000	-4.76000E-001	1.00632E-003	4	..........a	-327.66
	91	18.4	-4.65951E-001	-9.81710E-011	0.00000E+000	-4.66000E-001	1.01432E-003	4	..........a	-327.66
	92	18.6	-4.55906E-001	-6.97379E-011	0.00000E+000	-4.56000E-001	1.02262E-003	4	..........a	-327.66
	93	18.8	-4.45895E-001	-4.31339E-011	0.00000E+000	-4.46000E-001	9.83822E-004	4	..........a	-327.66
	94	19	-4.35951E-001	-1.92969E-011	0.00000E+000	-4.36000E-001	1.03732E-003	4	..........a	-327.66
	95	19.2	-4.25908E-001	3.82895E-012	0.00000E+000	-4.26000E-001	1.01692E-003	4	..........a	-327.66
	96	19.4	-4.15915E-001	2.50048E-011	0.00000E+000	-4.16000E-001	1.02442E-003	4	..........a	-327.66
	97	19.6	-4.05921E-001	4.50975E-011	0.00000E+000	-4.06000E-001	1.01832E-003	4	..........a	-327.66
	98	19.8	-3.95974E-001	6.20722E-011	0.00000E+000	-3.96000E-001	1.01362E-003	4	..........a	-327.66
	99	20	-3.85984E-001	8.04239E-011	0.00000E+000	-3.86000E-001	1.01942E-003	4	..........a	-327.66
	100	20.2	-3.75932E-001	9.43234E-011	0.00000E+000	-3.76000E-001	1.03312E-003	4	..........a	-327.66
	101	20.4	-3.65874E-001	1.14826E-010	0.00000E+000	-3.66000E-001	1.00512E-003	4	..........a	-327.66
	102	20.6	-3.55943E-001	1.26507E-010	0.00000E+000	-3.56000E-001	1.02642E-003	4	..........a	-327.66
	103	20.8	-3.45927E-001	1.39317E-010	0.00000E+000	-3.46000E-001	1.01372E-003	4	..........a	-327.66
	104	21	-3.35956E-001	1.53623E-010	0.00000E+000	-3.36000E-001	1.02592E-003	4	..........a	-327.66
	105	21.2	-3.25917E-001	1.62706E-010	0.00000E+000	-3.26000E-001	1.02782E-003	4	..........a	-327.66
	106	21.4	-3.15952E-001	1.74613E-010	0.00000E+000	-3.16000E-001	1.00822E-003	4	..........a	-327.66
	107	21.6	-3.05948E-001	1.85137E-010	0.00000E+000	-3.06000E-001	1.01432E-003	4	..........a	-327.66
	108	21.8	-2.95898E-001	1.94924E-010	0.00000E+000	-2.96000E-001	1.02362E-003	4	..........a	-327.66
	109	22	-2.85857E-001	2.02660E-010	0.00000E+000	-2.86000E-001	9.91222E-004	4	..........a	-327.66
	110	22.2	-2.75896E-001	2.11662E-010	0.00000E+000	-2.76000E-001	1.01692E-003	4	..........a	-327.66
	111	22.4	-2.65901E-001	2.17931E-010	0.00000E+000	-2.66000E-001	1.00472E-003	4	..........a	-327.66
	112	22.6	-2.55989E-001	2.21966E-010	0.00000E+000	-2.56000E-001	1.00042E-003	4	..........a	-327.66
	113	22.8	-2.45932E-001	2.29908E-010	0.00000E+000	-2.46000E-001	1.03732E-003	4	..........a	-327.66
	114	23	-2.36009E-001	2.35867E-010	0.00000E+000	-2.36000E-001	1.03432E-003	4	..........a	-327.66
	115	23.2	-2.26010E-001	2.42295E-010	0.00000E+000	-2.26000E-001	1.00872E-003	4	..........a	-327.66
	116	23.4	-2.16110E-001	2.48330E-010	0.00000E+000	-2.16000E-001	1.01022E-003	4	..........a	-327.66
	117	23.6	-2.05973E-001	2.52813E-010	0.00000E+000	-2.06000E-001	1.03632E-003	4	..........a	-327.66
	118	23.8	-1.95978E-001	2.55321E-010	0.00000E+000	-1.96000E-001	9.99522E-004	4	..........a	-327.66
	119	24	-1.86054E-001	2.59436E-010	0.00000E+000	-1.86000E-001	1.04812E-003	4	..........a	-327.66
	120	24.2	-1.76055E-001	2.63155E-010	0.00000E+000	-1.76000E-001	1.00872E-003	4	..........a	-327.66
	121	24.4	-1.65836E-001	2.66157E-010	0.00000E+000	-1.66000E-001	1.01682E-003	4	..........a	-327.66
	122	24.6	-1.56026E-001	2.68492E-010	0.00000E+000	-1.56000E-001	1.02442E-003	4	..........a	-327.66
	123	24.8	-1.46021E-001	2.71068E-010	0.00000E+000	-1.46000E-001	1.05112E-003	4	..........a	-327.66
	124	25	-1.36056E-001	2.73134E-010	0.00000E+000	-1.36000E-001	1.02092E-003	4	..........a	-327.66
	125	25.2	-1.26026E-001	2.75615E-010	0.00000E+000	-1.26000E-001	1.01252E-003	4	..........a	-327.66
	126	25.4	-1.15946E-001	2.77300E-010	0.00000E+000	-1.16000E-001	1.03562E-003	4	..........a	-327.66
	127	25.6	-1.06033E-001	2.78843E-010	0.00000E+000	-1.06000E-001	9.95322E-004	4	..........a	-327.66
	128	25.8	-9.59997E-002	2.80728E-010	0.00000E+000	-9.60000E-002	1.00052E-003	4	..........a	-327.66
	129	26	-8.59262E-002	2.83117E-010	0.00000E+000	-8.60000E-002	1.01922E-003	4	..........a	-327.66
	130	26.2	-7.59664E-002	2.83773E-010	0.00000E+000	-7.60000E-002	1.00122E-003	4	..........a	-327.66
	131	26.4	-6.59922E-002	2.85541E-010	0.00000E+000	-6.60000E-002	1.00272E-003	4	..........a	-327.66
	132	26.6	-5.60064E-002	2.86550E-010	0.00000E+000	-5.60000E-002	1.00882E-003	4	..........a	-327.66
	133	26.8	-4.60205E-002	2.87790E-010	0.00000E+000	-4.60000E-002	1.01372E-003	4	..........a	-327.66
	134	27	-3.59903E-002	2.88593E-010	0.00000E+000	-3.60000E-002	1.02572E-003	4	..........a	-327.66
	135	27.2	-2.60623E-002	2.89934E-010	0.00000E+000	-2.60000E-002	1.03002E-003	4	..........a	-327.66
	136	27.4	-1.60020E-002	2.91187E-010	0.00000E+000	-1.60000E-002	1.02422E-003	4	..........a	-327.66
	137	27.6	-5.94356E-003	2.92231E-010	0.00000E+000	-6.00000E-003	9.91022E-004	4	..........a	-327.66
	138	27.8	3.99374E-003	2.92686E-010	0.00000E+000	4.00000E-003	1.04482E-003	4	..........a	-327.66
	139	28	1.40225E-002	2.93890E-010	0.00000E+000	1.40000E-002	1.00972E-003	4	..........a	-327.66
	140	28.2	2.39357E-002	2.94560E-010	0.00000E+000	2.40000E-002	1.03312E-003	4	..........a	-327.66
	141	28.4	3.40472E-002	2.95911E-010	0.00000E+000	3.40000E-002	9.78522E-004	4	..........a	-327.66
	142	28.6	4.39526E-002	2.96714E-010	0.00000E+000	4.40000E-002	9.93622E-004	4	..........a	-327.66
	143	28.8	5.39483E-002	2.97014E-010	0.00000E+000	5.40000E-002	1.03022E-003	4	..........a	-327.66
	144	29	6.40064E-002	2.97912E-010	0.00000E+000	6.40000E-002	9.93522E-004	4	..........a	-327.66
	145	29.2	7.40732E-002	2.98643E-010	0.00000E+000	7.40000E-002	9.97422E-004	4	..........a	-327.66
	146	29.4	8.40625E-002	2.99163E-010	0.00000E+000	8.40000E-002	1.00442E-003	4	..........a	-327.66
	147	29.6	9.39292E-002	3.00604E-010	0.00000E+000	9.40000E-002	9.99622E-004	4	..........a	-327.66
	148	29.8	1.03955E-001	3.01275E-010	0.00000E+000	1.04000E-001	1.01812E-003	4	..........a	-327.66
	149	30	1.14030E-001	3.03157E-010	0.00000E+000	1.14000E-001	9.98622E-004	4	..........a	-327.66
	150	30.2	1.23994E-001	3.03687E-010	0.00000E+000	1.24000E-001	1.03452E-003	4	..........a	-327.66
	151	30.4	1.33986E-001	3.05109E-010	0.00000E+000	1.34000E-001	1.03172E-003	4	..........a	-327.66
	152	30.6	1.43973E-001	3.07318E-010	0.00000E+000	1.44000E-001	1.01542E-003	4	..........a	-327.66
	153	30.8	1.53988E-001	3.09771E-010	0.00000E+000	1.54000E-001	1.01092E-003	4	..........a	-327.66
	154	31	1.64082E-001	3.11879E-010	0.00000E+000	1.64000E-001	1.01032E-003	4	..........a	-327.66
	155	31.2	1.74018E-001	3.14107E-010	0.00000E+000	1.74000E-001	1.02462E-003	4	..........a	-327.66
	156	31.4	1.83983E-001	3.15413E-010	0.00000E+000	1.84000E-001	1.00822E-003	4	..........a	-327.66
	157	31.6	1.94085E-001	3.18193E-010	0.00000E+000	1.94000E-001	1.03152E-003	4	..........a	-327.66
	158	31.8	2.03981E-001	3.21016E-010	0.00000E+000	2.04000E-001	1.04712E-003	4	..........a	-327.66
	159	32	2.13973E-001	3.23362E-010	0.00000E+000	2.14000E-001	1.02802E-003	4	..........a	-327.66
	160	32.2	2.23937E-001	3.26209E-010	0.00000E+000	2.24000E-001	1.01832E-003	4	..........a	-327.66
	161	32.4	2.34015E-001	3.29584E-010	0.00000E+000	2.34000E-001	1.01562E-003	4	..........a	-327.66
	162	32.6	2.44032E-001	3.32389E-010	0.00000E+000	2.44000E-001	1.02662E-003	4	..........a	-327.66
	163	32.8	2.53937E-001	3.35559E-010	0.00000E+000	2.54000E-001	1.01502E-003	4	..........a	-327.66
	164	33	2.64009E-001	3.39479E-010	0.00000E+000	2.64000E-001	1.02852E-003	4	..........a	-327.66
	165	33.2	2.73981E-001	3.43020E-010	0.00000E+000	2.74000E-001	1.00882E-003	4	..........a	-327.66
	166	33.4	2.84029E-001	3.46318E-010	0.00000E+000	2.84000E-001	1.02392E-003	4	..........a	-327.66
	167	33.6	2.93992E-001	3.49383E-010	0.00000E+000	2.94000E-001	1.02132E-003	4	..........a	-327.66
	168	33.8	3.03994E-001	3.52659E-010	0.00000E+000	3.04000E-001	1.01782E-003	4	..........a	-327.66
	169	34	3.14007E-001	3.57338E-010	0.00000E+000	3.14000E-001	1.01502E-003	4	..........a	-327.66
	170	34.2	3.24015E-001	3.61249E-010	0.00000E+000	3.24000E-001	1.02972E-003	4	..........a	-327.66
	171	34.4	3.33955E-001	3.65708E-010	0.00000E+000	3.34000E-001	1.03222E-003	4	..........a	-327.66
	172	34.6	3.43948E-001	3.69951E-010	0.00000E+000	3.44000E-001	9.87022E-004	4	..........a	-327.66
	173	34.8	3.54022E-001	3.74638E-010	0.00000E+000	3.54000E-001	9.90922E-004	4	..........a	-327.66
	174	35	3.64034E-001	3.80007E-010	0.00000E+000	3.64000E-001	1.04942E-003	4	..........a	-327.66
	175	35.2	3.73928E-001	3.83397E-010	0.00000E+000	3.74000E-001	9.95522E-004	4	..........a	-327.66
	176	35.4	3.83974E-001	3.89146E-010	0.00000E+000	3.84000E-001	1.03992E-003	4	..........a	-327.66
	177	35.6	3.94012E-001	3.94013E-010	0.00000E+000	3.94000E-001	9.90622E-004	4	..........a	-327.66
	178	35.8	4.04018E-001	3.99146E-010	0.00000E+000	4.04000E-001	1.01692E-003	4	..........a	-327.66
	179	36	4.13941E-001	4.05036E-010	0.00000E+000	4.14000E-001	1.01162E-003	4	..........a	-327.66
	180	36.2	4.24004E-001	4.10951E-010	0.00000E+000	4.24000E-001	1.00582E-003	4	..........a	-327.66
	181	36.4	4.33976E-001	4.16883E-010	0.00000E+000	4.34000E-001	1.00642E-003	4	..........a	-327.66
	182	36.6	4.44027E-001	4.24498E-010	0.00000E+000	4.44000E-001	1.02262E-003	4	..........a	-327.66
	183	36.8	4.53907E-001	4.30512E-010	0.00000E+000	4.54000E-001	1.01362E-003	4	..........a	-327.66
	184	37	4.63924E-001	4.37663E-010	0.00000E+000	4.64000E-001	1.01682E-003	4	..........a	-327.66
	185	37.2	4.73992E-001	4.43983E-010	0.00000E+000	4.74000E-001	1.02592E-003	4	..........a	-327.66
	186	37.4	4.83995E-001	4.52353E-010	0.00000E+000	4.84000E-001	1.00562E-003	4	..........a	-327.66
	187	37.6	4.93958E-001	4.60313E-010	0.00000E+000	4.94000E-001	1.01202E-003	4	..........a	-327.66
	188	37.8	5.03987E-001	4.68755E-010	0.00000E+000	5.04000E-001	1.03182E-003	4	..........a	-327.66
	189	38	5.13988E-001	4.75275E-010	0.00000E+000	5.14000E-001	9.90922E-004	4	..........a	-327.66
	190	38.2	5.24019E-001	4.84878E-010	0.00000E+000	5.24000E-001	1.00332E-003	4	..........a	-327.66
	191	38.4	5.33925E-001	4.94247E-010	0.00000E+000	5.34000E-001	9.92422E-004	4	..........a	-327.66
	192	38.6	5.43856E-001	5.03977E-010	0.00000E+000	5.44000E-001	9.85822E-004	4	..........a	-327.66
	193	38.8	5.53987E-001	5.11423E-010	0.00000E+000	5.54000E-001	1.00412E-003	4	..........a	-327.66
	194	39	5.64023E-001	5.22645E-010	0.00000E+000	5.64000E-001	1.02132E-003	4	..........a	-327.66
	195	39.2	5.73923E-001	5.33077E-010	0.00000E+000	5.74000E-001	9.92022E-004	4	..........a	-327.66
	196	39.4	5.83933E-001	5.43737E-010	0.00000E+000	5.84000E-001	1.02132E-003	4	..........a	-327.66
	197	39.6	5.93968E-001	5.51486E-010	0.00000E+000	5.94000E-001	1.00782E-003	4	..........a	-327.66
	198	39.8	6.04097E-001	5.63567E-010	0.00000E+000	6.04000E-001	1.02732E-003	4	..........a	-327.66
	199	40	6.13913E-001	5.73587E-010	0.00000E+000	6.14000E-001	1.00472E-003	4	..........a	-327.66
	200	40.2	6.23935E-001	5.84713E-010	0.00000E+000	6.24000E-001	9.88322E-004	4	..........a	-327.66
	201	40.4	6.33916E-001	5.96117E-010	0.00000E+000	6.34000E-001	1.00632E-003	4	..........a	-327.66
	202	40.6	6.43998E-001	6.05545E-010	0.00000E+000	6.44000E-001	1.00892E-003	4	..........a	-327.66
	203	40.8	6.53917E-001	6.19492E-010	0.00000E+000	6.54000E-001	9.94722E-004	4	..........a	-327.66
	204	41	6.63910E-001	6.36399E-010	0.00000E+000	6.64000E-001	1.02742E-003	4	..........a	-327.66
	205	41.2	6.73898E-001	6.43298E-010	0.00000E+000	6.74000E-001	9.88522E-004	4	..........a	-327.66
	206	41.4	6.84010E-001	6.54531E-010	0.00000E+000	6.84000E-001	1.03342E-003	4	..........a	-327.66
	207	41.6	6.93934E-001	6.66229E-010	0.00000E+000	6.94000E-001	9.78522E-004	4	..........a	-327.66
	208	41.8	7.03980E-001	6.79804E-010	0.00000E+000	7.04000E-001	1.04192E-003	4	..........a	-327.66
	209	42	7.13915E-001	6.93874E-010	0.00000E+000	7.14000E-001	1.00462E-003	4	..........a	-327.66
	210	42.2	7.24009E-001	7.09194E-010	0.00000E+000	7.24000E-001	1.00392E-003	4	..........a	-327.66
	211	42.4	7.33930E-001	7.25431E-010	0.00000E+000	7.34000E-001	9.91222E-004	4	..........a	-327.66
	212	42.6	7.43912E-001	7.39748E-010	0.00000E+000	7.44000E-001	1.00512E-003	4	..........a	-327.66
	213	42.8	7.53939E-001	7.61141E-010	0.00000E+000	7.54000E-001	1.00322E-003	4	..........a	-327.66
	214	43	7.63982E-001	7.80693E-010	0.00000E+000	7.64000E-001	1.02172E-003	4	..........a	-327.66
	215	43.2	7.73896E-001	8.01379E-010	0.00000E+000	7.74000E-001	9.99822E-004	4	..........a	-327.66
	216	43.4	7.83878E-001	8.24440E-010	0.00000E+000	7.84000E-001	1.00852E-003	4	..........a	-327.66
	217	43.6	7.93887E-001	8.49281E-010	0.00000E+000	7.94000E-001	9.85722E-004	4	..........a	-327.66
	218	43.8	8.03985E-001	8.76391E-010	0.00000E+000	8.04000E-001	1.01412E-003	4	..........a	-327.66
CURVE2	TABLE
	Pt	T	Vf	Im	Vu	Sig	Ach	IERange	Over	Temp
	#	s	V vs. Ref.	A	V	V	V	#	bits	deg C
	219	44	7.89867E-001	6.58465E-010	0.00000E+000	7.90000E-001	9.86822E-004	4	..........a	-327.66
	220	44.2	7.79940E-001	5.47722E-010	0.00000E+000	7.80000E-001	9.97822E-004	4	..........a	-327.66
	221	44.4	7.69855E-001	4.63259E-010	0.00000E+000	7.70000E-001	1.00662E-003	4	..........a	-327.66
	222	44.6	7.59935E-001	3.95235E-010	0.00000E+000	7.60000E-001	1.03502E-003	4	..........a	-327.66
	223	44.8	7.49903E-001	3.40114E-010	0.00000E+000	7.50000E-001	1.00362E-003	4	..........a	-327.66
	224	45	7.39939E-001	2.91404E-010	0.00000E+000	7.40000E-001	1.01372E-003	4	..........a	-327.66
	225	45.2	7.29928E-001	2.50419E-010	0.00000E+000	7.30000E-001	9.94422E-004	4	..........a	-327.66
	226	45.4	7.19941E-001	2.14940E-010	0.00000E+000	7.20000E-001	1.01622E-003	4	..........a	-327.66
	227	45.6	7.09889E-001	1.83539E-010	0.00000E+000	7.10000E-001	9.95722E-004	4	..........a	-327.66
	228	45.8	6.99994E-001	1.58086E-010	0.00000E+000	7.00000E-001	1.00392E-003	4	..........a	-327.66
	229	46	6.89828E-001	1.27778E-010	0.00000E+000	6.90000E-001	1.01162E-003	4	..........a	-327.66
	230	46.2	6.79761E-001	1.02164E-010	0.00000E+000	6.80000E-001	1.01552E-003	4	..........a	-327.66
	231	46.4	6.69874E-001	8.06169E-011	0.00000E+000	6.70000E-001	9.99422E-004	4	..........a	-327.66
	232	46.6	6.60012E-001	5.96981E-011	0.00000E+000	6.60000E-001	1.00182E-003	4	..........a	-327.66
	233	46.8	6.49945E-001	4.20594E-011	0.00000E+000	6.50000E-001	9.90822E-004	4	..........a	-327.66
	234	47	6.39886E-001	2.59278E-011	0.00000E+000	6.40000E-001	1.01302E-003	4	..........a	-327.66
	235	47.2	6.29938E-001	9.40216E-012	0.00000E+000	6.30000E-001	1.01662E-003	4	..........a	-327.66
	236	47.4	6.20004E-001	-3.15732E-012	0.00000E+000	6.20000E-001	1.01972E-003	4	..........a	-327.66
	237	47.6	6.09957E-001	-2.00720E-011	0.00000E+000	6.10000E-001	1.01042E-003	4	..........a	-327.66
	238	47.8	5.99952E-001	-3.47795E-011	0.00000E+000	6.00000E-001	9.90722E-004	4	..........a	-327.66
	239	48	5.89922E-001	-4.43749E-011	0.00000E+000	5.90000E-001	1.02262E-003	4	..........a	-327.66
	240	48.2	5.80014E-001	-5.56943E-011	0.00000E+000	5.80000E-001	1.02312E-003	4	..........a	-327.66
	241	48.4	5.69957E-001	-6.76608E-011	0.00000E+000	5.70000E-001	9.98722E-004	4	..........a	-327.66
	242	48.6	5.59944E-001	-7.67722E-011	0.00000E+000	5.60000E-001	1.01132E-003	4	..........a	-327.66
	243	48.8	5.49971E-001	-8.61575E-011	0.00000E+000	5.50000E-001	1.03912E-003	4	..........a	-327.66
	244	49	5.40007E-001	-9.71679E-011	0.00000E+000	5.40000E-001	1.03252E-003	4	..........a	-327.66
	245	49.2	5.29971E-001	-1.04120E-010	0.00000E+000	5.30000E-001	1.02312E-003	4	..........a	-327.66
	246	49.4	5.19963E-001	-1.12848E-010	0.00000E+000	5.20000E-001	9.97122E-004	4	..........a	-327.66
	247	49.6	5.09961E-001	-1.20140E-010	0.00000E+000	5.10000E-001	1.00422E-003	4	..........a	-327.66
	248	49.8	5.00004E-001	-1.28301E-010	0.00000E+000	5.00000E-001	1.02042E-003	4	..........a	-327.66
	249	50	4.89979E-001	-1.34972E-010	0.00000E+000	4.90000E-001	9.91122E-004	4	..........a	-327.66
	250	50.2	4.79917E-001	-1.42317E-010	0.00000E+000	4.80000E-001	1.01842E-003	4	..........a	-327.66
	251	50.4	4.69973E-001	-1.48492E-010	0.00000E+000	4.70000E-001	1.01912E-003	4	..........a	-327.66
	252	50.6	4.60006E-001	-1.55920E-010	0.00000E+000	4.60000E-001	1.01252E-003	4	..........a	-327.66
	253	50.8	4.49987E-001	-1.62313E-010	0.00000E+000	4.50000E-001	9.93222E-004	4	..........a	-327.66
	254	51	4.39967E-001	-1.67424E-010	0.00000E+000	4.40000E-001	1.02262E-003	4	..........a	-327.66
	255	51.2	4.29918E-001	-1.74089E-010	0.00000E+000	4.30000E-001	1.00852E-003	4	..........a	-327.66
	256	51.4	4.20025E-001	-1.79453E-010	0.00000E+000	4.20000E-001	1.01502E-003	4	..........a	-327.66
	257	51.6	4.09986E-001	-1.84629E-010	0.00000E+000	4.10000E-001	1.00382E-003	4	..........a	-327.66
	258	51.8	3.99958E-001	-1.90500E-010	0.00000E+000	4.00000E-001	1.02442E-003	4	..........a	-327.66
	259	52	3.89966E-001	-1.95864E-010	0.00000E+000	3.90000E-001	9.97122E-004	4	..........a	-327.66
	260	52.2	3.79998E-001	-2.00693E-010	0.00000E+000	3.80000E-001	1.01192E-003	4	..........a	-327.66
	261	52.4	3.69984E-001	-2.05985E-010	0.00000E+000	3.70000E-001	9.86522E-004	4	..........a	-327.66
	262	52.6	3.59915E-001	-2.11366E-010	0.00000E+000	3.60000E-001	1.02312E-003	4	..........a	-327.66
	263	52.8	3.49972E-001	-2.15803E-010	0.00000E+000	3.50000E-001	1.00812E-003	4	..........a	-327.66
	264	53	3.40044E-001	-2.20346E-010	0.00000E+000	3.40000E-001	1.03162E-003	4	..........a	-327.66
	265	53.2	3.30002E-001	-2.25854E-010	0.00000E+000	3.30000E-001	1.01002E-003	4	..........a	-327.66
	266	53.4	3.19995E-001	-2.29741E-010	0.00000E+000	3.20000E-001	1.01332E-003	4	..........a	-327.66
	267	53.6	3.09973E-001	-2.33826E-010	0.00000E+000	3.10000E-001	9.93322E-004	4	..........a	-327.66
	268	53.8	3.00037E-001	-2.37590E-010	0.00000E+000	3.00000E-001	1.02602E-003	4	..........a	-327.66
	269	54	2.89975E-001	-2.42208E-010	0.00000E+000	2.90000E-001	1.01862E-003	4	..........a	-327.66
	270	54.2	2.79989E-001	-2.46914E-010	0.00000E+000	2.80000E-001	1.01382E-003	4	..........a	-327.66
	271	54.4	2.69984E-001	-2.50737E-010	0.00000E+000	2.70000E-001	1.00962E-003	4	..........a	-327.66
	272	54.6	2.60014E-001	-2.55031E-010	0.00000E+000	2.60000E-001	1.04112E-003	4	..........a	-327.66
	273	54.8	2.50018E-001	-2.59115E-010	0.00000E+000	2.50000E-001	9.85722E-004	4	..........a	-327.66
	274	55	2.39960E-001	-2.62475E-010	0.00000E+000	2.40000E-001	1.02642E-003	4	..........a	-327.66
	275	55.2	2.29996E-001	-2.63982E-010	0.00000E+000	2.30000E-001	9.90022E-004	4	..........a	-327.66
	276	55.4	2.20071E-001	-2.66554E-010	0.00000E+000	2.20000E-001	1.01592E-003	4	..........a	-327.66
	277	55.6	2.09988E-001	-2.71098E-010	0.00000E+000	2.10000E-001	1.00782E-003	4	..........a	-327.66
	278	55.8	1.99939E-001	-2.76160E-010	0.00000E+000	2.00000E-001	9.88322E-004	4	..........a	-327.66
	279	56	1.90036E-001	-2.79361E-010	0.00000E+000	1.90000E-001	9.89522E-004	4	..........a	-327.66
	280	56.2	1.80046E-001	-2.83709E-010	0.00000E+000	1.80000E-001	1.01362E-003	4	..........a	-327.66
	281	56.4	1.70091E-001	-2.87084E-010	0.00000E+000	1.70000E-001	9.92322E-004	4	..........a	-327.66
	282	56.6	1.60032E-001	-2.89504E-010	0.00000E+000	1.60000E-001	1.00552E-003	4	..........a	-327.66
	283	56.8	1.50032E-001	-2.91501E-010	0.00000E+000	1.50000E-001	1.01112E-003	4	..........a	-327.66
	284	57	1.40059E-001	-2.91309E-010	0.00000E+000	1.40000E-001	1.01362E-003	4	..........a	-327.66
	285	57.2	1.30072E-001	-2.92657E-010	0.00000E+000	1.30000E-001	9.99822E-004	4	..........a	-327.66
	286	57.4	1.20083E-001	-2.93238E-010	0.00000E+000	1.20000E-001	1.01052E-003	4	..........a	-327.66
	287	57.6	1.10095E-001	-2.94163E-010	0.00000E+000	1.10000E-001	1.01972E-003	4	..........a	-327.66
	288	57.8	1.00094E-001	-2.94720E-010	0.00000E+000	1.00000E-001	1.02882E-003	4	..........a	-327.66
	289	58	8.99591E-002	-2.98757E-010	0.00000E+000	9.00000E-002	9.84622E-004	4	..........a	-327.66
	290	58.2	8.00785E-002	-3.01235E-010	0.00000E+000	8.00000E-002	1.00912E-003	4	..........a	-327.66
	291	58.4	7.00198E-002	-3.03445E-010	0.00000E+000	7.00000E-002	9.95822E-004	4	..........a	-327.66
	292	58.6	6.00883E-002	-3.06262E-010	0.00000E+000	6.00000E-002	9.80622E-004	4	..........a	-327.66
	293	58.8	5.00694E-002	-3.09877E-010	0.00000E+000	5.00000E-002	1.00512E-003	4	..........a	-327.66
	294	59	3.98577E-002	-3.16219E-010	0.00000E+000	4.00000E-002	1.00462E-003	4	..........a	-327.66
	295	59.2	3.00730E-002	-3.13991E-010	0.00000E+000	3.00000E-002	1.02432E-003	4	..........a	-327.66
	296	59.4	2.00791E-002	-3.17701E-010	0.00000E+000	2.00000E-002	1.02882E-003	4	..........a	-327.66
	297	59.6	1.00764E-002	-3.21901E-010	0.00000E+000	1.00000E-002	9.95722E-004	4	..........a	-327.66
	298	59.8	7.33408E-005	-3.27500E-010	0.00000E+000	7.45058E-009	1.00742E-003	4	..........a	-327.66
	299	60	-9.97326E-003	-3.29528E-010	0.00000E+000	-1.00000E-002	1.00492E-003	4	..........a	-327.66
	300	60.2	-1.99198E-002	-3.35164E-010	0.00000E+000	-2.00000E-002	1.02252E-003	4	..........a	-327.66
	301	60.4	-2.99774E-002	-3.40394E-010	0.00000E+000	-3.00000E-002	1.00412E-003	4	..........a	-327.66
	302	60.6	-3.99391E-002	-3.45141E-010	0.00000E+000	-4.00000E-002	1.00702E-003	4	..........a	-327.66
	303	60.8	-5.00171E-002	-3.48157E-010	0.00000E+000	-5.00000E-002	1.00512E-003	4	..........a	-327.66
	304	61	-5.98653E-002	-3.53977E-010	0.00000E+000	-6.00000E-002	1.02482E-003	4	..........a	-327.66
	305	61.2	-6.99460E-002	-3.59279E-010	0.00000E+000	-7.00000E-002	9.90322E-004	4	..........a	-327.66
	306	61.4	-7.98825E-002	-3.56491E-010	0.00000E+000	-8.00000E-002	1.01652E-003	4	..........a	-327.66
	307	61.6	-8.99594E-002	-3.69101E-010	0.00000E+000	-9.00000E-002	1.01192E-003	4	..........a	-327.66
	308	61.8	-9.99010E-002	-3.77899E-010	0.00000E+000	-1.00000E-001	9.91522E-004	4	..........a	-327.66
	309	62	-1.10001E-001	-3.86638E-010	0.00000E+000	-1.10000E-001	1.02572E-003	4	..........a	-327.66
	310	62.2	-1.19959E-001	-3.90261E-010	0.00000E+000	-1.20000E-001	1.00152E-003	4	..........a	-327.66
	311	62.4	-1.30025E-001	-3.97867E-010	0.00000E+000	-1.30000E-001	1.02802E-003	4	..........a	-327.66
	312	62.6	-1.39952E-001	-4.04599E-010	0.00000E+000	-1.40000E-001	9.84622E-004	4	..........a	-327.66
	313	62.8	-1.49963E-001	-4.14451E-010	0.00000E+000	-1.50000E-001	1.00212E-003	4	..........a	-327.66
	314	63	-1.59955E-001	-4.20124E-010	0.00000E+000	-1.60000E-001	1.00462E-003	4	..........a	-327.66
	315	63.2	-1.69936E-001	-4.24058E-010	0.00000E+000	-1.70000E-001	9.84122E-004	4	..........a	-327.66
	316	63.4	-1.79932E-001	-4.31965E-010	0.00000E+000	-1.80000E-001	1.00172E-003	4	..........a	-327.66
	317	63.6	-1.89993E-001	-4.39796E-010	0.00000E+000	-1.90000E-001	9.89122E-004	4	..........a	-327.66
	318	63.8	-1.99969E-001	-4.48896E-010	0.00000E+000	-2.00000E-001	9.94022E-004	4	..........a	-327.66
	319	64	-2.09911E-001	-4.54604E-010	0.00000E+000	-2.10000E-001	1.00392E-003	4	..........a	-327.66
	320	64.2	-2.19905E-001	-4.61708E-010	0.00000E+000	-2.20000E-001	1.01252E-003	4	..........a	-327.66
	321	64.4	-2.29956E-001	-4.70108E-010	0.00000E+000	-2.30000E-001	9.97222E-004	4	..........a	-327.66
	322	64.6	-2.39885E-001	-4.77466E-010	0.00000E+000	-2.40000E-001	1.01612E-003	4	..........a	-327.66
	323	64.8	-2.49914E-001	-4.85848E-010	0.00000E+000	-2.50000E-001	1.01412E-003	4	..........a	-327.66
	324	65	-2.59886E-001	-4.91673E-010	0.00000E+000	-2.60000E-001	1.02632E-003	4	..........a	-327.66
	325	65.2	-2.69894E-001	-5.04421E-010	0.00000E+000	-2.70000E-001	1.00342E-003	4	..........a	-327.66
	326	65.4	-2.79959E-001	-5.13187E-010	0.00000E+000	-2.80000E-001	1.03252E-003	4	..........a	-327.66
	327	65.6	-2.89934E-001	-5.21733E-010	0.00000E+000	-2.90000E-001	9.78522E-004	4	..........a	-327.66
	328	65.8	-2.99889E-001	-5.32990E-010	0.00000E+000	-3.00000E-001	1.02322E-003	4	..........a	-327.66
	329	66	-3.09913E-001	-5.44366E-010	0.00000E+000	-3.10000E-001	9.89022E-004	4	..........a	-327.66
	330	66.2	-3.19882E-001	-5.53152E-010	0.00000E+000	-3.20000E-001	1.02642E-003	4	..........a	-327.66
	331	66.4	-3.29937E-001	-5.63654E-010	0.00000E+000	-3.30000E-001	1.03142E-003	4	..........a	-327.66
	332	66.6	-3.39937E-001	-5.76178E-010	0.00000E+000	-3.40000E-001	1.02802E-003	4	..........a	-327.66
	333	66.8	-3.49910E-001	-5.86850E-010	0.00000E+000	-3.50000E-001	1.00372E-003	4	..........a	-327.66
	334	67	-3.59899E-001	-5.98115E-010	0.00000E+000	-3.60000E-001	1.03902E-003	4	..........a	-327.66
	335	67.2	-3.69911E-001	-6.10463E-010	0.00000E+000	-3.70000E-001	1.00942E-003	4	..........a	-327.66
	336	67.4	-3.79890E-001	-6.21839E-010	0.00000E+000	-3.80000E-001	9.80922E-004	4	..........a	-327.66
	337	67.6	-3.89883E-001	-6.36278E-010	0.00000E+000	-3.90000E-001	1.01692E-003	4	..........a	-327.66
	338	67.8	-3.99915E-001	-6.49125E-010	0.00000E+000	-4.00000E-001	9.98022E-004	4	..........a	-327.66
	339	68	-4.09924E-001	-6.62919E-010	0.00000E+000	-4.10000E-001	1.03122E-003	4	..........a	-327.66
	340	68.2	-4.19869E-001	-6.77736E-010	0.00000E+000	-4.20000E-001	1.01582E-003	4	..........a	-327.66
	341	68.4	-4.29882E-001	-6.91788E-010	0.00000E+000	-4.30000E-001	9.94022E-004	4	..........a	-327.66
	342	68.6	-4.39910E-001	-7.07757E-010	0.00000E+000	-4.40000E-001	1.00742E-003	4	..........a	-327.66
	343	68.8	-4.49885E-001	-7.23148E-010	0.00000E+000	-4.50000E-001	9.89122E-004	4	..........a	-327.66
	344	69	-4.59919E-001	-7.40539E-010	0.00000E+000	-4.60000E-001	1.00002E-003	4	..........a	-327.66
	345	69.2	-4.69799E-001	-7.57623E-010	0.00000E+000	-4.70000E-001	1.00902E-003	4	..........a	-327.66
	346	69.4	-4.79949E-001	-7.76070E-010	0.00000E+000	-4.80000E-001	9.92122E-004	4	..........a	-327.66
	347	69.6	-4.89923E-001	-7.99582E-010	0.00000E+000	-4.90000E-001	1.00342E-003	4	..........a	-327.66
	348	69.8	-4.99859E-001	-8.14983E-010	0.00000E+000	-5.00000E-001	1.01922E-003	4	..........a	-327.66
	349	70	-5.09851E-001	-8.36616E-010	0.00000E+000	-5.10000E-001	9.78322E-004	4	..........a	-327.66
	350	70.2	-5.19870E-001	-8.59008E-010	0.00000E+000	-5.20000E-001	9.99322E-004	4	..........a	-327.66
	351	70.4	-5.29874E-001	-8.77730E-010	0.00000E+000	-5.30000E-001	9.80722E-004	4	..........a	-327.66
	352	70.6	-5.39895E-001	-9.07560E-010	0.00000E+000	-5.40000E-001	9.96522E-004	4	..........a	-327.66
	353	70.8	-5.49918E-001	-9.35069E-010	0.00000E+000	-5.50000E-001	9.85822E-004	4	..........a	-327.66
[...]
	921	184.4	-5.69946E-001	-6.22695E-010	0.00000E+000	-5.70000E-001	1.01902E-003	4	..........a	-327.66
	922	184.6	-5.59930E-001	-5.32753E-010	0.00000E+000	-5.60000E-001	9.85422E-004	4	..........a	-327.66
	923	184.8	-5.49957E-001	-4.59145E-010	0.00000E+000	-5.50000E-001	9.88422E-004	4	..........a	-327.66
	924	185	-5.39879E-001	-3.97937E-010	0.00000E+000	-5.40000E-001	9.90922E-004	4	..........a	-327.66
	925	185.2	-5.29857E-001	-3.44352E-010	0.00000E+000	-5.30000E-001	9.99122E-004	4	..........a	-327.66
	926	185.4	-5.19878E-001	-2.99191E-010	0.00000E+000	-5.20000E-001	9.97322E-004	4	..........a	-327.66
	927	185.6	-5.09864E-001	-2.57626E-010	0.00000E+000	-5.10000E-001	1.00582E-003	4	..........a	-327.66
	928	185.8	-4.99881E-001	-2.18624E-010	0.00000E+000	-5.00000E-001	1.00392E-003	4	..........a	-327.66
	929	186	-4.89983E-001	-1.84212E-010	0.00000E+000	-4.90000E-001	9.99222E-004	4	..........a	-327.66
	930	186.2	-4.79929E-001	-1.53301E-010	0.00000E+000	-4.80000E-001	9.82222E-004	4	..........a	-327.66
	931	186.4	-4.69772E-001	-1.23405E-010	0.00000E+000	-4.70000E-001	1.01272E-003	4	..........a	-327.66
	932	186.6	-4.59899E-001	-9.65529E-011	0.00000E+000	-4.60000E-001	1.02942E-003	4	..........a	-327.66
	933	186.8	-4.49891E-001	-7.08399E-011	0.00000E+000	-4.50000E-001	9.81222E-004	4	..........a	-327.66
	934	187	-4.39904E-001	-4.65900E-011	0.00000E+000	-4.40000E-001	9.90522E-004	4	..........a	-327.66
	935	187.2	-4.29908E-001	-2.39891E-011	0.00000E+000	-4.30000E-001	9.96722E-004	4	..........a	-327.66
	936	187.4	-4.19871E-001	-1.42926E-012	0.00000E+000	-4.20000E-001	1.00662E-003	4	..........a	-327.66
	937	187.6	-4.09985E-001	1.96236E-011	0.00000E+000	-4.10000E-001	9.93722E-004	4	..........a	-327.66
	938	187.8	-3.99897E-001	3.89213E-011	0.00000E+000	-4.00000E-001	9.94922E-004	4	..........a	-327.66
	939	188	-3.89953E-001	5.68200E-011	0.00000E+000	-3.90000E-001	1.02122E-003	4	..........a	-327.66
	940	188.2	-3.79926E-001	7.40246E-011	0.00000E+000	-3.80000E-001	1.00522E-003	4	..........a	-327.66
	941	188.4	-3.69964E-001	9.03093E-011	0.00000E+000	-3.70000E-001	1.00812E-003	4	..........a	-327.66
	942	188.6	-3.59988E-001	1.07769E-010	0.00000E+000	-3.60000E-001	9.85422E-004	4	..........a	-327.66
	943	188.8	-3.49918E-001	1.21686E-010	0.00000E+000	-3.50000E-001	9.95122E-004	4	..........a	-327.66
	944	189	-3.39927E-001	1.36561E-010	0.00000E+000	-3.40000E-001	1.00772E-003	4	..........a	-327.66
	945	189.2	-3.29953E-001	1.49631E-010	0.00000E+000	-3.30000E-001	1.00242E-003	4	..........a	-327.66
	946	189.4	-3.19855E-001	1.63764E-010	0.00000E+000	-3.20000E-001	1.01732E-003	4	..........a	-327.66
	947	189.6	-3.09922E-001	1.74142E-010	0.00000E+000	-3.10000E-001	9.95922E-004	4	..........a	-327.66
	948	189.8	-2.99894E-001	1.86382E-010	0.00000E+000	-3.00000E-001	1.01152E-003	4	..........a	-327.66
	949	190	-2.89978E-001	1.97868E-010	0.00000E+000	-2.90000E-001	1.01002E-003	4	..........a	-327.66
	950	190.2	-2.79917E-001	2.06835E-010	0.00000E+000	-2.80000E-001	1.02762E-003	4	..........a	-327.66
	951	190.4	-2.69903E-001	2.16158E-010	0.00000E+000	-2.70000E-001	1.01342E-003	4	..........a	-327.66
	952	190.6	-2.59963E-001	2.22866E-010	0.00000E+000	-2.60000E-001	1.01852E-003	4	..........a	-327.66
	953	190.8	-2.50003E-001	2.32464E-010	0.00000E+000	-2.50000E-001	1.01262E-003	4	..........a	-327.66
	954	191	-2.40032E-001	2.41696E-010	0.00000E+000	-2.40000E-001	1.01572E-003	4	..........a	-327.66
	955	191.2	-2.30009E-001	2.50338E-010	0.00000E+000	-2.30000E-001	1.02852E-003	4	..........a	-327.66
	956	191.4	-2.19951E-001	2.56197E-010	0.00000E+000	-2.20000E-001	9.97522E-004	4	..........a	-327.66
	957	191.6	-2.10042E-001	2.62113E-010	0.00000E+000	-2.10000E-001	9.89222E-004	4	..........a	-327.66
	958	191.8	-2.00039E-001	2.67215E-010	0.00000E+000	-2.00000E-001	1.01052E-003	4	..........a	-327.66
	959	192	-1.89990E-001	2.72556E-010	0.00000E+000	-1.90000E-001	9.82822E-004	4	..........a	-327.66
	960	192.2	-1.79988E-001	2.77085E-010	0.00000E+000	-1.80000E-001	1.02592E-003	4	..........a	-327.66
	961	192.4	-1.69994E-001	2.81656E-010	0.00000E+000	-1.70000E-001	9.91022E-004	4	..........a	-327.66
	962	192.6	-1.60023E-001	2.84683E-010	0.00000E+000	-1.60000E-001	1.00682E-003	4	..........a	-327.66
	963	192.8	-1.50010E-001	2.88403E-010	0.00000E+000	-1.50000E-001	9.88522E-004	4	..........a	-327.66
	964	193	-1.39966E-001	2.90920E-010	0.00000E+000	-1.40000E-001	1.01582E-003	4	..........a	-327.66
	965	193.2	-1.30050E-001	2.93513E-010	0.00000E+000	-1.30000E-001	1.00242E-003	4	..........a	-327.66
	966	193.4	-1.20016E-001	2.95553E-010	0.00000E+000	-1.20000E-001	9.95322E-004	4	..........a	-327.66
	967	193.6	-1.09977E-001	2.97787E-010	0.00000E+000	-1.10000E-001	9.93022E-004	4	..........a	-327.66
	968	193.8	-9.99897E-002	2.99959E-010	0.00000E+000	-1.00000E-001	1.01122E-003	4	..........a	-327.66
	969	194	-8.99964E-002	3.01753E-010	0.00000E+000	-9.00000E-002	1.03132E-003	4	..........a	-327.66
	970	194.2	-8.00256E-002	3.03518E-010	0.00000E+000	-8.00000E-002	1.01882E-003	4	..........a	-327.66
	971	194.4	-6.99682E-002	3.04817E-010	0.00000E+000	-7.00000E-002	1.00992E-003	4	..........a	-327.66
	972	194.6	-5.99655E-002	3.05512E-010	0.00000E+000	-6.00000E-002	1.00412E-003	4	..........a	-327.66
	973	194.8	-5.00450E-002	3.06778E-010	0.00000E+000	-5.00000E-002	9.82322E-004	4	..........a	-327.66
	974	195	-3.99563E-002	3.08294E-010	0.00000E+000	-4.00000E-002	1.00442E-003	4	..........a	-327.66
	975	195.2	-2.99965E-002	3.09285E-010	0.00000E+000	-3.00000E-002	9.95222E-004	4	..........a	-327.66
	976	195.4	-1.99440E-002	3.10367E-010	0.00000E+000	-2.00000E-002	9.92522E-004	4	..........a	-327.66
	977	195.6	-1.00372E-002	3.11515E-010	0.00000E+000	-1.00000E-002	1.03002E-003	4	..........a	-327.66
	978	195.8	-2.06592E-005	3.12307E-010	0.00000E+000	7.45058E-009	9.96922E-004	4	..........a	-327.66
	979	196	1.00560E-002	3.13642E-010	0.00000E+000	1.00000E-002	1.00282E-003	4	..........a	-327.66
	980	196.2	2.00053E-002	3.14002E-010	0.00000E+000	2.00000E-002	1.02092E-003	4	..........a	-327.66
	981	196.4	2.99933E-002	3.15196E-010	0.00000E+000	3.00000E-002	1.01662E-003	4	..........a	-327.66
	982	196.6	4.00630E-002	3.16342E-010	0.00000E+000	4.00000E-002	1.01572E-003	4	..........a	-327.66
	983	196.8	5.00421E-002	3.17584E-010	0.00000E+000	5.00000E-002	1.00572E-003	4	..........a	-327.66
	984	197	6.00494E-002	3.18434E-010	0.00000E+000	6.00000E-002	1.01362E-003	4	..........a	-327.66
	985	197.2	6.99416E-002	3.19983E-010	0.00000E+000	7.00000E-002	1.00182E-003	4	..........a	-327.66
	986	197.4	7.99831E-002	3.20902E-010	0.00000E+000	8.00000E-002	9.98322E-004	4	..........a	-327.66
	987	197.6	9.02253E-002	3.23322E-010	0.00000E+000	9.00000E-002	1.00442E-003	4	..........a	-327.66
	988	197.8	9.99828E-002	3.24330E-010	0.00000E+000	1.00000E-001	9.90022E-004	4	..........a	-327.66
	989	198	1.10009E-001	3.26036E-010	0.00000E+000	1.10000E-001	9.90922E-004	4	..........a	-327.66
	990	198.2	1.20010E-001	3.28789E-010	0.00000E+000	1.20000E-001	1.01752E-003	4	..........a	-327.66
	991	198.4	1.30052E-001	3.30754E-010	0.00000E+000	1.30000E-001	9.84622E-004	4	..........a	-327.66
	992	198.6	1.40089E-001	3.32967E-010	0.00000E+000	1.40000E-001	1.00752E-003	4	..........a	-327.66
	993	198.8	1.49973E-001	3.35709E-010	0.00000E+000	1.50000E-001	1.02822E-003	4	..........a	-327.66
	994	199	1.60037E-001	3.38154E-010	0.00000E+000	1.60000E-001	9.91622E-004	4	..........a	-327.66
	995	199.2	1.70023E-001	3.41687E-010	0.00000E+000	1.70000E-001	9.87422E-004	4	..........a	-327.66
	996	199.4	1.80056E-001	3.45254E-010	0.00000E+000	1.80000E-001	1.00652E-003	4	..........a	-327.66
	997	199.6	1.90037E-001	3.48796E-010	0.00000E+000	1.90000E-001	1.00522E-003	4	..........a	-327.66
	998	199.8	2.00031E-001	3.52647E-010	0.00000E+000	2.00000E-001	1.01492E-003	4	..........a	-327.66
	999	200	2.09995E-001	3.56819E-010	0.00000E+000	2.10000E-001	9.96122E-004	4	..........a	-327.66
	1000	200.2	2.20001E-001	3.61090E-010	0.00000E+000	2.20000E-001	1.01962E-003	4	..........a	-327.66
	1001	200.4	2.29950E-001	3.65122E-010	0.00000E+000	2.30000E-001	1.02372E-003	4	..........a	-327.66
	1002	200.6	2.39956E-001	3.69079E-010	0.00000E+000	2.40000E-001	1.00642E-003	4	..........a	-327.66
	1003	200.8	2.49987E-001	3.73175E-010	0.00000E+000	2.50000E-001	1.00742E-003	4	..........a	-327.66
	1004	201	2.59996E-001	3.77718E-010	0.00000E+000	2.60000E-001	1.01892E-003	4	..........a	-327.66
	1005	201.2	2.69962E-001	3.81759E-010	0.00000E+000	2.70000E-001	1.00762E-003	4	..........a	-327.66
	1006	201.4	2.79972E-001	3.86794E-010	0.00000E+000	2.80000E-001	1.01022E-003	4	..........a	-327.66
	1007	201.6	2.89999E-001	3.90437E-010	0.00000E+000	2.90000E-001	1.00582E-003	4	..........a	-327.66
	1008	201.8	3.00019E-001	3.94747E-010	0.00000E+000	3.00000E-001	1.02312E-003	4	..........a	-327.66
	1009	202	3.09968E-001	3.98856E-010	0.00000E+000	3.10000E-001	1.00112E-003	4	..........a	-327.66
	1010	202.2	3.19992E-001	4.02889E-010	0.00000E+000	3.20000E-001	1.00972E-003	4	..........a	-327.66
	1011	202.4	3.30002E-001	4.06044E-010	0.00000E+000	3.30000E-001	9.85822E-004	4	..........a	-327.66
	1012	202.6	3.40052E-001	4.08950E-010	0.00000E+000	3.40000E-001	1.00942E-003	4	..........a	-327.66
	1013	202.8	3.49982E-001	4.11543E-010	0.00000E+000	3.50000E-001	9.93722E-004	4	..........a	-327.66
	1014	203	3.60006E-001	4.14355E-010	0.00000E+000	3.60000E-001	1.00242E-003	4	..........a	-327.66
	1015	203.2	3.70011E-001	4.18109E-010	0.00000E+000	3.70000E-001	1.00312E-003	4	..........a	-327.66
	1016	203.4	3.80006E-001	4.20578E-010	0.00000E+000	3.80000E-001	1.02792E-003	4	..........a	-327.66
	1017	203.6	3.89972E-001	4.23587E-010	0.00000E+000	3.90000E-001	1.01292E-003	4	..........a	-327.66
	1018	203.8	3.99984E-001	4.25724E-010	0.00000E+000	4.00000E-001	9.87022E-004	4	..........a	-327.66
	1019	204	4.09946E-001	4.28170E-010	0.00000E+000	4.10000E-001	9.94722E-004	4	..........a	-327.66
	1020	204.2	4.20038E-001	4.31704E-010	0.00000E+000	4.20000E-001	1.00692E-003	4	..........a	-327.66
	1021	204.4	4.29937E-001	4.33747E-010	0.00000E+000	4.30000E-001	9.85322E-004	4	..........a	-327.66
	1022	204.6	4.39932E-001	4.36825E-010	0.00000E+000	4.40000E-001	1.00032E-003	4	..........a	-327.66
	1023	204.8	4.49967E-001	4.39673E-010	0.00000E+000	4.50000E-001	9.99722E-004	4	..........a	-327.66
	1024	205	4.60014E-001	4.42806E-010	0.00000E+000	4.60000E-001	1.00912E-003	4	..........a	-327.66
	1025	205.2	4.69978E-001	4.44735E-010	0.00000E+000	4.70000E-001	9.94922E-004	4	..........a	-327.66
	1026	205.4	4.79936E-001	4.48055E-010	0.00000E+000	4.80000E-001	1.01282E-003	4	..........a	-327.66
	1027	205.6	4.89977E-001	4.51060E-010	0.00000E+000	4.90000E-001	9.80122E-004	4	..........a	-327.66
	1028	205.8	5.00026E-001	4.54349E-010	0.00000E+000	5.00000E-001	1.01162E-003	4	..........a	-327.66
	1029	206	5.09938E-001	4.58124E-010	0.00000E+000	5.10000E-001	9.99322E-004	4	..........a	-327.66
	1030	206.2	5.19998E-001	4.62136E-010	0.00000E+000	5.20000E-001	1.01762E-003	4	..........a	-327.66
	1031	206.4	5.29939E-001	4.65607E-010	0.00000E+000	5.30000E-001	9.94822E-004	4	..........a	-327.66
	1032	206.6	5.40033E-001	4.69636E-010	0.00000E+000	5.40000E-001	1.00312E-003	4	..........a	-327.66
	1033	206.8	5.49980E-001	4.73826E-010	0.00000E+000	5.50000E-001	1.01202E-003	4	..........a	-327.66
	1034	207	5.59989E-001	4.77685E-010	0.00000E+000	5.60000E-001	1.01952E-003	4	..........a	-327.66
	1035	207.2	5.69977E-001	4.82947E-010	0.00000E+000	5.70000E-001	9.90222E-004	4	..........a	-327.66
	1036	207.4	5.79979E-001	4.88546E-010	0.00000E+000	5.80000E-001	1.02142E-003	4	..........a	-327.66
	1037	207.6	5.89923E-001	4.95043E-010	0.00000E+000	5.90000E-001	1.01522E-003	4	..........a	-327.66
	1038	207.8	5.99900E-001	5.01255E-010	0.00000E+000	6.00000E-001	9.73522E-004	4	..........a	-327.66
	1039	208	6.09960E-001	5.06899E-010	0.00000E+000	6.10000E-001	1.02272E-003	4	..........a	-327.66
	1040	208.2	6.20003E-001	5.14760E-010	0.00000E+000	6.20000E-001	1.02972E-003	4	..........a	-327.66
	1041	208.4	6.29893E-001	5.20856E-010	0.00000E+000	6.30000E-001	9.97522E-004	4	..........a	-327.66
	1042	208.6	6.39911E-001	5.28785E-010	0.00000E+000	6.40000E-001	1.01582E-003	4	..........a	-327.66
	1043	208.8	6.49889E-001	5.38320E-010	0.00000E+000	6.50000E-001	1.01222E-003	4	..........a	-327.66
	1044	209	6.60035E-001	5.47314E-010	0.00000E+000	6.60000E-001	1.01292E-003	4	..........a	-327.66
	1045	209.2	6.69904E-001	5.55796E-010	0.00000E+000	6.70000E-001	1.00412E-003	4	..........a	-327.66
	1046	209.4	6.79793E-001	5.67005E-010	0.00000E+000	6.80000E-001	1.01112E-003	4	..........a	-327.66
	1047	209.6	6.89885E-001	5.78548E-010	0.00000E+000	6.90000E-001	1.00042E-003	4	..........a	-327.66
	1048	209.8	6.99976E-001	5.91070E-010	0.00000E+000	7.00000E-001	9.90222E-004	4	..........a	-327.66
	1049	210	7.09912E-001	6.03337E-010	0.00000E+000	7.10000E-001	1.02002E-003	4	..........a	-327.66
	1050	210.2	7.19885E-001	6.18599E-010	0.00000E+000	7.20000E-001	1.02832E-003	4	..........a	-327.66
	1051	210.4	7.29972E-001	6.36842E-010	0.00000E+000	7.30000E-001	9.79922E-004	4	..........a	-327.66
	1052	210.6	7.40000E-001	6.52991E-010	0.00000E+000	7.40000E-001	1.00692E-003	4	..........a	-327.66
	1053	210.8	7.49879E-001	6.74175E-010	0.00000E+000	7.50000E-001	9.99122E-004	4	..........a	-327.66
	1054	211	7.59898E-001	6.93104E-010	0.00000E+000	7.60000E-001	9.94022E-004	4	..........a	-327.66
	1055	211.2	7.69919E-001	7.14897E-010	0.00000E+000	7.70000E-001	9.89322E-004	4	..........a	-327.66
	1056	211.4	7.79982E-001	7.37829E-010	0.00000E+000	7.80000E-001	9.98422E-004	4	..........a	-327.66
	1057	211.6	7.89891E-001	7.67182E-010	0.00000E+000	7.90000E-001	1.00492E-003	4	..........a	-327.66
	1058	211.8	7.99910E-001	7.96564E-010	0.00000E+000	8.00000E-001	1.02272E-003	4	..........a	-327.66
CURVE5	TABLE
	Pt	T	Vf	Im	Vu	Sig	Ach	IERange	Over	Temp
	#	s	V vs. Ref.	A	V	V	V	#	bits	deg C
	1059	212	7.89944E-001	6.18055E-010	0.00000E+000	7.90000E-001	1.00022E-003	4	..........a	-327.66
	1060	212.2	7.79971E-001	5.02585E-010	0.00000E+000	7.80000E-001	1.00372E-003	4	..........a	-327.66
	1061	212.4	7.69902E-001	4.13683E-010	0.00000E+000	7.70000E-001	1.01842E-003	4	..........a	-327.66
	1062	212.6	7.59951E-001	3.47324E-010	0.00000E+000	7.60000E-001	9.95722E-004	4	..........a	-327.66
	1063	212.8	7.49907E-001	2.93077E-010	0.00000E+000	7.50000E-001	1.01252E-003	4	..........a	-327.66
	1064	213	7.39954E-001	2.47203E-010	0.00000E+000	7.40000E-001	1.00182E-003	4	..........a	-327.66
	1065	213.2	7.29908E-001	2.07408E-010	0.00000E+000	7.30000E-001	1.01222E-003	4	..........a	-327.66
	1066	213.4	7.19880E-001	1.73606E-010	0.00000E+000	7.20000E-001	9.86522E-004	4	..........a	-327.66
	1067	213.6	7.09876E-001	1.44786E-010	0.00000E+000	7.10000E-001	9.95422E-004	4	..........a	-327.66
	1068	213.8	6.99988E-001	1.19476E-010	0.00000E+000	7.00000E-001	1.00862E-003	4	..........a	-327.66
	1069	214	6.89916E-001	9.25083E-011	0.00000E+000	6.90000E-001	9.82822E-004	4	..........a	-327.66
	1070	214.2	6.79795E-001	7.40986E-011	0.00000E+000	6.80000E-001	9.99122E-004	4	..........a	-327.66
	1071	214.4	6.69925E-001	5.59559E-011	0.00000E+000	6.70000E-001	1.00612E-003	4	..........a	-327.66
	1072	214.6	6.60023E-001	3.81573E-011	0.00000E+000	6.60000E-001	1.01952E-003	4	..........a	-327.66
	1073	214.8	6.49918E-001	2.27327E-011	0.00000E+000	6.50000E-001	9.99622E-004	4	..........a	-327.66
	1074	215	6.39912E-001	6.31304E-012	0.00000E+000	6.40000E-001	1.01052E-003	4	..........a	-327.66
	1075	215.2	6.29930E-001	-7.19248E-012	0.00000E+000	6.30000E-001	9.82822E-004	4	..........a	-327.66
	1076	215.4	6.20002E-001	-2.12750E-011	0.00000E+000	6.20000E-001	9.86422E-004	4	..........a	-327.66
	1077	215.6	6.09954E-001	-3.52326E-011	0.00000E+000	6.10000E-001	1.00362E-003	4	..........a	-327.66
	1078	215.8	5.99994E-001	-4.40769E-011	0.00000E+000	6.00000E-001	1.01972E-003	4	..........a	-327.66
	1079	216	5.89961E-001	-5.47093E-011	0.00000E+000	5.90000E-001	1.00302E-003	4	..........a	-327.66
	1080	216.2	5.80005E-001	-6.67788E-011	0.00000E+000	5.80000E-001	9.94822E-004	4	..........a	-327.66
	1081	216.4	5.69939E-001	-7.46961E-011	0.00000E+000	5.70000E-001	9.94922E-004	4	..........a	-327.66
	1082	216.6	5.59946E-001	-8.45854E-011	0.00000E+000	5.60000E-001	1.00912E-003	4	..........a	-327.66
	1083	216.8	5.49944E-001	-9.23337E-011	0.00000E+000	5.50000E-001	9.95722E-004	4	..........a	-327.66
	1084	217	5.40021E-001	-1.01877E-010	0.00000E+000	5.40000E-001	9.90922E-004	4	..........a	-327.66
	1085	217.2	5.29900E-001	-1.10058E-010	0.00000E+000	5.30000E-001	9.96722E-004	4	..........a	-327.66
	1086	217.4	5.19959E-001	-1.18067E-010	0.00000E+000	5.20000E-001	1.02112E-003	4	..........a	-327.66
	1087	217.6	5.09894E-001	-1.25753E-010	0.00000E+000	5.10000E-001	9.96122E-004	4	..........a	-327.66
	1088	217.8	5.00033E-001	-1.33631E-010	0.00000E+000	5.00000E-001	1.03212E-003	4	..........a	-327.66
	1089	218	4.89932E-001	-1.40665E-010	0.00000E+000	4.90000E-001	9.81522E-004	4	..........a	-327.66
	1090	218.2	4.79968E-001	-1.48108E-010	0.00000E+000	4.80000E-001	1.02712E-003	4	..........a	-327.66
	1091	218.4	4.69959E-001	-1.54579E-010	0.00000E+000	4.70000E-001	9.91722E-004	4	..........a	-327.66
	1092	218.6	4.60007E-001	-1.62343E-010	0.00000E+000	4.60000E-001	9.96322E-004	4	..........a	-327.66
	1093	218.8	4.49963E-001	-1.68405E-010	0.00000E+000	4.50000E-001	1.00002E-003	4	..........a	-327.66
	1094	219	4.39957E-001	-1.75403E-010	0.00000E+000	4.40000E-001	1.01072E-003	4	..........a	-327.66
	1095	219.2	4.29962E-001	-1.81386E-010	0.00000E+000	4.30000E-001	1.00222E-003	4	..........a	-327.66
	1096	219.4	4.20023E-001	-1.88077E-010	0.00000E+000	4.20000E-001	1.01972E-003	4	..........a	-327.66
	1097	219.6	4.09937E-001	-1.94637E-010	0.00000E+000	4.10000E-001	9.92522E-004	4	..........a	-327.66
	1098	219.8	3.99903E-001	-2.00698E-010	0.00000E+000	4.00000E-001	9.97922E-004	4	..........a	-327.66
	1099	220	3.89958E-001	-2.06974E-010	0.00000E+000	3.90000E-001	1.01382E-003	4	..........a	-327.66
	1100	220.2	3.80003E-001	-2.12174E-010	0.00000E+000	3.80000E-001	9.97522E-004	4	..........a	-327.66
	1101	220.4	3.69994E-001	-2.17820E-010	0.00000E+000	3.70000E-001	1.00602E-003	4	..........a	-327.66
	1102	220.6	3.59995E-001	-2.23619E-010	0.00000E+000	3.60000E-001	1.02102E-003	4	..........a	-327.66
	1103	220.8	3.49988E-001	-2.29320E-010	0.00000E+000	3.50000E-001	1.00602E-003	4	..........a	-327.66
	1104	221	3.40052E-001	-2.33990E-010	0.00000E+000	3.40000E-001	9.86922E-004	4	..........a	-327.66
	1105	221.2	3.29975E-001	-2.39371E-010	0.00000E+000	3.30000E-001	9.92322E-004	4	..........a	-327.66
	1106	221.4	3.20023E-001	-2.44243E-010	0.00000E+000	3.20000E-001	1.02242E-003	4	..........a	-327.66
	1107	221.6	3.09975E-001	-2.49995E-010	0.00000E+000	3.10000E-001	1.01012E-003	4	..........a	-327.66
	1108	221.8	3.00017E-001	-2.55219E-010	0.00000E+000	3.00000E-001	1.02112E-003	4	..........a	-327.66
	1109	222	2.90003E-001	-2.59623E-010	0.00000E+000	2.90000E-001	1.00062E-003	4	..........a	-327.66
	1110	222.2	2.79883E-001	-2.63660E-010	0.00000E+000	2.80000E-001	1.00932E-003	4	..........a	-327.66
	1111	222.4	2.70014E-001	-2.66442E-010	0.00000E+000	2.70000E-001	9.98322E-004	4	..........a	-327.66
	1112	222.6	2.60038E-001	-2.71486E-010	0.00000E+000	2.60000E-001	1.01162E-003	4	..........a	-327.66
	1113	222.8	2.50012E-001	-2.78750E-010	0.00000E+000	2.50000E-001	9.85222E-004	4	..........a	-327.66
	1114	223	2.39985E-001	-2.83367E-010	0.00000E+000	2.40000E-001	1.00372E-003	4	..........a	-327.66
	1115	223.2	2.29987E-001	-2.88017E-010	0.00000E+000	2.30000E-001	1.00202E-003	4	..........a	-327.66
	1116	223.4	2.20035E-001	-2.90220E-010	0.00000E+000	2.20000E-001	9.99322E-004	4	..........a	-327.66
	1117	223.6	2.10010E-001	-2.91972E-010	0.00000E+000	2.10000E-001	9.78522E-004	4	..........a	-327.66
	1118	223.8	2.00067E-001	-2.92611E-010	0.00000E+000	2.00000E-001	1.03182E-003	4	..........a	-327.66
	1119	224	1.90066E-001	-2.93570E-010	0.00000E+000	1.90000E-001	9.90422E-004	4	..........a	-327.66
	1120	224.2	1.80107E-001	-2.93983E-010	0.00000E+000	1.80000E-001	1.00932E-003	4	..........a	-327.66