File: example_project/raw_outputs/20240509_ZZZG_GM0016_HL03_E15_CV50.DTA
EXPLAIN
TAG	CV
TITLE	LABEL	Cyclic Voltammetry	Test &Identifier
DATE	LABEL	5/9/2024	Date
TIME	LABEL	15:37:17	Time
NOTES	NOTES	1	&Notes...

PSTAT	PSTAT	REF600P-43058	Potentiostat
VINIT	POTEN	0.00000E+000	T	Initial &E (V)
VLIMIT1	POTEN	8.00000E-001	F	Scan Limit &1 (V)
VLIMIT2	POTEN	-6.00000E-001	F	Scan Limit &2 (V)
VFINAL	POTEN	0.00000E+000	T	Final &E (V)
SCANRATE	QUANT	4.99999E+001	&Scan Rate (mV/s)
STEPSIZE	QUANT	1.00000E+001	St&ep Size (mV)
CYCLES	IQUANT	4	C&ycles (#)
IMODE	SELECTOR	0	I/E Range &Mode
IRANGE	QUANT	1.00000E-005	&Max Current (mA)
AREA	QUANT	1.00000E+000	Electrode &Area (cm^2)
ELECTRODETYPE	SELECTOR	0	Electrode Type
STRIPPING	TOGGLE	F	Used for Stripping
POLARITY	TOGGLE	F	Signal Polarity
CONDIT	TWOPARAM	F	1.50000E+001	0.00000E+000	Conditionin&g	Time(s)	E(V)
DELAY	TWOPARAM	T	1.00000E+001	0.00000E+000	Init. De&lay	Time(s)	Stab.(mV/s)
EQDELAY	QUANT	1.00000E+001	Equil. &Time (s)
IRCOMP	SELECTOR	0	IRCom&p
PFCOR	QUANT	5.00000E+001	PF Corr. (ohm)
SAMPLINGMODE	SELECTOR	1	Sampling &Mode
OCVCURVE	TABLE	39
	Pt	T	Vf	Vm	Ach	Over	Temp
	#	s	V vs. Ref.	V	V	bits	deg C
	0	0.258333	-2.18740E-001	-2.18740E-001	2.46392E-004	..........a	-327.66
	1	0.516667	-2.18744E-001	-2.18923E-001	2.37526E-004	..........a	-327.66
	2	0.775	-2.18765E-001	-2.19104E-001	2.24526E-004	..........a	-327.66
	3	1.03333	-2.18827E-001	-2.19277E-001	2.27592E-004	..........a	-327.66
	4	1.29167	-2.18938E-001	-2.19447E-001	2.32326E-004	..........a	-327.66
	5	1.55	-2.19087E-001	-2.19608E-001	2.33326E-004	..........a	-327.66
	6	1.80833	-2.19255E-001	-2.19776E-001	2.27592E-004	..........a	-327.66
	7	2.06667	-2.19426E-001	-2.19950E-001	2.32059E-004	..........a	-327.66
	8	2.325	-2.19597E-001	-2.20116E-001	2.31792E-004	..........a	-327.66
	9	2.58333	-2.19766E-001	-2.20284E-001	2.35526E-004	..........a	-327.66
	10	2.84167	-2.19935E-001	-2.20465E-001	2.19526E-004	..........a	-327.66
	11	3.1	-2.20105E-001	-2.20645E-001	2.33126E-004	..........a	-327.66
	12	3.35833	-2.20277E-001	-2.20828E-001	2.38326E-004	..........a	-327.66
	13	3.61667	-2.20453E-001	-2.21001E-001	2.24459E-004	..........a	-327.66
	14	3.875	-2.20631E-001	-2.21185E-001	2.37926E-004	..........a	-327.66
	15	4.13333	-2.20811E-001	-2.21379E-001	2.27926E-004	..........a	-327.66
	16	4.39167	-2.20992E-001	-2.21549E-001	2.33592E-004	..........a	-327.66
	17	4.65	-2.21174E-001	-2.21721E-001	2.14926E-004	..........a	-327.66
	18	4.90833	-2.21355E-001	-2.21897E-001	2.29259E-004	..........a	-327.66
	19	5.16667	-2.21533E-001	-2.22072E-001	2.23992E-004	..........a	-327.66
	20	5.425	-2.21709E-001	-2.22248E-001	2.28726E-004	..........a	-327.66
	21	5.68333	-2.21882E-001	-2.22327E-001	2.30326E-004	..........a	-327.66
	22	5.94167	-2.22041E-001	-2.22159E-001	2.32526E-004	..........a	-327.66
	23	6.2	-2.22159E-001	-2.22226E-001	2.26392E-004	..........a	-327.66
	24	6.45833	-2.22220E-001	-2.22373E-001	2.23992E-004	..........a	-327.66
	25	6.71667	-2.22251E-001	-2.22506E-001	2.37126E-004	..........a	-327.66
	26	6.975	-2.22297E-001	-2.22650E-001	2.36126E-004	..........a	-327.66
	27	7.23333	-2.22382E-001	-2.22827E-001	2.40659E-004	..........a	-327.66
	28	7.49167	-2.22504E-001	-2.23002E-001	2.32192E-004	..........a	-327.66
	29	7.75	-2.22651E-001	-2.23179E-001	2.18259E-004	..........a	-327.66
	30	8.00833	-2.22815E-001	-2.23362E-001	2.26859E-004	..........a	-327.66
	31	8.26667	-2.22989E-001	-2.23538E-001	2.44459E-004	..........a	-327.66
	32	8.525	-2.23166E-001	-2.23702E-001	2.35326E-004	..........a	-327.66
	33	8.78333	-2.23343E-001	-2.23852E-001	2.38659E-004	..........a	-327.66
	34	9.04167	-2.23516E-001	-2.24014E-001	2.31992E-004	..........a	-327.66
	35	9.3	-2.23682E-001	-2.24171E-001	2.38659E-004	..........a	-327.66
	36	9.5583	-2.23843E-001	-2.24318E-001	2.18192E-004	..........a	-327.66
	37	9.8167	-2.24000E-001	-2.24457E-001	2.22392E-004	..........a	-327.66
	38	10.075	-2.24153E-001	-2.24597E-001	2.24726E-004	..........a	-327.66
EOC	QUANT	-0.2241533	Open Circuit (V)
PSTATMODEL	IQUANT	7	Pstat Model
PSTATSECTION	LABEL	REF600P-43058	Pstat Section
PSTATSERIALNO	LABEL	43058	Pstat Serial Number
CTRLMODE	IQUANT	1	Control Mode
ELECTROMETER	IQUANT	0	RE=0 or CS=1
IESTAB	IQUANT	2	I/E Stability
CASPEED	IQUANT	4	Control Amp Speed
CONVENTION	IQUANT	1	Current Convention
ICHRANGE	IQUANT	2	Ich Range
ICHRANGEMODE	TOGGLE	F	Ich Auto Range
ICHOFFSETENABLE	TOGGLE	F	Ich Offset Enable
ICHOFFSET	QUANT	0	Ich Offset (V)
ICHFILTER	IQUANT	2	Ich Filter
VCHRANGE	IQUANT	2	Vch Range
VCHRANGEMODE	TOGGLE	F	Vch Auto Range
VCHOFFSETENABLE	TOGGLE	F	Vch Offset Enable
VCHOFFSET	QUANT	0	Vch Offset (V)
VCHFILTER	IQUANT	2	Vch Filter
ACHRANGE	IQUANT	2	Ach Range
ACHOFFSETENABLE	TOGGLE	F	Ach Offset Enable
ACHOFFSET	QUANT	0	Ach Offset (V)
ACHFILTER	IQUANT	1	Ach Filter
IERANGELOWERLIMIT	IQUANT	1	I/E Range Lower Limit
IERANGEMODE	TOGGLE	T	I/E AutoRange
IERANGE	IQUANT	4	I/E Range
POSFEEDENABLE	TOGGLE	F	Positive Feedback IR Comp
POSFEEDRESISTANCE	QUANT	0	Positive Feedback Resistance (ohm)
ACHSELECT	IQUANT	4	Ach Select
SENSECABLEID	IQUANT	7	Sense Cable ID
PWRCABLEID	IQUANT	7	Power Cable ID
DCCALDATE	LABEL	3/22/2024	DC Calibration Date
ACCALDATE	LABEL	3/22/2024	AC Calibration Date
THERMOSELECT	IQUANT	1	Thermo Select
FRAMEWORKVERSION	LABEL	7.8.4	Framework Version
INSTRUMENTVERSION	LABEL	4.42	Instrument Version
CURVE1	TABLE
	Pt	T	Vf	Im	Vu	Sig	Ach	IERange	Over	Temp
	#	s	V vs. Ref.	A	V	V	V	#	bits	deg C
	0	0.2	-2.24074E-001	4.40652E-009	0.00000E+000	-2.24150E-001	9.96692E-004	5	..........a	-327.66
	1	0.4	-2.14066E-001	3.05819E-008	0.00000E+000	-2.14150E-001	9.91792E-004	5	..........a	-327.66
	2	0.6	-2.04141E-001	4.71622E-008	0.00000E+000	-2.04150E-001	9.76892E-004	5	..........a	-327.66
	3	0.8	-1.94081E-001	5.99624E-008	0.00000E+000	-1.94150E-001	9.74592E-004	5	..........a	-327.66
	4	1	-1.84141E-001	7.08499E-008	0.00000E+000	-1.84150E-001	9.84392E-004	5	..........a	-327.66
	5	1.2	-1.74156E-001	8.04940E-008	0.00000E+000	-1.74150E-001	9.86292E-004	5	..........a	-327.66
	6	1.4	-1.64225E-001	8.96374E-008	0.00000E+000	-1.64150E-001	9.82992E-004	5	..........a	-327.66
	7	1.6	-1.54056E-001	9.76282E-008	0.00000E+000	-1.54150E-001	9.97892E-004	5	..........a	-327.66
	8	1.8	-1.44167E-001	1.05381E-007	0.00000E+000	-1.44150E-001	9.81292E-004	5	..........a	-327.66
	9	2	-1.34182E-001	1.12783E-007	0.00000E+000	-1.34150E-001	9.97592E-004	5	..........a	-327.66
	10	2.2	-1.24174E-001	1.20152E-007	0.00000E+000	-1.24150E-001	9.87692E-004	5	..........a	-327.66
	11	2.4	-1.14078E-001	1.27541E-007	0.00000E+000	-1.14150E-001	9.82092E-004	5	..........a	-327.66
	12	2.6	-1.04179E-001	1.34398E-007	0.00000E+000	-1.04150E-001	9.93192E-004	5	..........a	-327.66
	13	2.8	-9.41634E-002	1.41485E-007	0.00000E+000	-9.41500E-002	9.70692E-004	5	..........a	-327.66
	14	3	-8.41635E-002	1.48187E-007	0.00000E+000	-8.41500E-002	9.75392E-004	5	..........a	-327.66
	15	3.2	-7.40879E-002	1.54904E-007	0.00000E+000	-7.41500E-002	9.90892E-004	5	..........a	-327.66
	16	3.4	-6.41924E-002	1.61784E-007	0.00000E+000	-6.41500E-002	9.71892E-004	5	..........a	-327.66
	17	3.6	-5.41675E-002	1.68400E-007	0.00000E+000	-5.41500E-002	9.88492E-004	5	..........a	-327.66
	18	3.8	-4.41928E-002	1.75022E-007	0.00000E+000	-4.41500E-002	9.80992E-004	5	..........a	-327.66
	19	4	-3.40814E-002	1.81813E-007	0.00000E+000	-3.41500E-002	9.84292E-004	5	..........a	-327.66
	20	4.2	-2.41917E-002	1.88220E-007	0.00000E+000	-2.41500E-002	9.88292E-004	5	..........a	-327.66
	21	4.4	-1.41829E-002	1.94592E-007	0.00000E+000	-1.41500E-002	9.79992E-004	5	..........a	-327.66
	22	4.6	-4.20566E-003	2.00999E-007	0.00000E+000	-4.15000E-003	9.80692E-004	5	..........a	-327.66
	23	4.8	5.88784E-003	2.07537E-007	0.00000E+000	5.85000E-003	9.78092E-004	5	..........a	-327.66
	24	5	1.58108E-002	2.14510E-007	0.00000E+000	1.58500E-002	9.85192E-004	5	..........a	-327.66
	25	5.2	2.57815E-002	2.21120E-007	0.00000E+000	2.58500E-002	1.00819E-003	5	..........a	-327.66
	26	5.4	3.58035E-002	2.27966E-007	0.00000E+000	3.58500E-002	9.85192E-004	5	..........a	-327.66
	27	5.6	4.59221E-002	2.35732E-007	0.00000E+000	4.58500E-002	1.00449E-003	5	..........a	-327.66
	28	5.8	5.57852E-002	2.43177E-007	0.00000E+000	5.58500E-002	9.84792E-004	5	..........a	-327.66
	29	6	6.57466E-002	2.50407E-007	0.00000E+000	6.58500E-002	9.83092E-004	5	..........a	-327.66
	30	6.2	7.57754E-002	2.57814E-007	0.00000E+000	7.58500E-002	9.90592E-004	5	..........a	-327.66
	31	6.4	8.58406E-002	2.65889E-007	0.00000E+000	8.58500E-002	9.90292E-004	5	..........a	-327.66
	32	6.6	9.57579E-002	2.74101E-007	0.00000E+000	9.58500E-002	1.01759E-003	5	..........a	-327.66
	33	6.8	1.05764E-001	2.82581E-007	0.00000E+000	1.05850E-001	9.87192E-004	5	..........a	-327.66
	34	7	1.15770E-001	2.92220E-007	0.00000E+000	1.15850E-001	9.98792E-004	5	..........a	-327.66
	35	7.2	1.25884E-001	3.02246E-007	0.00000E+000	1.25850E-001	9.98692E-004	5	..........a	-327.66
	36	7.4	1.35781E-001	3.13430E-007	0.00000E+000	1.35850E-001	9.86492E-004	5	..........a	-327.66
	37	7.6	1.45707E-001	3.32794E-007	0.00000E+000	1.45850E-001	9.93392E-004	5	..........a	-327.66
	38	7.8	1.55732E-001	3.42227E-007	0.00000E+000	1.55850E-001	9.93292E-004	5	..........a	-327.66
	39	8	1.65785E-001	3.51228E-007	0.00000E+000	1.65850E-001	9.83992E-004	5	..........a	-327.66
	40	8.2	1.75714E-001	3.62782E-007	0.00000E+000	1.75850E-001	9.95392E-004	5	..........a	-327.66
	41	8.4	1.85697E-001	3.72197E-007	0.00000E+000	1.85850E-001	9.90892E-004	5	..........a	-327.66
	42	8.6	1.95738E-001	3.80755E-007	0.00000E+000	1.95850E-001	9.93892E-004	5	..........a	-327.66
	43	8.8	2.05753E-001	3.87558E-007	0.00000E+000	2.05850E-001	9.87092E-004	5	..........a	-327.66
	44	9	2.15722E-001	3.93607E-007	0.00000E+000	2.15850E-001	9.94692E-004	5	..........a	-327.66
	45	9.2	2.25642E-001	3.98841E-007	0.00000E+000	2.25850E-001	9.81092E-004	5	..........a	-327.66
	46	9.4	2.35673E-001	4.03500E-007	0.00000E+000	2.35850E-001	9.86392E-004	5	..........a	-327.66
	47	9.6	2.45723E-001	4.07899E-007	0.00000E+000	2.45850E-001	9.83192E-004	5	..........a	-327.66
	48	9.8	2.55629E-001	4.12411E-007	0.00000E+000	2.55850E-001	9.99892E-004	5	..........a	-327.66
	49	10	2.65664E-001	4.15026E-007	0.00000E+000	2.65850E-001	9.90392E-004	5	..........a	-327.66
	50	10.2	2.75627E-001	4.17661E-007	0.00000E+000	2.75850E-001	9.81292E-004	5	..........a	-327.66
	51	10.4	2.85717E-001	4.19903E-007	0.00000E+000	2.85850E-001	9.84392E-004	5	..........a	-327.66
	52	10.6	2.95691E-001	4.22377E-007	0.00000E+000	2.95850E-001	9.91392E-004	5	..........a	-327.66
	53	10.8	3.05614E-001	4.25626E-007	0.00000E+000	3.05850E-001	1.00199E-003	5	..........a	-327.66
	54	11	3.15687E-001	4.27491E-007	0.00000E+000	3.15850E-001	9.79992E-004	5	..........a	-327.66
	55	11.2	3.25780E-001	4.30513E-007	0.00000E+000	3.25850E-001	1.00209E-003	5	..........a	-327.66
	56	11.4	3.35647E-001	4.33876E-007	0.00000E+000	3.35850E-001	9.88392E-004	5	..........a	-327.66
	57	11.6	3.45700E-001	4.37360E-007	0.00000E+000	3.45850E-001	9.81992E-004	5	..........a	-327.66
	58	11.8	3.55655E-001	4.40996E-007	0.00000E+000	3.55850E-001	9.95992E-004	5	..........a	-327.66
	59	12	3.65705E-001	4.46756E-007	0.00000E+000	3.65850E-001	9.80192E-004	5	..........a	-327.66
	60	12.2	3.75628E-001	4.49420E-007	0.00000E+000	3.75850E-001	1.00379E-003	5	..........a	-327.66
	61	12.4	3.85617E-001	4.52125E-007	0.00000E+000	3.85850E-001	9.88592E-004	5	..........a	-327.66
	62	12.6	3.95670E-001	4.56309E-007	0.00000E+000	3.95850E-001	9.87692E-004	5	..........a	-327.66
	63	12.8	4.05720E-001	4.60435E-007	0.00000E+000	4.05850E-001	9.84792E-004	5	..........a	-327.66
	64	13	4.15639E-001	4.62782E-007	0.00000E+000	4.15850E-001	1.01029E-003	5	..........a	-327.66
	65	13.2	4.25578E-001	4.65505E-007	0.00000E+000	4.25850E-001	1.00259E-003	5	..........a	-327.66
	66	13.4	4.35570E-001	4.68233E-007	0.00000E+000	4.35850E-001	9.96992E-004	5	..........a	-327.66
	67	13.6	4.45639E-001	4.71620E-007	0.00000E+000	4.45850E-001	9.96192E-004	5	..........a	-327.66
	68	13.8	4.55611E-001	4.74637E-007	0.00000E+000	4.55850E-001	9.91292E-004	5	..........a	-327.66
	69	14	4.65581E-001	4.79175E-007	0.00000E+000	4.65850E-001	1.00959E-003	5	..........a	-327.66
	70	14.2	4.75561E-001	4.83140E-007	0.00000E+000	4.75850E-001	9.87492E-004	5	..........a	-327.66
	71	14.4	4.85622E-001	4.85750E-007	0.00000E+000	4.85850E-001	9.81992E-004	5	..........a	-327.66
	72	14.6	4.95645E-001	4.90146E-007	0.00000E+000	4.95850E-001	9.84492E-004	5	..........a	-327.66
	73	14.8	5.05534E-001	4.93948E-007	0.00000E+000	5.05850E-001	1.00049E-003	5	..........a	-327.66
	74	15	5.15569E-001	4.99025E-007	0.00000E+000	5.15850E-001	9.92292E-004	5	..........a	-327.66
	75	15.2	5.25703E-001	5.02742E-007	0.00000E+000	5.25850E-001	1.01099E-003	5	..........a	-327.66
	76	15.4	5.35579E-001	5.07451E-007	0.00000E+000	5.35850E-001	9.85292E-004	5	..........a	-327.66
	77	15.6	5.45583E-001	5.12266E-007	0.00000E+000	5.45850E-001	9.89792E-004	5	..........a	-327.66
	78	15.8	5.55575E-001	5.18480E-007	0.00000E+000	5.55850E-001	9.93992E-004	5	..........a	-327.66
	79	16	5.65599E-001	5.25217E-007	0.00000E+000	5.65850E-001	9.96192E-004	5	..........a	-327.66
	80	16.2	5.75624E-001	5.31278E-007	0.00000E+000	5.75850E-001	9.89092E-004	5	..........a	-327.66
	81	16.4	5.85541E-001	5.38859E-007	0.00000E+000	5.85850E-001	9.89592E-004	5	..........a	-327.66
	82	16.6	5.95834E-001	5.51420E-007	0.00000E+000	5.95850E-001	9.80792E-004	6	..........a	-327.66
	83	16.8	6.05944E-001	5.59851E-007	0.00000E+000	6.05850E-001	1.00579E-003	6	..........a	-327.66
	84	17	6.15808E-001	5.66999E-007	0.00000E+000	6.15850E-001	9.84892E-004	6	..........a	-327.66
	85	17.2	6.25794E-001	5.75615E-007	0.00000E+000	6.25850E-001	1.00579E-003	6	..........a	-327.66
	86	17.4	6.35823E-001	5.84361E-007	0.00000E+000	6.35850E-001	9.84592E-004	6	..........a	-327.66
	87	17.6	6.45884E-001	5.93923E-007	0.00000E+000	6.45850E-001	9.91592E-004	6	..........a	-327.66
	88	17.8	6.55795E-001	6.05438E-007	0.00000E+000	6.55850E-001	9.80092E-004	6	..........a	-327.66
	89	18	6.65740E-001	6.14588E-007	0.00000E+000	6.65850E-001	1.00909E-003	6	..........a	-327.66
	90	18.2	6.75802E-001	6.25274E-007	0.00000E+000	6.75850E-001	1.00269E-003	6	..........a	-327.66
	91	18.4	6.85898E-001	6.36318E-007	0.00000E+000	6.85850E-001	9.91392E-004	6	..........a	-327.66
	92	18.6	6.95776E-001	6.50423E-007	0.00000E+000	6.95850E-001	9.88092E-004	6	..........a	-327.66
	93	18.8	7.05819E-001	6.64939E-007	0.00000E+000	7.05850E-001	1.00379E-003	6	..........a	-327.66
	94	19	7.15797E-001	6.76506E-007	0.00000E+000	7.15850E-001	9.85692E-004	6	..........a	-327.66
	95	19.2	7.25863E-001	6.89192E-007	0.00000E+000	7.25850E-001	9.90592E-004	6	..........a	-327.66
	96	19.4	7.35778E-001	7.03323E-007	0.00000E+000	7.35850E-001	9.90292E-004	6	..........a	-327.66
	97	19.6	7.45785E-001	7.20974E-007	0.00000E+000	7.45850E-001	1.01059E-003	6	..........a	-327.66
	98	19.8	7.55836E-001	7.36355E-007	0.00000E+000	7.55850E-001	9.94892E-004	6	..........a	-327.66
	99	20	7.65917E-001	7.55961E-007	0.00000E+000	7.65850E-001	9.99392E-004	6	..........a	-327.66
	100	20.2	7.75790E-001	7.70342E-007	0.00000E+000	7.75850E-001	9.95792E-004	6	..........a	-327.66
	101	20.4	7.85799E-001	7.89750E-007	0.00000E+000	7.85850E-001	1.01449E-003	6	..........a	-327.66
	102	20.6	7.95779E-001	8.07190E-007	0.00000E+000	7.95850E-001	1.00129E-003	6	..........a	-327.66
	103	20.8	7.85778E-001	7.17716E-007	0.00000E+000	7.85850E-001	9.94292E-004	6	..........a	-327.66
	104	21	7.75795E-001	6.52768E-007	0.00000E+000	7.75850E-001	9.68792E-004	6	..........a	-327.66
	105	21.2	7.65914E-001	6.02276E-007	0.00000E+000	7.65850E-001	9.85192E-004	6	..........a	-327.66
	106	21.4	7.55840E-001	5.59491E-007	0.00000E+000	7.55850E-001	9.86792E-004	6	..........a	-327.66
	107	21.6	7.45795E-001	5.18840E-007	0.00000E+000	7.45850E-001	9.93992E-004	6	..........a	-327.66
	108	21.8	7.35811E-001	4.83987E-007	0.00000E+000	7.35850E-001	9.97792E-004	6	..........a	-327.66
	109	22	7.25617E-001	4.47683E-007	0.00000E+000	7.25850E-001	9.76492E-004	5	..........a	-327.66
	110	22.2	7.15563E-001	4.17535E-007	0.00000E+000	7.15850E-001	1.00149E-003	5	..........a	-327.66
	111	22.4	7.05626E-001	3.90757E-007	0.00000E+000	7.05850E-001	9.94692E-004	5	..........a	-327.66
	112	22.6	6.95634E-001	3.64788E-007	0.00000E+000	6.95850E-001	1.00779E-003	5	..........a	-327.66
	113	22.8	6.85711E-001	3.40847E-007	0.00000E+000	6.85850E-001	9.77792E-004	5	..........a	-327.66
	114	23	6.75683E-001	3.18887E-007	0.00000E+000	6.75850E-001	9.93092E-004	5	..........a	-327.66
	115	23.2	6.65624E-001	2.98227E-007	0.00000E+000	6.65850E-001	9.95692E-004	5	..........a	-327.66
	116	23.4	6.55698E-001	2.78777E-007	0.00000E+000	6.55850E-001	1.00549E-003	5	..........a	-327.66
	117	23.6	6.45735E-001	2.60450E-007	0.00000E+000	6.45850E-001	9.77892E-004	5	..........a	-327.66
	118	23.8	6.35696E-001	2.43179E-007	0.00000E+000	6.35850E-001	1.00259E-003	5	..........a	-327.66
	119	24	6.25720E-001	2.27649E-007	0.00000E+000	6.25850E-001	9.92192E-004	5	..........a	-327.66
	120	24.2	6.15713E-001	2.12066E-007	0.00000E+000	6.15850E-001	9.96692E-004	5	..........a	-327.66
	121	24.4	6.05876E-001	1.97206E-007	0.00000E+000	6.05850E-001	9.92192E-004	5	..........a	-327.66
	122	24.6	5.95761E-001	1.83194E-007	0.00000E+000	5.95850E-001	9.93292E-004	5	..........a	-327.66
	123	24.8	5.85729E-001	1.69904E-007	0.00000E+000	5.85850E-001	1.01679E-003	5	..........a	-327.66
	124	25	5.75781E-001	1.57165E-007	0.00000E+000	5.75850E-001	9.93592E-004	5	..........a	-327.66
	125	25.2	5.65875E-001	1.44662E-007	0.00000E+000	5.65850E-001	9.74692E-004	5	..........a	-327.66
	126	25.4	5.55797E-001	1.32568E-007	0.00000E+000	5.55850E-001	9.67792E-004	5	..........a	-327.66
	127	25.6	5.45801E-001	1.21029E-007	0.00000E+000	5.45850E-001	9.90492E-004	5	..........a	-327.66
	128	25.8	5.35797E-001	1.09900E-007	0.00000E+000	5.35850E-001	9.85892E-004	5	..........a	-327.66
	129	26	5.25906E-001	9.99740E-008	0.00000E+000	5.25850E-001	9.90192E-004	5	..........a	-327.66
	130	26.2	5.15821E-001	8.87444E-008	0.00000E+000	5.15850E-001	9.96092E-004	5	..........a	-327.66
	131	26.4	5.05810E-001	7.80851E-008	0.00000E+000	5.05850E-001	9.86992E-004	5	..........a	-327.66
	132	26.6	4.95822E-001	6.76788E-008	0.00000E+000	4.95850E-001	9.96892E-004	5	..........a	-327.66
	133	26.8	4.85919E-001	5.74635E-008	0.00000E+000	4.85850E-001	9.92892E-004	5	..........a	-327.66
	134	27	4.75671E-001	4.73696E-008	0.00000E+000	4.75850E-001	9.96192E-004	5	..........a	-327.66
	135	27.2	4.65823E-001	3.72340E-008	0.00000E+000	4.65850E-001	9.90092E-004	5	..........a	-327.66
	136	27.4	4.55849E-001	2.72881E-008	0.00000E+000	4.55850E-001	1.00909E-003	5	..........a	-327.66
	137	27.6	4.45917E-001	1.74933E-008	0.00000E+000	4.45850E-001	9.76892E-004	5	..........a	-327.66
	138	27.8	4.35837E-001	8.00581E-009	0.00000E+000	4.35850E-001	9.96192E-004	5	..........a	-327.66
	139	28	4.25855E-001	-1.32714E-009	0.00000E+000	4.25850E-001	9.95692E-004	5	..........a	-327.66
	140	28.2	4.15871E-001	-1.04228E-008	0.00000E+000	4.15850E-001	1.00659E-003	5	..........a	-327.66
	141	28.4	4.05970E-001	-1.94067E-008	0.00000E+000	4.05850E-001	1.00989E-003	5	..........a	-327.66
	142	28.6	3.95896E-001	-2.83118E-008	0.00000E+000	3.95850E-001	9.84492E-004	5	..........a	-327.66
	143	28.8	3.85886E-001	-3.68031E-008	0.00000E+000	3.85850E-001	9.90092E-004	5	..........a	-327.66
	144	29	3.75900E-001	-4.52905E-008	0.00000E+000	3.75850E-001	1.00639E-003	5	..........a	-327.66
	145	29.2	3.65973E-001	-5.35178E-008	0.00000E+000	3.65850E-001	9.76692E-004	5	..........a	-327.66
	146	29.4	3.55930E-001	-6.16681E-008	0.00000E+000	3.55850E-001	9.80392E-004	5	..........a	-327.66
	147	29.6	3.45980E-001	-6.96165E-008	0.00000E+000	3.45850E-001	9.77792E-004	5	..........a	-327.66
	148	29.8	3.35906E-001	-7.73154E-008	0.00000E+000	3.35850E-001	9.79192E-004	5	..........a	-327.66
	149	30	3.25979E-001	-8.47848E-008	0.00000E+000	3.25850E-001	9.97892E-004	5	..........a	-327.66
	150	30.2	3.15952E-001	-9.20377E-008	0.00000E+000	3.15850E-001	9.90192E-004	5	..........a	-327.66
	151	30.4	3.05928E-001	-9.91912E-008	0.00000E+000	3.05850E-001	9.79192E-004	5	..........a	-327.66
	152	30.6	2.95943E-001	-1.06125E-007	0.00000E+000	2.95850E-001	9.78092E-004	5	..........a	-327.66
	153	30.8	2.85973E-001	-1.12816E-007	0.00000E+000	2.85850E-001	1.00229E-003	5	..........a	-327.66
	154	31	2.75951E-001	-1.19400E-007	0.00000E+000	2.75850E-001	1.00219E-003	5	..........a	-327.66
	155	31.2	2.65956E-001	-1.25800E-007	0.00000E+000	2.65850E-001	9.74892E-004	5	..........a	-327.66
	156	31.4	2.55918E-001	-1.32107E-007	0.00000E+000	2.55850E-001	9.84692E-004	5	..........a	-327.66
	157	31.6	2.45996E-001	-1.38437E-007	0.00000E+000	2.45850E-001	9.90292E-004	5	..........a	-327.66
	158	31.8	2.35956E-001	-1.44570E-007	0.00000E+000	2.35850E-001	9.88092E-004	5	..........a	-327.66
	159	32	2.25946E-001	-1.50487E-007	0.00000E+000	2.25850E-001	9.79992E-004	5	..........a	-327.66
	160	32.2	2.15971E-001	-1.56363E-007	0.00000E+000	2.15850E-001	9.96592E-004	5	..........a	-327.66
	161	32.4	2.05996E-001	-1.62274E-007	0.00000E+000	2.05850E-001	9.85492E-004	5	..........a	-327.66
	162	32.6	1.96066E-001	-1.68200E-007	0.00000E+000	1.95850E-001	9.69092E-004	5	..........a	-327.66
	163	32.8	1.86006E-001	-1.74438E-007	0.00000E+000	1.85850E-001	9.86392E-004	5	..........a	-327.66
	164	33	1.75973E-001	-1.80766E-007	0.00000E+000	1.75850E-001	9.89092E-004	5	..........a	-327.66
	165	33.2	1.66063E-001	-1.87263E-007	0.00000E+000	1.65850E-001	9.95092E-004	5	..........a	-327.66
	166	33.4	1.56048E-001	-1.94155E-007	0.00000E+000	1.55850E-001	9.64692E-004	5	..........a	-327.66
	167	33.6	1.46005E-001	-2.01148E-007	0.00000E+000	1.45850E-001	1.00069E-003	5	..........a	-327.66
	168	33.8	1.36032E-001	-2.08245E-007	0.00000E+000	1.35850E-001	1.00009E-003	5	..........a	-327.66
	169	34	1.26035E-001	-2.10241E-007	0.00000E+000	1.25850E-001	9.78892E-004	5	..........a	-327.66
	170	34.2	1.16151E-001	-2.22583E-007	0.00000E+000	1.15850E-001	9.73592E-004	5	..........a	-327.66
	171	34.4	1.06021E-001	-2.30080E-007	0.00000E+000	1.05850E-001	9.99192E-004	5	..........a	-327.66
	172	34.6	9.59703E-002	-2.37265E-007	0.00000E+000	9.58500E-002	1.01339E-003	5	..........a	-327.66
	173	34.8	8.60794E-002	-2.43081E-007	0.00000E+000	8.58500E-002	9.90792E-004	5	..........a	-327.66
	174	35	7.60837E-002	-2.48178E-007	0.00000E+000	7.58500E-002	9.80592E-004	5	..........a	-327.66
	175	35.2	6.59284E-002	-2.52340E-007	0.00000E+000	6.58500E-002	9.72492E-004	5	..........a	-327.66
	176	35.4	5.60179E-002	-2.55793E-007	0.00000E+000	5.58500E-002	9.94292E-004	5	..........a	-327.66
	177	35.6	4.60542E-002	-2.58706E-007	0.00000E+000	4.58500E-002	9.87492E-004	5	..........a	-327.66
	178	35.8	3.60943E-002	-2.60747E-007	0.00000E+000	3.58500E-002	9.83292E-004	5	..........a	-327.66
	179	36	2.60106E-002	-2.64117E-007	0.00000E+000	2.58500E-002	9.94592E-004	5	..........a	-327.66
	180	36.2	1.60226E-002	-2.67631E-007	0.00000E+000	1.58500E-002	9.76892E-004	5	..........a	-327.66
	181	36.4	6.09074E-003	-2.71156E-007	0.00000E+000	5.85000E-003	9.84992E-004	5	..........a	-327.66
	182	36.6	-3.91711E-003	-2.74677E-007	0.00000E+000	-4.15000E-003	9.79692E-004	5	..........a	-327.66
	183	36.8	-1.39247E-002	-2.78055E-007	0.00000E+000	-1.41500E-002	9.92992E-004	5	..........a	-327.66
	184	37	-2.39677E-002	-2.81186E-007	0.00000E+000	-2.41500E-002	9.77392E-004	5	..........a	-327.66
	185	37.2	-3.39648E-002	-2.83061E-007	0.00000E+000	-3.41500E-002	9.79992E-004	5	..........a	-327.66
	186	37.4	-4.39135E-002	-2.86805E-007	0.00000E+000	-4.41500E-002	9.77692E-004	5	..........a	-327.66
	187	37.6	-5.39385E-002	-2.89407E-007	0.00000E+000	-5.41500E-002	1.00189E-003	5	..........a	-327.66
	188	37.8	-6.39042E-002	-2.91173E-007	0.00000E+000	-6.41500E-002	9.74392E-004	5	..........a	-327.66
	189	38	-7.39197E-002	-2.94676E-007	0.00000E+000	-7.41500E-002	9.95292E-004	5	..........a	-327.66
	190	38.2	-8.38632E-002	-2.97959E-007	0.00000E+000	-8.41500E-002	9.82292E-004	5	..........a	-327.66
	191	38.4	-9.39096E-002	-3.00092E-007	0.00000E+000	-9.41500E-002	9.84292E-004	5	..........a	-327.66
	192	38.6	-1.03982E-001	-3.03092E-007	0.00000E+000	-1.04150E-001	9.82492E-004	5	..........a	-327.66
	193	38.8	-1.13908E-001	-3.05257E-007	0.00000E+000	-1.14150E-001	9.94392E-004	5	..........a	-327.66
	194	39	-1.23910E-001	-3.07334E-007	0.00000E+000	-1.24150E-001	9.82892E-004	5	..........a	-327.66
	195	39.2	-1.33970E-001	-3.09356E-007	0.00000E+000	-1.34150E-001	9.84792E-004	5	..........a	-327.66
	196	39.4	-1.43933E-001	-3.11466E-007	0.00000E+000	-1.44150E-001	9.76192E-004	5	..........a	-327.66
	197	39.6	-1.53936E-001	-3.08822E-007	0.00000E+000	-1.54150E-001	9.96892E-004	5	..........a	-327.66
	198	39.8	-1.63891E-001	-3.15402E-007	0.00000E+000	-1.64150E-001	9.89892E-004	5	..........a	-327.66
	199	40	-1.73948E-001	-3.17775E-007	0.00000E+000	-1.74150E-001	9.72792E-004	5	..........a	-327.66
	200	40.2	-1.83973E-001	-3.19818E-007	0.00000E+000	-1.84150E-001	9.94692E-004	5	..........a	-327.66
	201	40.4	-1.93894E-001	-3.21855E-007	0.00000E+000	-1.94150E-001	9.76592E-004	5	..........a	-327.66
	202	40.6	-2.03915E-001	-3.23942E-007	0.00000E+000	-2.04150E-001	9.89392E-004	5	..........a	-327.66
	203	40.8	-2.13901E-001	-3.25817E-007	0.00000E+000	-2.14150E-001	9.85392E-004	5	..........a	-327.66
	204	41	-2.23907E-001	-3.27928E-007	0.00000E+000	-2.24150E-001	9.93292E-004	5	..........a	-327.66
	205	41.2	-2.33890E-001	-3.29873E-007	0.00000E+000	-2.34150E-001	9.90792E-004	5	..........a	-327.66
	206	41.4	-2.43865E-001	-3.32154E-007	0.00000E+000	-2.44150E-001	9.65692E-004	5	..........a	-327.66
	207	41.6	-2.53891E-001	-3.33253E-007	0.00000E+000	-2.54150E-001	1.00269E-003	5	..........a	-327.66
	208	41.8	-2.63884E-001	-3.35410E-007	0.00000E+000	-2.64150E-001	9.83492E-004	5	..........a	-327.66
	209	42	-2.73855E-001	-3.37421E-007	0.00000E+000	-2.74150E-001	9.82592E-004	5	..........a	-327.66
	210	42.2	-2.83800E-001	-3.39026E-007	0.00000E+000	-2.84150E-001	9.90392E-004	5	..........a	-327.66
	211	42.4	-2.93892E-001	-3.41338E-007	0.00000E+000	-2.94150E-001	9.85092E-004	5	..........a	-327.66
	212	42.6	-3.03901E-001	-3.43377E-007	0.00000E+000	-3.04150E-001	9.89392E-004	5	..........a	-327.66
	213	42.8	-3.13894E-001	-3.45714E-007	0.00000E+000	-3.14150E-001	9.84292E-004	5	..........a	-327.66
	214	43	-3.23839E-001	-3.48034E-007	0.00000E+000	-3.24150E-001	9.79692E-004	5	..........a	-327.66
	215	43.2	-3.33886E-001	-3.50638E-007	0.00000E+000	-3.34150E-001	9.84392E-004	5	..........a	-327.66
	216	43.4	-3.43828E-001	-3.53118E-007	0.00000E+000	-3.44150E-001	9.88992E-004	5	..........a	-327.66
	217	43.6	-3.53877E-001	-3.55486E-007	0.00000E+000	-3.54150E-001	9.91992E-004	5	..........a	-327.66
	218	43.8	-3.63776E-001	-3.57967E-007	0.00000E+000	-3.64150E-001	9.87492E-004	5	..........a	-327.66
	219	44	-3.73851E-001	-3.60321E-007	0.00000E+000	-3.74150E-001	9.96392E-004	5	..........a	-327.66
	220	44.2	-3.83928E-001	-3.62606E-007	0.00000E+000	-3.84150E-001	1.00229E-003	5	..........a	-327.66
	221	44.4	-3.93850E-001	-3.64851E-007	0.00000E+000	-3.94150E-001	9.81692E-004	5	..........a	-327.66
	222	44.6	-4.03830E-001	-3.66808E-007	0.00000E+000	-4.04150E-001	9.91792E-004	5	..........a	-327.66
	223	44.8	-4.13849E-001	-3.68778E-007	0.00000E+000	-4.14150E-001	9.88892E-004	5	..........a	-327.66
	224	45	-4.23820E-001	-3.71622E-007	0.00000E+000	-4.24150E-001	9.85392E-004	5	..........a	-327.66
	225	45.2	-4.33839E-001	-3.73182E-007	0.00000E+000	-4.34150E-001	9.82892E-004	5	..........a	-327.66
	226	45.4	-4.43749E-001	-3.74331E-007	0.00000E+000	-4.44150E-001	9.72792E-004	5	..........a	-327.66
	227	45.6	-4.53841E-001	-3.75298E-007	0.00000E+000	-4.54150E-001	9.87192E-004	5	..........a	-327.66
	228	45.8	-4.63825E-001	-3.76294E-007	0.00000E+000	-4.64150E-001	9.80292E-004	5	..........a	-327.66
	229	46	-4.73832E-001	-3.77301E-007	0.00000E+000	-4.74150E-001	9.84492E-004	5	..........a	-327.66
	230	46.2	-4.83760E-001	-3.77958E-007	0.00000E+000	-4.84150E-001	9.81992E-004	5	..........a	-327.66
	231	46.4	-4.93831E-001	-3.78524E-007	0.00000E+000	-4.94150E-001	9.87992E-004	5	..........a	-327.66
	232	46.6	-5.03829E-001	-3.78613E-007	0.00000E+000	-5.04150E-001	9.75492E-004	5	..........a	-327.66
	233	46.8	-5.13850E-001	-3.79678E-007	0.00000E+000	-5.14150E-001	9.89992E-004	5	..........a	-327.66
	234	47	-5.23761E-001	-3.80294E-007	0.00000E+000	-5.24150E-001	9.74092E-004	5	..........a	-327.66
	235	47.2	-5.33839E-001	-3.80943E-007	0.00000E+000	-5.34150E-001	9.81092E-004	5	..........a	-327.66
	236	47.4	-5.43858E-001	-3.81684E-007	0.00000E+000	-5.44150E-001	9.95592E-004	5	..........a	-327.66
	237	47.6	-5.53826E-001	-3.82529E-007	0.00000E+000	-5.54150E-001	9.81092E-004	5	..........a	-327.66
	238	47.8	-5.63750E-001	-3.86102E-007	0.00000E+000	-5.64150E-001	9.93692E-004	5	..........a	-327.66
	239	48	-5.73890E-001	-3.86355E-007	0.00000E+000	-5.74150E-001	9.77492E-004	5	..........a	-327.66
	240	48.2	-5.83852E-001	-3.86770E-007	0.00000E+000	-5.84150E-001	9.85892E-004	5	..........a	-327.66
	241	48.4	-5.93847E-001	-3.88039E-007	0.00000E+000	-5.94150E-001	9.90892E-004	5	..........a	-327.66
	242	48.6	-6.03794E-001	-3.88857E-007	0.00000E+000	-6.04150E-001	9.77692E-004	5	..........a	-327.66
CURVE2	TABLE
	Pt	T	Vf	Im	Vu	Sig	Ach	IERange	Over	Temp
	#	s	V vs. Ref.	A	V	V	V	#	bits	deg C
	243	48.8	-5.89736E-001	-3.08295E-007	0.00000E+000	-5.90000E-001	9.83892E-004	5	..........a	-327.66
	244	49	-5.79702E-001	-2.69329E-007	0.00000E+000	-5.80000E-001	9.79892E-004	5	..........a	-327.66
	245	49.2	-5.69774E-001	-2.37461E-007	0.00000E+000	-5.70000E-001	9.97092E-004	5	..........a	-327.66
	246	49.4	-5.59772E-001	-2.10655E-007	0.00000E+000	-5.60000E-001	9.85592E-004	5	..........a	-327.66
	247	49.6	-5.49782E-001	-1.87468E-007	0.00000E+000	-5.50000E-001	9.79692E-004	5	..........a	-327.66
	248	49.8	-5.39707E-001	-1.66929E-007	0.00000E+000	-5.40000E-001	9.87992E-004	5	..........a	-327.66
	249	50	-5.29804E-001	-1.48668E-007	0.00000E+000	-5.30000E-001	9.98792E-004	5	..........a	-327.66
	250	50.2	-5.19805E-001	-1.32173E-007	0.00000E+000	-5.20000E-001	9.96492E-004	5	..........a	-327.66
	251	50.4	-5.09809E-001	-1.17004E-007	0.00000E+000	-5.10000E-001	1.00109E-003	5	..........a	-327.66
	252	50.6	-4.99792E-001	-1.03142E-007	0.00000E+000	-5.00000E-001	9.75392E-004	5	..........a	-327.66
	253	50.8	-4.89820E-001	-9.01329E-008	0.00000E+000	-4.90000E-001	9.88592E-004	5	..........a	-327.66
	254	51	-4.79841E-001	-7.80295E-008	0.00000E+000	-4.80000E-001	9.79792E-004	5	..........a	-327.66
	255	51.2	-4.69819E-001	-6.66386E-008	0.00000E+000	-4.70000E-001	9.78292E-004	5	..........a	-327.66
	256	51.4	-4.59779E-001	-5.59378E-008	0.00000E+000	-4.60000E-001	9.83292E-004	5	..........a	-327.66
	257	51.6	-4.49837E-001	-4.58141E-008	0.00000E+000	-4.50000E-001	9.73692E-004	5	..........a	-327.66
	258	51.8	-4.39858E-001	-3.62067E-008	0.00000E+000	-4.40000E-001	9.76492E-004	5	..........a	-327.66
	259	52	-4.29852E-001	-2.74058E-008	0.00000E+000	-4.30000E-001	9.85992E-004	5	..........a	-327.66
	260	52.2	-4.19800E-001	-1.85595E-008	0.00000E+000	-4.20000E-001	9.69592E-004	5	..........a	-327.66
	261	52.4	-4.09869E-001	-1.00266E-008	0.00000E+000	-4.10000E-001	9.85592E-004	5	..........a	-327.66
	262	52.6	-3.99879E-001	-1.88239E-009	0.00000E+000	-4.00000E-001	9.78992E-004	5	..........a	-327.66
	263	52.8	-3.89959E-001	5.98535E-009	0.00000E+000	-3.90000E-001	1.00399E-003	5	..........a	-327.66
	264	53	-3.79865E-001	1.33525E-008	0.00000E+000	-3.80000E-001	9.93992E-004	5	..........a	-327.66
	265	53.2	-3.69894E-001	2.02996E-008	0.00000E+000	-3.70000E-001	9.81892E-004	5	..........a	-327.66
	266	53.4	-3.59951E-001	2.75829E-008	0.00000E+000	-3.60000E-001	9.86192E-004	5	..........a	-327.66
	267	53.6	-3.49905E-001	3.46485E-008	0.00000E+000	-3.50000E-001	1.00509E-003	5	..........a	-327.66
	268	53.8	-3.39860E-001	4.14230E-008	0.00000E+000	-3.40000E-001	9.82192E-004	5	..........a	-327.66
	269	54	-3.29948E-001	4.80337E-008	0.00000E+000	-3.30000E-001	9.80592E-004	5	..........a	-327.66
	270	54.2	-3.19907E-001	5.36058E-008	0.00000E+000	-3.20000E-001	9.77492E-004	5	..........a	-327.66
	271	54.4	-3.09947E-001	6.02292E-008	0.00000E+000	-3.10000E-001	9.95092E-004	5	..........a	-327.66
	272	54.6	-2.99894E-001	6.66405E-008	0.00000E+000	-3.00000E-001	9.82692E-004	5	..........a	-327.66
	273	54.8	-2.89934E-001	7.29748E-008	0.00000E+000	-2.90000E-001	9.80292E-004	5	..........a	-327.66
	274	55	-2.79954E-001	7.90218E-008	0.00000E+000	-2.80000E-001	9.97592E-004	5	..........a	-327.66
	275	55.2	-2.69912E-001	8.53842E-008	0.00000E+000	-2.70000E-001	9.79292E-004	5	..........a	-327.66
	276	55.4	-2.59881E-001	9.15962E-008	0.00000E+000	-2.60000E-001	9.85592E-004	5	..........a	-327.66
	277	55.6	-2.49927E-001	9.76189E-008	0.00000E+000	-2.50000E-001	1.00189E-003	5	..........a	-327.66
	278	55.8	-2.39991E-001	1.03470E-007	0.00000E+000	-2.40000E-001	9.92692E-004	5	..........a	-327.66
	279	56	-2.30000E-001	1.09451E-007	0.00000E+000	-2.30000E-001	9.96492E-004	5	..........a	-327.66
	280	56.2	-2.19939E-001	1.15498E-007	0.00000E+000	-2.20000E-001	9.99992E-004	5	..........a	-327.66
	281	56.4	-2.09966E-001	1.21462E-007	0.00000E+000	-2.10000E-001	1.01039E-003	5	..........a	-327.66
	282	56.6	-2.00034E-001	1.27151E-007	0.00000E+000	-2.00000E-001	9.82092E-004	5	..........a	-327.66
	283	56.8	-1.90083E-001	1.33108E-007	0.00000E+000	-1.90000E-001	9.75892E-004	5	..........a	-327.66
	284	57	-1.80007E-001	1.38774E-007	0.00000E+000	-1.80000E-001	9.78592E-004	5	..........a	-327.66
	285	57.2	-1.69964E-001	1.44505E-007	0.00000E+000	-1.70000E-001	9.90592E-004	5	..........a	-327.66
	286	57.4	-1.60048E-001	1.50767E-007	0.00000E+000	-1.60000E-001	9.76492E-004	5	..........a	-327.66
	287	57.6	-1.50038E-001	1.56640E-007	0.00000E+000	-1.50000E-001	9.93092E-004	5	..........a	-327.66
	288	57.8	-1.40006E-001	1.62396E-007	0.00000E+000	-1.40000E-001	9.80192E-004	5	..........a	-327.66
	289	58	-1.30016E-001	1.68246E-007	0.00000E+000	-1.30000E-001	1.00799E-003	5	..........a	-327.66
	290	58.2	-1.20038E-001	1.73970E-007	0.00000E+000	-1.20000E-001	9.95092E-004	5	..........a	-327.66
	291	58.4	-1.10050E-001	1.79716E-007	0.00000E+000	-1.10000E-001	9.96692E-004	5	..........a	-327.66
	292	58.6	-1.00028E-001	1.86029E-007	0.00000E+000	-1.00000E-001	9.86492E-004	5	..........a	-327.66
	293	58.8	-8.99970E-002	1.92011E-007	0.00000E+000	-9.00000E-002	9.98292E-004	5	..........a	-327.66
	294	59	-8.00629E-002	1.97945E-007	0.00000E+000	-8.00000E-002	9.92692E-004	5	..........a	-327.66
	295	59.2	-7.00381E-002	2.03496E-007	0.00000E+000	-7.00000E-002	1.00349E-003	5	..........a	-327.66
	296	59.4	-6.00290E-002	2.09477E-007	0.00000E+000	-6.00000E-002	9.73292E-004	5	..........a	-327.66
	297	59.6	-4.99996E-002	2.15288E-007	0.00000E+000	-5.00000E-002	9.87892E-004	5	..........a	-327.66
	298	59.8	-4.00667E-002	2.21272E-007	0.00000E+000	-4.00000E-002	9.83492E-004	5	..........a	-327.66
	299	60	-3.00521E-002	2.27155E-007	0.00000E+000	-3.00000E-002	9.93692E-004	5	..........a	-327.66
	300	60.2	-2.00618E-002	2.33167E-007	0.00000E+000	-2.00000E-002	9.82492E-004	5	..........a	-327.66
	301	60.4	-9.97081E-003	2.39479E-007	0.00000E+000	-1.00000E-002	9.95392E-004	5	..........a	-327.66
	302	60.6	-9.32083E-005	2.45463E-007	0.00000E+000	7.45058E-009	1.00369E-003	5	..........a	-327.66
	303	60.8	9.95849E-003	2.51623E-007	0.00000E+000	1.00000E-002	9.88192E-004	5	..........a	-327.66
	304	61	1.99632E-002	2.57677E-007	0.00000E+000	2.00000E-002	9.87492E-004	5	..........a	-327.66
	305	61.2	2.99659E-002	2.64121E-007	0.00000E+000	3.00000E-002	9.84792E-004	5	..........a	-327.66
	306	61.4	3.99205E-002	2.70670E-007	0.00000E+000	4.00000E-002	9.82792E-004	5	..........a	-327.66
	307	61.6	4.99157E-002	2.77373E-007	0.00000E+000	5.00000E-002	1.00529E-003	5	..........a	-327.66
	308	61.8	5.99358E-002	2.84209E-007	0.00000E+000	6.00000E-002	9.87392E-004	5	..........a	-327.66
	309	62	6.99450E-002	2.91331E-007	0.00000E+000	7.00000E-002	1.00819E-003	5	..........a	-327.66
	310	62.2	7.99066E-002	2.98237E-007	0.00000E+000	8.00000E-002	1.00109E-003	5	..........a	-327.66
	311	62.4	8.99587E-002	3.05548E-007	0.00000E+000	9.00000E-002	9.86392E-004	5	..........a	-327.66
	312	62.6	9.99021E-002	3.12895E-007	0.00000E+000	1.00000E-001	9.82092E-004	5	..........a	-327.66
	313	62.8	1.09978E-001	3.20475E-007	0.00000E+000	1.10000E-001	9.98692E-004	5	..........a	-327.66
	314	63	1.19880E-001	3.28337E-007	0.00000E+000	1.20000E-001	1.00089E-003	5	..........a	-327.66
	315	63.2	1.29863E-001	3.36374E-007	0.00000E+000	1.30000E-001	9.99192E-004	5	..........a	-327.66
	316	63.4	1.39915E-001	3.44736E-007	0.00000E+000	1.40000E-001	9.83592E-004	5	..........a	-327.66
	317	63.6	1.49945E-001	3.53214E-007	0.00000E+000	1.50000E-001	1.00519E-003	5	..........a	-327.66
	318	63.8	1.59879E-001	3.61859E-007	0.00000E+000	1.60000E-001	9.88692E-004	5	..........a	-327.66
	319	64	1.69884E-001	3.70889E-007	0.00000E+000	1.70000E-001	9.94592E-004	5	..........a	-327.66
	320	64.2	1.79859E-001	3.79468E-007	0.00000E+000	1.80000E-001	9.91992E-004	5	..........a	-327.66
	321	64.4	1.89925E-001	3.88161E-007	0.00000E+000	1.90000E-001	9.86992E-004	5	..........a	-327.66
	322	64.6	1.99857E-001	3.94554E-007	0.00000E+000	2.00000E-001	1.00059E-003	5	..........a	-327.66
	323	64.8	2.09824E-001	3.99001E-007	0.00000E+000	2.10000E-001	9.80692E-004	5	..........a	-327.66
	324	65	2.19754E-001	4.02388E-007	0.00000E+000	2.20000E-001	9.78592E-004	5	..........a	-327.66
	325	65.2	2.29923E-001	4.06978E-007	0.00000E+000	2.30000E-001	9.86992E-004	5	..........a	-327.66
	326	65.4	2.39833E-001	4.15387E-007	0.00000E+000	2.40000E-001	9.77192E-004	5	..........a	-327.66
	327	65.6	2.49799E-001	4.13941E-007	0.00000E+000	2.50000E-001	9.79992E-004	5	..........a	-327.66
	328	65.8	2.59824E-001	4.14115E-007	0.00000E+000	2.60000E-001	9.98092E-004	5	..........a	-327.66
	329	66	2.69921E-001	4.14800E-007	0.00000E+000	2.70000E-001	9.70692E-004	5	..........a	-327.66
	330	66.2	2.79805E-001	4.15905E-007	0.00000E+000	2.80000E-001	9.94592E-004	5	..........a	-327.66
	331	66.4	2.89823E-001	4.18845E-007	0.00000E+000	2.90000E-001	9.90892E-004	5	..........a	-327.66
	332	66.6	2.99828E-001	4.19675E-007	0.00000E+000	3.00000E-001	9.92992E-004	5	..........a	-327.66
	333	66.8	3.09919E-001	4.20858E-007	0.00000E+000	3.10000E-001	9.87692E-004	5	..........a	-327.66
	334	67	3.19821E-001	4.22304E-007	0.00000E+000	3.20000E-001	9.83492E-004	5	..........a	-327.66
	335	67.2	3.29823E-001	4.24250E-007	0.00000E+000	3.30000E-001	9.85092E-004	5	..........a	-327.66
	336	67.4	3.39841E-001	4.26408E-007	0.00000E+000	3.40000E-001	9.88292E-004	5	..........a	-327.66
	337	67.6	3.49927E-001	4.28844E-007	0.00000E+000	3.50000E-001	9.96592E-004	5	..........a	-327.66
	338	67.8	3.59818E-001	4.31542E-007	0.00000E+000	3.60000E-001	9.87792E-004	5	..........a	-327.66
	339	68	3.69826E-001	4.34268E-007	0.00000E+000	3.70000E-001	9.92192E-004	5	..........a	-327.66
	340	68.2	3.79821E-001	4.37620E-007	0.00000E+000	3.80000E-001	9.75692E-004	5	..........a	-327.66
	341	68.4	3.89890E-001	4.44573E-007	0.00000E+000	3.90000E-001	9.85092E-004	5	..........a	-327.66
	342	68.6	3.99813E-001	4.45989E-007	0.00000E+000	4.00000E-001	9.94692E-004	5	..........a	-327.66
	343	68.8	4.09793E-001	4.50297E-007	0.00000E+000	4.10000E-001	9.91092E-004	5	..........a	-327.66
	344	69	4.19789E-001	4.52601E-007	0.00000E+000	4.20000E-001	9.90292E-004	5	..........a	-327.66
	345	69.2	4.29892E-001	4.54976E-007	0.00000E+000	4.30000E-001	9.87292E-004	5	..........a	-327.66
	346	69.4	4.39768E-001	4.55469E-007	0.00000E+000	4.40000E-001	1.00349E-003	5	..........a	-327.66
	347	69.6	4.49798E-001	4.57336E-007	0.00000E+000	4.50000E-001	9.78792E-004	5	..........a	-327.66
	348	69.8	4.59779E-001	4.65687E-007	0.00000E+000	4.60000E-001	1.00419E-003	5	..........a	-327.66
	349	70	4.69829E-001	4.68328E-007	0.00000E+000	4.70000E-001	9.84792E-004	5	..........a	-327.66
	350	70.2	4.79744E-001	4.68985E-007	0.00000E+000	4.80000E-001	1.00009E-003	5	..........a	-327.66
	351	70.4	4.89743E-001	4.70218E-007	0.00000E+000	4.90000E-001	9.81592E-004	5	..........a	-327.66
	352	70.6	4.99778E-001	4.73198E-007	0.00000E+000	5.00000E-001	9.95792E-004	5	..........a	-327.66
	353	70.8	5.09858E-001	4.77264E-007	0.00000E+000	5.10000E-001	9.84592E-004	5	..........a	-327.66
	354	71	5.19781E-001	4.80504E-007	0.00000E+000	5.20000E-001	9.85792E-004	5	..........a	-327.66
[...]
	922	184.6	5.99766E-001	5.01186E-007	0.00000E+000	6.00000E-001	9.94792E-004	5	..........a	-327.66
	923	184.8	6.09744E-001	5.07151E-007	0.00000E+000	6.10000E-001	9.94192E-004	5	..........a	-327.66
	924	185	6.19700E-001	5.14535E-007	0.00000E+000	6.20000E-001	1.00609E-003	5	..........a	-327.66
	925	185.2	6.29777E-001	5.22705E-007	0.00000E+000	6.30000E-001	9.82692E-004	5	..........a	-327.66
	926	185.4	6.39668E-001	5.29216E-007	0.00000E+000	6.40000E-001	1.01369E-003	5	..........a	-327.66
	927	185.6	6.49713E-001	5.36151E-007	0.00000E+000	6.50000E-001	1.00899E-003	5	..........a	-327.66
	928	185.8	6.59972E-001	5.45889E-007	0.00000E+000	6.60000E-001	1.01399E-003	6	..........a	-327.66
	929	186	6.69990E-001	5.54759E-007	0.00000E+000	6.70000E-001	1.00849E-003	6	..........a	-327.66
	930	186.2	6.79957E-001	5.64250E-007	0.00000E+000	6.80000E-001	9.95292E-004	6	..........a	-327.66
	931	186.4	6.89929E-001	5.74837E-007	0.00000E+000	6.90000E-001	1.00729E-003	6	..........a	-327.66
	932	186.6	6.99963E-001	5.86491E-007	0.00000E+000	7.00000E-001	9.94992E-004	6	..........a	-327.66
	933	186.8	7.09987E-001	5.99869E-007	0.00000E+000	7.10000E-001	9.91192E-004	6	..........a	-327.66
	934	187	7.19933E-001	6.16501E-007	0.00000E+000	7.20000E-001	1.00239E-003	6	..........a	-327.66
	935	187.2	7.29941E-001	6.26620E-007	0.00000E+000	7.30000E-001	1.00209E-003	6	..........a	-327.66
	936	187.4	7.39962E-001	6.38932E-007	0.00000E+000	7.40000E-001	9.91692E-004	6	..........a	-327.66
	937	187.6	7.50003E-001	6.54738E-007	0.00000E+000	7.50000E-001	9.93992E-004	6	..........a	-327.66
	938	187.8	7.59944E-001	6.70474E-007	0.00000E+000	7.60000E-001	1.01199E-003	6	..........a	-327.66
	939	188	7.69942E-001	6.87380E-007	0.00000E+000	7.70000E-001	1.01279E-003	6	..........a	-327.66
	940	188.2	7.79945E-001	7.05336E-007	0.00000E+000	7.80000E-001	9.89692E-004	6	..........a	-327.66
	941	188.4	7.89989E-001	7.25483E-007	0.00000E+000	7.90000E-001	9.97892E-004	6	..........a	-327.66
	942	188.6	7.99908E-001	7.46575E-007	0.00000E+000	8.00000E-001	9.99192E-004	6	..........a	-327.66
	943	188.8	7.89990E-001	6.62603E-007	0.00000E+000	7.90000E-001	9.79892E-004	6	..........a	-327.66
	944	189	7.79964E-001	6.05489E-007	0.00000E+000	7.80000E-001	1.00099E-003	6	..........a	-327.66
	945	189.2	7.69961E-001	5.55564E-007	0.00000E+000	7.70000E-001	1.01249E-003	6	..........a	-327.66
	946	189.4	7.59935E-001	5.13890E-007	0.00000E+000	7.60000E-001	9.92492E-004	6	..........a	-327.66
	947	189.6	7.50037E-001	4.76562E-007	0.00000E+000	7.50000E-001	1.02469E-003	6	..........a	-327.66
	948	189.8	7.39760E-001	4.41136E-007	0.00000E+000	7.40000E-001	9.76592E-004	5	..........a	-327.66
	949	190	7.29755E-001	4.11413E-007	0.00000E+000	7.30000E-001	9.79692E-004	5	..........a	-327.66
	950	190.2	7.19777E-001	3.84625E-007	0.00000E+000	7.20000E-001	1.00039E-003	5	..........a	-327.66
	951	190.4	7.09890E-001	3.59356E-007	0.00000E+000	7.10000E-001	9.89692E-004	5	..........a	-327.66
	952	190.6	6.99804E-001	3.35883E-007	0.00000E+000	7.00000E-001	9.77392E-004	5	..........a	-327.66
	953	190.8	6.89806E-001	3.13435E-007	0.00000E+000	6.90000E-001	1.00259E-003	5	..........a	-327.66
	954	191	6.79836E-001	2.92525E-007	0.00000E+000	6.80000E-001	9.67792E-004	5	..........a	-327.66
	955	191.2	6.69909E-001	2.72926E-007	0.00000E+000	6.70000E-001	1.00249E-003	5	..........a	-327.66
	956	191.4	6.59845E-001	2.54396E-007	0.00000E+000	6.60000E-001	9.98592E-004	5	..........a	-327.66
	957	191.6	6.49863E-001	2.37130E-007	0.00000E+000	6.50000E-001	9.86992E-004	5	..........a	-327.66
	958	191.8	6.39847E-001	2.20909E-007	0.00000E+000	6.40000E-001	1.00509E-003	5	..........a	-327.66
	959	192	6.29971E-001	2.04742E-007	0.00000E+000	6.30000E-001	9.87892E-004	5	..........a	-327.66
	960	192.2	6.19877E-001	1.89745E-007	0.00000E+000	6.20000E-001	9.97492E-004	5	..........a	-327.66
	961	192.4	6.09901E-001	1.76485E-007	0.00000E+000	6.10000E-001	9.84792E-004	5	..........a	-327.66
	962	192.6	5.99917E-001	1.62140E-007	0.00000E+000	6.00000E-001	9.83792E-004	5	..........a	-327.66
	963	192.8	5.89983E-001	1.49215E-007	0.00000E+000	5.90000E-001	9.96892E-004	5	..........a	-327.66
	964	193	5.79942E-001	1.36515E-007	0.00000E+000	5.80000E-001	9.84492E-004	5	..........a	-327.66
	965	193.2	5.69918E-001	1.24545E-007	0.00000E+000	5.70000E-001	1.01119E-003	5	..........a	-327.66
	966	193.4	5.59922E-001	1.12737E-007	0.00000E+000	5.60000E-001	9.77392E-004	5	..........a	-327.66
	967	193.6	5.50007E-001	1.01567E-007	0.00000E+000	5.50000E-001	9.98492E-004	5	..........a	-327.66
	968	193.8	5.39976E-001	9.06023E-008	0.00000E+000	5.40000E-001	9.96692E-004	5	..........a	-327.66
	969	194	5.29952E-001	7.99954E-008	0.00000E+000	5.30000E-001	1.00799E-003	5	..........a	-327.66
	970	194.2	5.19960E-001	6.97738E-008	0.00000E+000	5.20000E-001	1.00909E-003	5	..........a	-327.66
	971	194.4	5.09985E-001	5.95754E-008	0.00000E+000	5.10000E-001	9.97392E-004	5	..........a	-327.66
	972	194.6	5.00052E-001	4.97489E-008	0.00000E+000	5.00000E-001	9.87792E-004	5	..........a	-327.66
	973	194.8	4.89953E-001	4.01100E-008	0.00000E+000	4.90000E-001	1.00199E-003	5	..........a	-327.66
	974	195	4.79926E-001	3.05658E-008	0.00000E+000	4.80000E-001	1.00069E-003	5	..........a	-327.66
	975	195.2	4.70034E-001	2.11983E-008	0.00000E+000	4.70000E-001	9.83792E-004	5	..........a	-327.66
	976	195.4	4.60031E-001	1.18300E-008	0.00000E+000	4.60000E-001	9.95392E-004	5	..........a	-327.66
	977	195.6	4.49888E-001	5.00935E-009	0.00000E+000	4.50000E-001	9.98492E-004	5	..........a	-327.66
	978	195.8	4.40004E-001	-4.64529E-009	0.00000E+000	4.40000E-001	1.00599E-003	5	..........a	-327.66
	979	196	4.30017E-001	-1.39483E-008	0.00000E+000	4.30000E-001	1.01089E-003	5	..........a	-327.66
	980	196.2	4.20070E-001	-2.30315E-008	0.00000E+000	4.20000E-001	9.82692E-004	5	..........a	-327.66
	981	196.4	4.10018E-001	-3.21523E-008	0.00000E+000	4.10000E-001	1.00499E-003	5	..........a	-327.66
	982	196.6	4.00047E-001	-4.11373E-008	0.00000E+000	4.00000E-001	9.90392E-004	5	..........a	-327.66
	983	196.8	3.90087E-001	-4.97757E-008	0.00000E+000	3.90000E-001	9.92492E-004	5	..........a	-327.66
	984	197	3.80145E-001	-5.83312E-008	0.00000E+000	3.80000E-001	9.78692E-004	5	..........a	-327.66
	985	197.2	3.70097E-001	-6.68170E-008	0.00000E+000	3.70000E-001	9.93892E-004	5	..........a	-327.66
	986	197.4	3.60051E-001	-7.49134E-008	0.00000E+000	3.60000E-001	1.00459E-003	5	..........a	-327.66
	987	197.6	3.50075E-001	-8.28633E-008	0.00000E+000	3.50000E-001	9.99592E-004	5	..........a	-327.66
	988	197.8	3.40156E-001	-9.05356E-008	0.00000E+000	3.40000E-001	9.95692E-004	5	..........a	-327.66
	989	198	3.30089E-001	-9.80242E-008	0.00000E+000	3.30000E-001	9.99592E-004	5	..........a	-327.66
	990	198.2	3.20112E-001	-1.05351E-007	0.00000E+000	3.20000E-001	9.96292E-004	5	..........a	-327.66
	991	198.4	3.10090E-001	-1.12476E-007	0.00000E+000	3.10000E-001	9.82992E-004	5	..........a	-327.66
	992	198.6	3.00192E-001	-1.19366E-007	0.00000E+000	3.00000E-001	9.76192E-004	5	..........a	-327.66
	993	198.8	2.90118E-001	-1.26203E-007	0.00000E+000	2.90000E-001	9.76492E-004	5	..........a	-327.66
	994	199	2.80065E-001	-1.32799E-007	0.00000E+000	2.80000E-001	9.94492E-004	5	..........a	-327.66
	995	199.2	2.70128E-001	-1.39224E-007	0.00000E+000	2.70000E-001	9.99792E-004	5	..........a	-327.66
	996	199.4	2.60175E-001	-1.45408E-007	0.00000E+000	2.60000E-001	9.73392E-004	5	..........a	-327.66
	997	199.6	2.50096E-001	-1.51465E-007	0.00000E+000	2.50000E-001	9.89192E-004	5	..........a	-327.66
	998	199.8	2.40116E-001	-1.57318E-007	0.00000E+000	2.40000E-001	9.99492E-004	5	..........a	-327.66
	999	200	2.30071E-001	-1.63131E-007	0.00000E+000	2.30000E-001	1.00639E-003	5	..........a	-327.66
	1000	200.2	2.20212E-001	-1.68822E-007	0.00000E+000	2.20000E-001	9.78792E-004	5	..........a	-327.66
	1001	200.4	2.10135E-001	-1.74482E-007	0.00000E+000	2.10000E-001	1.00209E-003	5	..........a	-327.66
	1002	200.6	2.00165E-001	-1.80295E-007	0.00000E+000	2.00000E-001	9.81692E-004	5	..........a	-327.66
	1003	200.8	1.90178E-001	-1.86215E-007	0.00000E+000	1.90000E-001	1.01409E-003	5	..........a	-327.66
	1004	201	1.80256E-001	-1.92227E-007	0.00000E+000	1.80000E-001	9.81092E-004	5	..........a	-327.66
	1005	201.2	1.70185E-001	-1.98381E-007	0.00000E+000	1.70000E-001	9.91992E-004	5	..........a	-327.66
	1006	201.4	1.60165E-001	-2.04744E-007	0.00000E+000	1.60000E-001	9.88592E-004	5	..........a	-327.66
	1007	201.6	1.50194E-001	-2.11131E-007	0.00000E+000	1.50000E-001	9.74392E-004	5	..........a	-327.66
	1008	201.8	1.40231E-001	-2.17510E-007	0.00000E+000	1.40000E-001	9.95892E-004	5	..........a	-327.66
	1009	202	1.30200E-001	-2.23786E-007	0.00000E+000	1.30000E-001	9.99792E-004	5	..........a	-327.66
	1010	202.2	1.20193E-001	-2.29784E-007	0.00000E+000	1.20000E-001	1.00169E-003	5	..........a	-327.66
	1011	202.4	1.10203E-001	-2.35449E-007	0.00000E+000	1.10000E-001	1.02139E-003	5	..........a	-327.66
	1012	202.6	1.00294E-001	-2.40549E-007	0.00000E+000	1.00000E-001	1.00479E-003	5	..........a	-327.66
	1013	202.8	9.02154E-002	-2.45071E-007	0.00000E+000	9.00000E-002	9.82892E-004	5	..........a	-327.66
	1014	203	8.01781E-002	-2.48969E-007	0.00000E+000	8.00000E-002	1.00049E-003	5	..........a	-327.66
	1015	203.2	7.01881E-002	-2.52558E-007	0.00000E+000	7.00000E-002	9.81392E-004	5	..........a	-327.66
	1016	203.4	6.02611E-002	-2.56044E-007	0.00000E+000	6.00000E-002	9.85092E-004	5	..........a	-327.66
	1017	203.6	5.02052E-002	-2.59959E-007	0.00000E+000	5.00000E-002	9.89292E-004	5	..........a	-327.66
	1018	203.8	4.01843E-002	-2.63964E-007	0.00000E+000	4.00000E-002	9.93092E-004	5	..........a	-327.66
	1019	204	3.02055E-002	-2.68218E-007	0.00000E+000	3.00000E-002	9.83592E-004	5	..........a	-327.66
	1020	204.2	2.03153E-002	-2.72314E-007	0.00000E+000	2.00000E-002	9.88292E-004	5	..........a	-327.66
	1021	204.4	1.02195E-002	-2.76319E-007	0.00000E+000	1.00000E-002	9.75792E-004	5	..........a	-327.66
	1022	204.6	1.94392E-004	-2.80206E-007	0.00000E+000	7.45058E-009	9.88992E-004	5	..........a	-327.66
	1023	204.8	-9.79546E-003	-2.83939E-007	0.00000E+000	-1.00000E-002	9.80892E-004	5	..........a	-327.66
	1024	205	-1.97437E-002	-2.87364E-007	0.00000E+000	-2.00000E-002	9.81092E-004	5	..........a	-327.66
	1025	205.2	-2.97961E-002	-2.90756E-007	0.00000E+000	-3.00000E-002	9.97692E-004	5	..........a	-327.66
	1026	205.4	-3.97715E-002	-2.93812E-007	0.00000E+000	-4.00000E-002	1.00659E-003	5	..........a	-327.66
	1027	205.6	-4.97922E-002	-2.96647E-007	0.00000E+000	-5.00000E-002	9.88092E-004	5	..........a	-327.66
	1028	205.8	-5.96817E-002	-2.99409E-007	0.00000E+000	-6.00000E-002	9.83392E-004	5	..........a	-327.66
	1029	206	-6.97818E-002	-3.02019E-007	0.00000E+000	-7.00000E-002	9.90592E-004	5	..........a	-327.66
	1030	206.2	-7.97788E-002	-3.04596E-007	0.00000E+000	-8.00000E-002	9.82692E-004	5	..........a	-327.66
	1031	206.4	-8.97972E-002	-3.07087E-007	0.00000E+000	-9.00000E-002	9.94292E-004	5	..........a	-327.66
	1032	206.6	-9.97018E-002	-3.09459E-007	0.00000E+000	-1.00000E-001	9.93392E-004	5	..........a	-327.66
	1033	206.8	-1.09798E-001	-3.11698E-007	0.00000E+000	-1.10000E-001	9.93092E-004	5	..........a	-327.66
	1034	207	-1.19793E-001	-3.13837E-007	0.00000E+000	-1.20000E-001	1.00819E-003	5	..........a	-327.66
	1035	207.2	-1.29805E-001	-3.15912E-007	0.00000E+000	-1.30000E-001	9.99292E-004	5	..........a	-327.66
	1036	207.4	-1.39680E-001	-3.17913E-007	0.00000E+000	-1.40000E-001	9.98092E-004	5	..........a	-327.66
	1037	207.6	-1.49790E-001	-3.19861E-007	0.00000E+000	-1.50000E-001	9.82192E-004	5	..........a	-327.66
	1038	207.8	-1.59806E-001	-3.21873E-007	0.00000E+000	-1.60000E-001	1.00399E-003	5	..........a	-327.66
	1039	208	-1.69785E-001	-3.23694E-007	0.00000E+000	-1.70000E-001	9.87492E-004	5	..........a	-327.66
	1040	208.2	-1.79687E-001	-3.25578E-007	0.00000E+000	-1.80000E-001	1.01349E-003	5	..........a	-327.66
	1041	208.4	-1.89844E-001	-3.27383E-007	0.00000E+000	-1.90000E-001	9.86792E-004	5	..........a	-327.66
	1042	208.6	-1.99780E-001	-3.29473E-007	0.00000E+000	-2.00000E-001	9.90992E-004	5	..........a	-327.66
	1043	208.8	-2.09749E-001	-3.31857E-007	0.00000E+000	-2.10000E-001	1.00019E-003	5	..........a	-327.66
	1044	209	-2.19720E-001	-3.33613E-007	0.00000E+000	-2.20000E-001	9.80692E-004	5	..........a	-327.66
	1045	209.2	-2.29765E-001	-3.35184E-007	0.00000E+000	-2.30000E-001	9.64792E-004	5	..........a	-327.66
	1046	209.4	-2.39714E-001	-3.36702E-007	0.00000E+000	-2.40000E-001	1.01189E-003	5	..........a	-327.66
	1047	209.6	-2.49751E-001	-3.38118E-007	0.00000E+000	-2.50000E-001	9.92892E-004	5	..........a	-327.66
	1048	209.8	-2.59644E-001	-3.39436E-007	0.00000E+000	-2.60000E-001	9.70492E-004	5	..........a	-327.66
	1049	210	-2.69741E-001	-3.41117E-007	0.00000E+000	-2.70000E-001	9.87892E-004	5	..........a	-327.66
	1050	210.2	-2.79728E-001	-3.42937E-007	0.00000E+000	-2.80000E-001	9.85992E-004	5	..........a	-327.66
	1051	210.4	-2.89724E-001	-3.44819E-007	0.00000E+000	-2.90000E-001	9.93792E-004	5	..........a	-327.66
	1052	210.6	-2.99679E-001	-3.46919E-007	0.00000E+000	-3.00000E-001	9.90992E-004	5	..........a	-327.66
	1053	210.8	-3.09735E-001	-3.49014E-007	0.00000E+000	-3.10000E-001	1.00349E-003	5	..........a	-327.66
	1054	211	-3.19693E-001	-3.51450E-007	0.00000E+000	-3.20000E-001	9.99692E-004	5	..........a	-327.66
	1055	211.2	-3.29739E-001	-3.54282E-007	0.00000E+000	-3.30000E-001	1.00849E-003	5	..........a	-327.66
	1056	211.4	-3.39644E-001	-3.56954E-007	0.00000E+000	-3.40000E-001	9.91192E-004	5	..........a	-327.66
	1057	211.6	-3.49737E-001	-3.58321E-007	0.00000E+000	-3.50000E-001	9.92192E-004	5	..........a	-327.66
	1058	211.8	-3.59704E-001	-3.60857E-007	0.00000E+000	-3.60000E-001	1.01149E-003	5	..........a	-327.66
	1059	212	-3.69720E-001	-3.62919E-007	0.00000E+000	-3.70000E-001	9.90492E-004	5	..........a	-327.66
	1060	212.2	-3.79654E-001	-3.65479E-007	0.00000E+000	-3.80000E-001	9.90292E-004	5	..........a	-327.66
	1061	212.4	-3.89721E-001	-3.67124E-007	0.00000E+000	-3.90000E-001	9.96692E-004	5	..........a	-327.66
	1062	212.6	-3.99715E-001	-3.68758E-007	0.00000E+000	-4.00000E-001	1.00889E-003	5	..........a	-327.66
	1063	212.8	-4.09708E-001	-3.70639E-007	0.00000E+000	-4.10000E-001	1.01249E-003	5	..........a	-327.66
	1064	213	-4.19592E-001	-3.72077E-007	0.00000E+000	-4.20000E-001	9.86692E-004	5	..........a	-327.66
	1065	213.2	-4.29694E-001	-3.73389E-007	0.00000E+000	-4.30000E-001	9.99492E-004	5	..........a	-327.66
	1066	213.4	-4.39676E-001	-3.74466E-007	0.00000E+000	-4.40000E-001	9.85692E-004	5	..........a	-327.66
	1067	213.6	-4.49706E-001	-3.75437E-007	0.00000E+000	-4.50000E-001	9.95092E-004	5	..........a	-327.66
	1068	213.8	-4.59630E-001	-3.76332E-007	0.00000E+000	-4.60000E-001	9.99692E-004	5	..........a	-327.66
	1069	214	-4.69696E-001	-3.76939E-007	0.00000E+000	-4.70000E-001	9.99992E-004	5	..........a	-327.66
	1070	214.2	-4.79681E-001	-3.77411E-007	0.00000E+000	-4.80000E-001	9.98292E-004	5	..........a	-327.66
	1071	214.4	-4.89703E-001	-3.77811E-007	0.00000E+000	-4.90000E-001	9.96592E-004	5	..........a	-327.66
	1072	214.6	-4.99655E-001	-3.78189E-007	0.00000E+000	-5.00000E-001	9.89792E-004	5	..........a	-327.66
	1073	214.8	-5.09694E-001	-3.78595E-007	0.00000E+000	-5.10000E-001	9.82792E-004	5	..........a	-327.66
	1074	215	-5.19693E-001	-3.78945E-007	0.00000E+000	-5.20000E-001	1.00359E-003	5	..........a	-327.66
	1075	215.2	-5.29708E-001	-3.79377E-007	0.00000E+000	-5.30000E-001	1.00139E-003	5	..........a	-327.66
	1076	215.4	-5.39633E-001	-3.79933E-007	0.00000E+000	-5.40000E-001	9.93092E-004	5	..........a	-327.66
	1077	215.6	-5.49716E-001	-3.80690E-007	0.00000E+000	-5.50000E-001	9.96292E-004	5	..........a	-327.66
	1078	215.8	-5.59696E-001	-3.81534E-007	0.00000E+000	-5.60000E-001	9.85292E-004	5	..........a	-327.66
	1079	216	-5.69703E-001	-3.82356E-007	0.00000E+000	-5.70000E-001	1.00569E-003	5	..........a	-327.66
	1080	216.2	-5.79638E-001	-3.83702E-007	0.00000E+000	-5.80000E-001	9.91192E-004	5	..........a	-327.66
	1081	216.4	-5.89702E-001	-3.85154E-007	0.00000E+000	-5.90000E-001	1.01649E-003	5	..........a	-327.66
	1082	216.6	-5.99668E-001	-3.86693E-007	0.00000E+000	-6.00000E-001	9.93292E-004	5	..........a	-327.66
CURVE5	TABLE
	Pt	T	Vf	Im	Vu	Sig	Ach	IERange	Over	Temp
	#	s	V vs. Ref.	A	V	V	V	#	bits	deg C
	1083	216.8	-5.89727E-001	-3.19794E-007	0.00000E+000	-5.90000E-001	1.00049E-003	5	..........a	-327.66
	1084	217	-5.79693E-001	-2.75772E-007	0.00000E+000	-5.80000E-001	1.00579E-003	5	..........a	-327.66
	1085	217.2	-5.69775E-001	-2.42396E-007	0.00000E+000	-5.70000E-001	1.00289E-003	5	..........a	-327.66
	1086	217.4	-5.59770E-001	-2.14946E-007	0.00000E+000	-5.60000E-001	1.00509E-003	5	..........a	-327.66
	1087	217.6	-5.49800E-001	-1.91492E-007	0.00000E+000	-5.50000E-001	1.00509E-003	5	..........a	-327.66
	1088	217.8	-5.39716E-001	-1.71083E-007	0.00000E+000	-5.40000E-001	9.67292E-004	5	..........a	-327.66
	1089	218	-5.29806E-001	-1.52779E-007	0.00000E+000	-5.30000E-001	9.93592E-004	5	..........a	-327.66
	1090	218.2	-5.19821E-001	-1.36139E-007	0.00000E+000	-5.20000E-001	1.00099E-003	5	..........a	-327.66
	1091	218.4	-5.09813E-001	-1.20924E-007	0.00000E+000	-5.10000E-001	9.88492E-004	5	..........a	-327.66
	1092	218.6	-4.99798E-001	-1.07006E-007	0.00000E+000	-5.00000E-001	9.84192E-004	5	..........a	-327.66
	1093	218.8	-4.89824E-001	-9.40192E-008	0.00000E+000	-4.90000E-001	9.92892E-004	5	..........a	-327.66
	1094	219	-4.79839E-001	-8.19606E-008	0.00000E+000	-4.80000E-001	1.00019E-003	5	..........a	-327.66
	1095	219.2	-4.69828E-001	-7.06597E-008	0.00000E+000	-4.70000E-001	9.85092E-004	5	..........a	-327.66
	1096	219.4	-4.59789E-001	-5.99759E-008	0.00000E+000	-4.60000E-001	9.90792E-004	5	..........a	-327.66
	1097	219.6	-4.49835E-001	-4.98899E-008	0.00000E+000	-4.50000E-001	9.81992E-004	5	..........a	-327.66
	1098	219.8	-4.39853E-001	-4.02375E-008	0.00000E+000	-4.40000E-001	9.93692E-004	5	..........a	-327.66
	1099	220	-4.29857E-001	-3.10890E-008	0.00000E+000	-4.30000E-001	1.00599E-003	5	..........a	-327.66
	1100	220.2	-4.19808E-001	-2.22774E-008	0.00000E+000	-4.20000E-001	9.96092E-004	5	..........a	-327.66
	1101	220.4	-4.09870E-001	-1.37696E-008	0.00000E+000	-4.10000E-001	9.95492E-004	5	..........a	-327.66
	1102	220.6	-3.99858E-001	-5.57603E-009	0.00000E+000	-4.00000E-001	9.94192E-004	5	..........a	-327.66
	1103	220.8	-3.89960E-001	2.29017E-009	0.00000E+000	-3.90000E-001	9.90592E-004	5	..........a	-327.66
	1104	221	-3.79856E-001	9.61419E-009	0.00000E+000	-3.80000E-001	9.98392E-004	5	..........a	-327.66
	1105	221.2	-3.69876E-001	1.69463E-008	0.00000E+000	-3.70000E-001	9.97592E-004	5	..........a	-327.66
	1106	221.4	-3.59952E-001	2.43139E-008	0.00000E+000	-3.60000E-001	1.01629E-003	5	..........a	-327.66
	1107	221.6	-3.49907E-001	3.17020E-008	0.00000E+000	-3.50000E-001	1.01499E-003	5	..........a	-327.66
	1108	221.8	-3.39854E-001	3.86691E-008	0.00000E+000	-3.40000E-001	9.96792E-004	5	..........a	-327.66
	1109	222	-3.29942E-001	4.55552E-008	0.00000E+000	-3.30000E-001	1.00389E-003	5	..........a	-327.66
	1110	222.2	-3.19900E-001	5.23184E-008	0.00000E+000	-3.20000E-001	9.94092E-004	5	..........a	-327.66
	1111	222.4	-3.09938E-001	5.89172E-008	0.00000E+000	-3.10000E-001	1.00469E-003	5	..........a	-327.66
	1112	222.6	-2.99888E-001	6.56110E-008	0.00000E+000	-3.00000E-001	9.98392E-004	5	..........a	-327.66
	1113	222.8	-2.89942E-001	7.18455E-008	0.00000E+000	-2.90000E-001	1.01069E-003	5	..........a	-327.66
	1114	223	-2.79946E-001	7.82336E-008	0.00000E+000	-2.80000E-001	9.96392E-004	5	..........a	-327.66
	1115	223.2	-2.69917E-001	8.45664E-008	0.00000E+000	-2.70000E-001	9.92392E-004	5	..........a	-327.66
	1116	223.4	-2.59888E-001	9.07822E-008	0.00000E+000	-2.60000E-001	1.00179E-003	5	..........a	-327.66
	1117	223.6	-2.49926E-001	9.69554E-008	0.00000E+000	-2.50000E-001	9.95292E-004	5	..........a	-327.66
	1118	223.8	-2.39976E-001	1.03001E-007	0.00000E+000	-2.40000E-001	9.94392E-004	5	..........a	-327.66
	1119	224	-2.29982E-001	1.09015E-007	0.00000E+000	-2.30000E-001	9.94092E-004	5	..........a	-327.66
	1120	224.2	-2.19939E-001	1.15276E-007	0.00000E+000	-2.20000E-001	9.85392E-004	5	..........a	-327.66