File: example_project/raw_outputs/20240509_W_GM0016_HL03_E06_CV50.DTA
EXPLAIN
TAG	CV
TITLE	LABEL	Cyclic Voltammetry	Test &Identifier
DATE	LABEL	5/9/2024	Date
TIME	LABEL	13:38:02	Time
NOTES	NOTES	1	&Notes...

PSTAT	PSTAT	REF600P-43058	Potentiostat
VINIT	POTEN	0.00000E+000	T	Initial &E (V)
VLIMIT1	POTEN	8.00000E-001	F	Scan Limit &1 (V)
VLIMIT2	POTEN	-6.00000E-001	F	Scan Limit &2 (V)
VFINAL	POTEN	0.00000E+000	T	Final &E (V)
SCANRATE	QUANT	4.99999E+001	&Scan Rate (mV/s)
STEPSIZE	QUANT	1.00000E+001	St&ep Size (mV)
CYCLES	IQUANT	4	C&ycles (#)
IMODE	SELECTOR	0	I/E Range &Mode
IRANGE	QUANT	1.00000E-005	&Max Current (mA)
AREA	QUANT	1.00000E+000	Electrode &Area (cm^2)
ELECTRODETYPE	SELECTOR	0	Electrode Type
STRIPPING	TOGGLE	F	Used for Stripping
POLARITY	TOGGLE	F	Signal Polarity
CONDIT	TWOPARAM	F	1.50000E+001	0.00000E+000	Conditionin&g	Time(s)	E(V)
DELAY	TWOPARAM	T	1.00000E+001	0.00000E+000	Init. De&lay	Time(s)	Stab.(mV/s)
EQDELAY	QUANT	1.00000E+001	Equil. &Time (s)
IRCOMP	SELECTOR	0	IRCom&p
PFCOR	QUANT	5.00000E+001	PF Corr. (ohm)
SAMPLINGMODE	SELECTOR	1	Sampling &Mode
OCVCURVE	TABLE	39
	Pt	T	Vf	Vm	Ach	Over	Temp
	#	s	V vs. Ref.	V	V	bits	deg C
	0	0.258333	-4.22790E-002	-4.22790E-002	2.30592E-004	..........a	-327.66
	1	0.516667	-4.22838E-002	-4.25283E-002	2.21192E-004	..........a	-327.66
	2	0.775	-4.23109E-002	-4.26545E-002	2.23592E-004	..........a	-327.66
	3	1.03333	-4.23805E-002	-4.27621E-002	2.23192E-004	..........a	-327.66
	4	1.29167	-4.24902E-002	-4.28660E-002	2.22792E-004	..........a	-327.66
	5	1.55	-4.26167E-002	-4.29532E-002	2.24792E-004	..........a	-327.66
	6	1.80833	-4.27383E-002	-4.30377E-002	2.22459E-004	..........a	-327.66
	7	2.06667	-4.28466E-002	-4.31143E-002	2.21926E-004	..........a	-327.66
	8	2.325	-4.29417E-002	-4.31820E-002	2.23392E-004	..........a	-327.66
	9	2.58333	-4.30264E-002	-4.32393E-002	2.22859E-004	..........a	-327.66
	10	2.84167	-4.31026E-002	-4.33092E-002	2.31192E-004	..........a	-327.66
	11	3.1	-4.31725E-002	-4.33757E-002	2.25326E-004	..........a	-327.66
	12	3.35833	-4.32391E-002	-4.34467E-002	2.30259E-004	..........a	-327.66
	13	3.61667	-4.33051E-002	-4.35077E-002	2.16859E-004	..........a	-327.66
	14	3.875	-4.33710E-002	-4.35458E-002	2.35059E-004	..........a	-327.66
	15	4.13333	-4.34348E-002	-4.36260E-002	2.32792E-004	..........a	-327.66
	16	4.39167	-4.34961E-002	-4.37047E-002	2.24992E-004	..........a	-327.66
	17	4.65	-4.35585E-002	-4.37845E-002	2.35059E-004	..........a	-327.66
	18	4.90833	-4.36261E-002	-4.38517E-002	2.27859E-004	..........a	-327.66
	19	5.16667	-4.36981E-002	-4.39033E-002	2.15659E-004	..........a	-327.66
	20	5.425	-4.37698E-002	-4.39583E-002	2.25459E-004	..........a	-327.66
	21	5.68333	-4.38369E-002	-4.40176E-002	2.27326E-004	..........a	-327.66
	22	5.94167	-4.38983E-002	-4.40754E-002	2.20259E-004	..........a	-327.66
	23	6.2	-4.39562E-002	-4.41154E-002	2.32126E-004	..........a	-327.66
	24	6.45833	-4.40114E-002	-4.41619E-002	2.24726E-004	..........a	-327.66
	25	6.71667	-4.40631E-002	-4.41877E-002	2.29126E-004	..........a	-327.66
	26	6.975	-4.41100E-002	-4.42412E-002	2.16192E-004	..........a	-327.66
	27	7.23333	-4.41525E-002	-4.42625E-002	2.28526E-004	..........a	-327.66
	28	7.49167	-4.41917E-002	-4.42948E-002	2.20926E-004	..........a	-327.66
	29	7.75	-4.42281E-002	-4.43369E-002	2.35526E-004	..........a	-327.66
	30	8.00833	-4.42628E-002	-4.43785E-002	2.21659E-004	..........a	-327.66
	31	8.26667	-4.42982E-002	-4.44242E-002	2.25726E-004	..........a	-327.66
	32	8.525	-4.43364E-002	-4.44802E-002	2.10126E-004	..........a	-327.66
	33	8.78333	-4.43784E-002	-4.45148E-002	2.22726E-004	..........a	-327.66
	34	9.04167	-4.44228E-002	-4.45387E-002	2.14926E-004	..........a	-327.66
	35	9.3	-4.44659E-002	-4.45686E-002	2.23726E-004	..........a	-327.66
	36	9.5583	-4.45042E-002	-4.46059E-002	2.27126E-004	..........a	-327.66
	37	9.8167	-4.45383E-002	-4.46450E-002	2.23926E-004	..........a	-327.66
	38	10.075	-4.45713E-002	-4.46829E-002	2.31059E-004	..........a	-327.66
EOC	QUANT	-0.0445713	Open Circuit (V)
PSTATMODEL	IQUANT	7	Pstat Model
PSTATSECTION	LABEL	REF600P-43058	Pstat Section
PSTATSERIALNO	LABEL	43058	Pstat Serial Number
CTRLMODE	IQUANT	1	Control Mode
ELECTROMETER	IQUANT	0	RE=0 or CS=1
IESTAB	IQUANT	2	I/E Stability
CASPEED	IQUANT	4	Control Amp Speed
CONVENTION	IQUANT	1	Current Convention
ICHRANGE	IQUANT	2	Ich Range
ICHRANGEMODE	TOGGLE	F	Ich Auto Range
ICHOFFSETENABLE	TOGGLE	F	Ich Offset Enable
ICHOFFSET	QUANT	0	Ich Offset (V)
ICHFILTER	IQUANT	2	Ich Filter
VCHRANGE	IQUANT	2	Vch Range
VCHRANGEMODE	TOGGLE	F	Vch Auto Range
VCHOFFSETENABLE	TOGGLE	F	Vch Offset Enable
VCHOFFSET	QUANT	0	Vch Offset (V)
VCHFILTER	IQUANT	2	Vch Filter
ACHRANGE	IQUANT	2	Ach Range
ACHOFFSETENABLE	TOGGLE	F	Ach Offset Enable
ACHOFFSET	QUANT	0	Ach Offset (V)
ACHFILTER	IQUANT	1	Ach Filter
IERANGELOWERLIMIT	IQUANT	1	I/E Range Lower Limit
IERANGEMODE	TOGGLE	T	I/E AutoRange
IERANGE	IQUANT	4	I/E Range
POSFEEDENABLE	TOGGLE	F	Positive Feedback IR Comp
POSFEEDRESISTANCE	QUANT	0	Positive Feedback Resistance (ohm)
ACHSELECT	IQUANT	4	Ach Select
SENSECABLEID	IQUANT	7	Sense Cable ID
PWRCABLEID	IQUANT	7	Power Cable ID
DCCALDATE	LABEL	3/22/2024	DC Calibration Date
ACCALDATE	LABEL	3/22/2024	AC Calibration Date
THERMOSELECT	IQUANT	1	Thermo Select
FRAMEWORKVERSION	LABEL	7.8.4	Framework Version
INSTRUMENTVERSION	LABEL	4.42	Instrument Version
CURVE1	TABLE
	Pt	T	Vf	Im	Vu	Sig	Ach	IERange	Over	Temp
	#	s	V vs. Ref.	A	V	V	V	#	bits	deg C
	0	0.2	-4.44909E-002	8.50568E-010	0.00000E+000	-4.45500E-002	9.86092E-004	5	..........a	-327.66
	1	0.4	-3.45227E-002	1.00792E-008	0.00000E+000	-3.45500E-002	9.77292E-004	5	..........a	-327.66
	2	0.6	-2.44403E-002	1.55914E-008	0.00000E+000	-2.45500E-002	9.78892E-004	5	..........a	-327.66
	3	0.8	-1.45314E-002	1.99748E-008	0.00000E+000	-1.45500E-002	9.60392E-004	5	..........a	-327.66
	4	1	-4.53811E-003	2.37643E-008	0.00000E+000	-4.55000E-003	9.84592E-004	5	..........a	-327.66
	5	1.2	5.51654E-003	2.72645E-008	0.00000E+000	5.45000E-003	9.74692E-004	5	..........a	-327.66
	6	1.4	1.55520E-002	3.05412E-008	0.00000E+000	1.54500E-002	9.85492E-004	5	..........a	-327.66
	7	1.6	2.54662E-002	3.36986E-008	0.00000E+000	2.54500E-002	9.71592E-004	5	..........a	-327.66
	8	1.8	3.55257E-002	3.67521E-008	0.00000E+000	3.54500E-002	9.76292E-004	5	..........a	-327.66
	9	2	4.55079E-002	3.96912E-008	0.00000E+000	4.54500E-002	9.70992E-004	5	..........a	-327.66
	10	2.2	5.55441E-002	4.26701E-008	0.00000E+000	5.54500E-002	9.87092E-004	5	..........a	-327.66
	11	2.4	6.54990E-002	4.55690E-008	0.00000E+000	6.54500E-002	9.91792E-004	5	..........a	-327.66
	12	2.6	7.54517E-002	4.84667E-008	0.00000E+000	7.54500E-002	9.70592E-004	5	..........a	-327.66
	13	2.8	8.54848E-002	5.13308E-008	0.00000E+000	8.54500E-002	9.89992E-004	5	..........a	-327.66
	14	3	9.55338E-002	5.42488E-008	0.00000E+000	9.54500E-002	9.95292E-004	5	..........a	-327.66
	15	3.2	1.05495E-001	5.71371E-008	0.00000E+000	1.05450E-001	9.98392E-004	5	..........a	-327.66
	16	3.4	1.15483E-001	6.00976E-008	0.00000E+000	1.15450E-001	9.91892E-004	5	..........a	-327.66
	17	3.6	1.25501E-001	6.31492E-008	0.00000E+000	1.25450E-001	9.75892E-004	5	..........a	-327.66
	18	3.8	1.35559E-001	6.61857E-008	0.00000E+000	1.35450E-001	9.96592E-004	5	..........a	-327.66
	19	4	1.45464E-001	6.94026E-008	0.00000E+000	1.45450E-001	9.72092E-004	5	..........a	-327.66
	20	4.2	1.55470E-001	7.27001E-008	0.00000E+000	1.55450E-001	9.91492E-004	5	..........a	-327.66
	21	4.4	1.65473E-001	7.61058E-008	0.00000E+000	1.65450E-001	9.89692E-004	5	..........a	-327.66
	22	4.6	1.75550E-001	7.96821E-008	0.00000E+000	1.75450E-001	9.88292E-004	5	..........a	-327.66
	23	4.8	1.85455E-001	8.35235E-008	0.00000E+000	1.85450E-001	9.88792E-004	5	..........a	-327.66
	24	5	1.95471E-001	8.76422E-008	0.00000E+000	1.95450E-001	1.00249E-003	5	..........a	-327.66
	25	5.2	2.05428E-001	9.20668E-008	0.00000E+000	2.05450E-001	9.82792E-004	5	..........a	-327.66
	26	5.4	2.15487E-001	9.70832E-008	0.00000E+000	2.15450E-001	9.72292E-004	5	..........a	-327.66
	27	5.6	2.25431E-001	1.02271E-007	0.00000E+000	2.25450E-001	9.90292E-004	5	..........a	-327.66
	28	5.8	2.35415E-001	1.07134E-007	0.00000E+000	2.35450E-001	9.85092E-004	5	..........a	-327.66
	29	6	2.45406E-001	1.11499E-007	0.00000E+000	2.45450E-001	9.77792E-004	5	..........a	-327.66
	30	6.2	2.55530E-001	1.15435E-007	0.00000E+000	2.55450E-001	1.00429E-003	5	..........a	-327.66
	31	6.4	2.65415E-001	1.19127E-007	0.00000E+000	2.65450E-001	9.93192E-004	5	..........a	-327.66
	32	6.6	2.75388E-001	1.22810E-007	0.00000E+000	2.75450E-001	9.85392E-004	5	..........a	-327.66
	33	6.8	2.85409E-001	1.26585E-007	0.00000E+000	2.85450E-001	9.84692E-004	5	..........a	-327.66
	34	7	2.95514E-001	1.30347E-007	0.00000E+000	2.95450E-001	9.76492E-004	5	..........a	-327.66
	35	7.2	3.05400E-001	1.34318E-007	0.00000E+000	3.05450E-001	9.70992E-004	5	..........a	-327.66
	36	7.4	3.15429E-001	1.38402E-007	0.00000E+000	3.15450E-001	9.91092E-004	5	..........a	-327.66
	37	7.6	3.25405E-001	1.42504E-007	0.00000E+000	3.25450E-001	9.86892E-004	5	..........a	-327.66
	38	7.8	3.35512E-001	1.46811E-007	0.00000E+000	3.35450E-001	9.90292E-004	5	..........a	-327.66
	39	8	3.45407E-001	1.51211E-007	0.00000E+000	3.45450E-001	9.93892E-004	5	..........a	-327.66
	40	8.2	3.55418E-001	1.55743E-007	0.00000E+000	3.55450E-001	9.74792E-004	5	..........a	-327.66
	41	8.4	3.65402E-001	1.60340E-007	0.00000E+000	3.65450E-001	1.00539E-003	5	..........a	-327.66
	42	8.6	3.75509E-001	1.65107E-007	0.00000E+000	3.75450E-001	9.94792E-004	5	..........a	-327.66
	43	8.8	3.85398E-001	1.69885E-007	0.00000E+000	3.85450E-001	9.86992E-004	5	..........a	-327.66
	44	9	3.95407E-001	1.74785E-007	0.00000E+000	3.95450E-001	9.94692E-004	5	..........a	-327.66
	45	9.2	4.05399E-001	1.79794E-007	0.00000E+000	4.05450E-001	9.78692E-004	5	..........a	-327.66
	46	9.4	4.15445E-001	1.84925E-007	0.00000E+000	4.15450E-001	9.77592E-004	5	..........a	-327.66
	47	9.6	4.25363E-001	1.90146E-007	0.00000E+000	4.25450E-001	9.74692E-004	5	..........a	-327.66
	48	9.8	4.35311E-001	1.95458E-007	0.00000E+000	4.35450E-001	9.90292E-004	5	..........a	-327.66
	49	10	4.45376E-001	2.00896E-007	0.00000E+000	4.45450E-001	9.64292E-004	5	..........a	-327.66
	50	10.2	4.55476E-001	2.06418E-007	0.00000E+000	4.55450E-001	9.75992E-004	5	..........a	-327.66
	51	10.4	4.65330E-001	2.11950E-007	0.00000E+000	4.65450E-001	1.00049E-003	5	..........a	-327.66
	52	10.6	4.75318E-001	2.17410E-007	0.00000E+000	4.75450E-001	9.85892E-004	5	..........a	-327.66
	53	10.8	4.85322E-001	2.22785E-007	0.00000E+000	4.85450E-001	9.92792E-004	5	..........a	-327.66
	54	11	4.95395E-001	2.28319E-007	0.00000E+000	4.95450E-001	9.75092E-004	5	..........a	-327.66
	55	11.2	5.05313E-001	2.33905E-007	0.00000E+000	5.05450E-001	9.78392E-004	5	..........a	-327.66
	56	11.4	5.15318E-001	2.39623E-007	0.00000E+000	5.15450E-001	9.78492E-004	5	..........a	-327.66
	57	11.6	5.25306E-001	2.45488E-007	0.00000E+000	5.25450E-001	9.88992E-004	5	..........a	-327.66
	58	11.8	5.35424E-001	2.51712E-007	0.00000E+000	5.35450E-001	9.75292E-004	5	..........a	-327.66
	59	12	5.45332E-001	2.58151E-007	0.00000E+000	5.45450E-001	9.92292E-004	5	..........a	-327.66
	60	12.2	5.55301E-001	2.64813E-007	0.00000E+000	5.55450E-001	9.85792E-004	5	..........a	-327.66
	61	12.4	5.65312E-001	2.71856E-007	0.00000E+000	5.65450E-001	9.85792E-004	5	..........a	-327.66
	62	12.6	5.75348E-001	2.79164E-007	0.00000E+000	5.75450E-001	9.94492E-004	5	..........a	-327.66
	63	12.8	5.85296E-001	2.86797E-007	0.00000E+000	5.85450E-001	9.90592E-004	5	..........a	-327.66
	64	13	5.95279E-001	2.94709E-007	0.00000E+000	5.95450E-001	9.98592E-004	5	..........a	-327.66
	65	13.2	6.05318E-001	3.02790E-007	0.00000E+000	6.05450E-001	9.82192E-004	5	..........a	-327.66
	66	13.4	6.15291E-001	3.10878E-007	0.00000E+000	6.15450E-001	9.90192E-004	5	..........a	-327.66
	67	13.6	6.25299E-001	3.18775E-007	0.00000E+000	6.25450E-001	9.72592E-004	5	..........a	-327.66
	68	13.8	6.35207E-001	3.26525E-007	0.00000E+000	6.35450E-001	9.97092E-004	5	..........a	-327.66
	69	14	6.45220E-001	3.34139E-007	0.00000E+000	6.45450E-001	9.82792E-004	5	..........a	-327.66
	70	14.2	6.55244E-001	3.41617E-007	0.00000E+000	6.55450E-001	9.80092E-004	5	..........a	-327.66
	71	14.4	6.65209E-001	3.49210E-007	0.00000E+000	6.65450E-001	9.83292E-004	5	..........a	-327.66
	72	14.6	6.75221E-001	3.57125E-007	0.00000E+000	6.75450E-001	1.00199E-003	5	..........a	-327.66
	73	14.8	6.85204E-001	3.65367E-007	0.00000E+000	6.85450E-001	9.87492E-004	5	..........a	-327.66
	74	15	6.95238E-001	3.74035E-007	0.00000E+000	6.95450E-001	9.89692E-004	5	..........a	-327.66
	75	15.2	7.05256E-001	3.82968E-007	0.00000E+000	7.05450E-001	9.74392E-004	5	..........a	-327.66
	76	15.4	7.15158E-001	3.92126E-007	0.00000E+000	7.15450E-001	1.01139E-003	5	..........a	-327.66
	77	15.6	7.25231E-001	4.01509E-007	0.00000E+000	7.25450E-001	9.71692E-004	5	..........a	-327.66
	78	15.8	7.35266E-001	4.11203E-007	0.00000E+000	7.35450E-001	9.76992E-004	5	..........a	-327.66
	79	16	7.45201E-001	4.21189E-007	0.00000E+000	7.45450E-001	1.00889E-003	5	..........a	-327.66
	80	16.2	7.55214E-001	4.31516E-007	0.00000E+000	7.55450E-001	9.73792E-004	5	..........a	-327.66
	81	16.4	7.65191E-001	4.42246E-007	0.00000E+000	7.65450E-001	1.00199E-003	5	..........a	-327.66
	82	16.6	7.75204E-001	4.53327E-007	0.00000E+000	7.75450E-001	9.60692E-004	5	..........a	-327.66
	83	16.8	7.85190E-001	4.64866E-007	0.00000E+000	7.85450E-001	1.00129E-003	5	..........a	-327.66
	84	17	7.95145E-001	4.76889E-007	0.00000E+000	7.95450E-001	9.76192E-004	5	..........a	-327.66
	85	17.2	7.85162E-001	4.12793E-007	0.00000E+000	7.85450E-001	9.90792E-004	5	..........a	-327.66
	86	17.4	7.75254E-001	3.67671E-007	0.00000E+000	7.75450E-001	9.71692E-004	5	..........a	-327.66
	87	17.6	7.65254E-001	3.31911E-007	0.00000E+000	7.65450E-001	1.00469E-003	5	..........a	-327.66
	88	17.8	7.55310E-001	3.02066E-007	0.00000E+000	7.55450E-001	9.84492E-004	5	..........a	-327.66
	89	18	7.45281E-001	2.76546E-007	0.00000E+000	7.45450E-001	9.89792E-004	5	..........a	-327.66
	90	18.2	7.35390E-001	2.54243E-007	0.00000E+000	7.35450E-001	9.79992E-004	5	..........a	-327.66
	91	18.4	7.25321E-001	2.34465E-007	0.00000E+000	7.25450E-001	9.91592E-004	5	..........a	-327.66
	92	18.6	7.15277E-001	2.16763E-007	0.00000E+000	7.15450E-001	9.96892E-004	5	..........a	-327.66
	93	18.8	7.05348E-001	2.00757E-007	0.00000E+000	7.05450E-001	9.75492E-004	5	..........a	-327.66
	94	19	6.95379E-001	1.86253E-007	0.00000E+000	6.95450E-001	9.85992E-004	5	..........a	-327.66
	95	19.2	6.85287E-001	1.72920E-007	0.00000E+000	6.85450E-001	9.93692E-004	5	..........a	-327.66
	96	19.4	6.75350E-001	1.60712E-007	0.00000E+000	6.75450E-001	9.86592E-004	5	..........a	-327.66
	97	19.6	6.65337E-001	1.49425E-007	0.00000E+000	6.65450E-001	9.87192E-004	5	..........a	-327.66
	98	19.8	6.55426E-001	1.38976E-007	0.00000E+000	6.55450E-001	9.81292E-004	5	..........a	-327.66
	99	20	6.45351E-001	1.29284E-007	0.00000E+000	6.45450E-001	9.89192E-004	5	..........a	-327.66
	100	20.2	6.35342E-001	1.20243E-007	0.00000E+000	6.35450E-001	9.87292E-004	5	..........a	-327.66
	101	20.4	6.25371E-001	1.11843E-007	0.00000E+000	6.25450E-001	9.79592E-004	5	..........a	-327.66
	102	20.6	6.15450E-001	1.03976E-007	0.00000E+000	6.15450E-001	9.81592E-004	5	..........a	-327.66
	103	20.8	6.05394E-001	9.65632E-008	0.00000E+000	6.05450E-001	9.69192E-004	5	..........a	-327.66
	104	21	5.95366E-001	8.96286E-008	0.00000E+000	5.95450E-001	1.00279E-003	5	..........a	-327.66
	105	21.2	5.85402E-001	8.30417E-008	0.00000E+000	5.85450E-001	9.76792E-004	5	..........a	-327.66
	106	21.4	5.75441E-001	7.68539E-008	0.00000E+000	5.75450E-001	9.60392E-004	5	..........a	-327.66
	107	21.6	5.65406E-001	7.09858E-008	0.00000E+000	5.65450E-001	9.69192E-004	5	..........a	-327.66
	108	21.8	5.55418E-001	6.54227E-008	0.00000E+000	5.55450E-001	9.80792E-004	5	..........a	-327.66
	109	22	5.45422E-001	6.01031E-008	0.00000E+000	5.45450E-001	9.72692E-004	5	..........a	-327.66
	110	22.2	5.35514E-001	5.50693E-008	0.00000E+000	5.35450E-001	9.89192E-004	5	..........a	-327.66
	111	22.4	5.25411E-001	5.01685E-008	0.00000E+000	5.25450E-001	9.74792E-004	5	..........a	-327.66
	112	22.6	5.15396E-001	4.55304E-008	0.00000E+000	5.15450E-001	9.66992E-004	5	..........a	-327.66
	113	22.8	5.05406E-001	4.10611E-008	0.00000E+000	5.05450E-001	9.80892E-004	5	..........a	-327.66
	114	23	4.95490E-001	3.66724E-008	0.00000E+000	4.95450E-001	9.82892E-004	5	..........a	-327.66
	115	23.2	4.85428E-001	3.25042E-008	0.00000E+000	4.85450E-001	9.97492E-004	5	..........a	-327.66
	116	23.4	4.75396E-001	2.84534E-008	0.00000E+000	4.75450E-001	9.83892E-004	5	..........a	-327.66
	117	23.6	4.65418E-001	2.44980E-008	0.00000E+000	4.65450E-001	9.83992E-004	5	..........a	-327.66
	118	23.8	4.55547E-001	2.06926E-008	0.00000E+000	4.55450E-001	9.77692E-004	5	..........a	-327.66
	119	24	4.45444E-001	1.69620E-008	0.00000E+000	4.45450E-001	9.70592E-004	5	..........a	-327.66
	120	24.2	4.35406E-001	1.32640E-008	0.00000E+000	4.35450E-001	9.91592E-004	5	..........a	-327.66
	121	24.4	4.25425E-001	9.59076E-009	0.00000E+000	4.25450E-001	9.90392E-004	5	..........a	-327.66
	122	24.6	4.15526E-001	6.03323E-009	0.00000E+000	4.15450E-001	9.82692E-004	5	..........a	-327.66
	123	24.8	4.05472E-001	2.43316E-009	0.00000E+000	4.05450E-001	9.84492E-004	5	..........a	-327.66
	124	25	3.95473E-001	-1.23149E-009	0.00000E+000	3.95450E-001	9.90692E-004	5	..........a	-327.66
	125	25.2	3.85464E-001	-4.61970E-009	0.00000E+000	3.85450E-001	9.84892E-004	5	..........a	-327.66
	126	25.4	3.75561E-001	-8.00828E-009	0.00000E+000	3.75450E-001	9.81492E-004	5	..........a	-327.66
	127	25.6	3.65490E-001	-1.13843E-008	0.00000E+000	3.65450E-001	9.77092E-004	5	..........a	-327.66
	128	25.8	3.55517E-001	-1.46324E-008	0.00000E+000	3.55450E-001	1.00179E-003	5	..........a	-327.66
	129	26	3.45479E-001	-1.78206E-008	0.00000E+000	3.45450E-001	9.62892E-004	5	..........a	-327.66
	130	26.2	3.35562E-001	-2.10127E-008	0.00000E+000	3.35450E-001	9.89492E-004	5	..........a	-327.66
	131	26.4	3.25501E-001	-2.39831E-008	0.00000E+000	3.25450E-001	9.74292E-004	5	..........a	-327.66
	132	26.6	3.15491E-001	-2.70442E-008	0.00000E+000	3.15450E-001	9.84092E-004	5	..........a	-327.66
	133	26.8	3.05469E-001	-3.00851E-008	0.00000E+000	3.05450E-001	9.70992E-004	5	..........a	-327.66
	134	27	2.95578E-001	-3.29838E-008	0.00000E+000	2.95450E-001	9.75792E-004	5	..........a	-327.66
	135	27.2	2.85485E-001	-3.59058E-008	0.00000E+000	2.85450E-001	9.94892E-004	5	..........a	-327.66
	136	27.4	2.75476E-001	-3.87355E-008	0.00000E+000	2.75450E-001	9.72792E-004	5	..........a	-327.66
	137	27.6	2.65482E-001	-4.15454E-008	0.00000E+000	2.65450E-001	9.79092E-004	5	..........a	-327.66
	138	27.8	2.55567E-001	-4.43398E-008	0.00000E+000	2.55450E-001	9.70392E-004	5	..........a	-327.66
	139	28	2.45487E-001	-4.70437E-008	0.00000E+000	2.45450E-001	9.89292E-004	5	..........a	-327.66
	140	28.2	2.35489E-001	-4.96684E-008	0.00000E+000	2.35450E-001	9.92292E-004	5	..........a	-327.66
	141	28.4	2.25495E-001	-5.22779E-008	0.00000E+000	2.25450E-001	9.82992E-004	5	..........a	-327.66
	142	28.6	2.15559E-001	-5.48383E-008	0.00000E+000	2.15450E-001	9.78792E-004	5	..........a	-327.66
	143	28.8	2.05482E-001	-5.73414E-008	0.00000E+000	2.05450E-001	9.93492E-004	5	..........a	-327.66
	144	29	1.95551E-001	-5.98202E-008	0.00000E+000	1.95450E-001	9.74192E-004	5	..........a	-327.66
	145	29.2	1.85532E-001	-6.22108E-008	0.00000E+000	1.85450E-001	9.77892E-004	5	..........a	-327.66
	146	29.4	1.75584E-001	-6.45117E-008	0.00000E+000	1.75450E-001	9.98992E-004	5	..........a	-327.66
	147	29.6	1.65542E-001	-6.67413E-008	0.00000E+000	1.65450E-001	9.79292E-004	5	..........a	-327.66
	148	29.8	1.55533E-001	-6.88439E-008	0.00000E+000	1.55450E-001	9.94292E-004	5	..........a	-327.66
	149	30	1.45555E-001	-7.08331E-008	0.00000E+000	1.45450E-001	9.96692E-004	5	..........a	-327.66
	150	30.2	1.35600E-001	-7.27658E-008	0.00000E+000	1.35450E-001	9.96292E-004	5	..........a	-327.66
	151	30.4	1.25576E-001	-7.46139E-008	0.00000E+000	1.25450E-001	9.75892E-004	5	..........a	-327.66
	152	30.6	1.15574E-001	-7.64426E-008	0.00000E+000	1.15450E-001	9.93592E-004	5	..........a	-327.66
	153	30.8	1.05540E-001	-7.82561E-008	0.00000E+000	1.05450E-001	9.93692E-004	5	..........a	-327.66
	154	31	9.55630E-002	-8.00300E-008	0.00000E+000	9.54500E-002	9.89392E-004	5	..........a	-327.66
	155	31.2	8.55624E-002	-8.18429E-008	0.00000E+000	8.54500E-002	9.81792E-004	5	..........a	-327.66
	156	31.4	7.55313E-002	-8.35855E-008	0.00000E+000	7.54500E-002	9.94692E-004	5	..........a	-327.66
	157	31.6	6.55728E-002	-8.52149E-008	0.00000E+000	6.54500E-002	9.75992E-004	5	..........a	-327.66
	158	31.8	5.56072E-002	-8.68137E-008	0.00000E+000	5.54500E-002	1.00029E-003	5	..........a	-327.66
	159	32	4.55887E-002	-8.83989E-008	0.00000E+000	4.54500E-002	9.80592E-004	5	..........a	-327.66
	160	32.2	3.55820E-002	-8.99230E-008	0.00000E+000	3.54500E-002	1.00189E-003	5	..........a	-327.66
	161	32.4	2.55293E-002	-9.14580E-008	0.00000E+000	2.54500E-002	9.96792E-004	5	..........a	-327.66
	162	32.6	1.55955E-002	-9.30836E-008	0.00000E+000	1.54500E-002	9.81092E-004	5	..........a	-327.66
	163	32.8	5.58159E-003	-9.53758E-008	0.00000E+000	5.45000E-003	9.78992E-004	5	..........a	-327.66
	164	33	-4.44611E-003	-9.89171E-008	0.00000E+000	-4.55000E-003	9.97992E-004	5	..........a	-327.66
	165	33.2	-1.44369E-002	-1.00106E-007	0.00000E+000	-1.45500E-002	9.99992E-004	5	..........a	-327.66
	166	33.4	-2.43896E-002	-1.01537E-007	0.00000E+000	-2.45500E-002	9.99592E-004	5	..........a	-327.66
	167	33.6	-3.44543E-002	-1.01638E-007	0.00000E+000	-3.45500E-002	9.72592E-004	5	..........a	-327.66
	168	33.8	-4.44254E-002	-1.03141E-007	0.00000E+000	-4.45500E-002	9.70592E-004	5	..........a	-327.66
	169	34	-5.44561E-002	-1.05038E-007	0.00000E+000	-5.45500E-002	9.87892E-004	5	..........a	-327.66
	170	34.2	-6.44090E-002	-1.07485E-007	0.00000E+000	-6.45500E-002	9.91892E-004	5	..........a	-327.66
	171	34.4	-7.44351E-002	-1.08266E-007	0.00000E+000	-7.45500E-002	9.76592E-004	5	..........a	-327.66
	172	34.6	-8.44497E-002	-1.09614E-007	0.00000E+000	-8.45500E-002	1.00159E-003	5	..........a	-327.66
	173	34.8	-9.44400E-002	-1.10842E-007	0.00000E+000	-9.45500E-002	9.91692E-004	5	..........a	-327.66
	174	35	-1.04388E-001	-1.13439E-007	0.00000E+000	-1.04550E-001	9.82592E-004	5	..........a	-327.66
	175	35.2	-1.14438E-001	-1.14847E-007	0.00000E+000	-1.14550E-001	9.76092E-004	5	..........a	-327.66
	176	35.4	-1.24464E-001	-1.16283E-007	0.00000E+000	-1.24550E-001	9.88792E-004	5	..........a	-327.66
	177	35.6	-1.34458E-001	-1.18508E-007	0.00000E+000	-1.34550E-001	9.91892E-004	5	..........a	-327.66
	178	35.8	-1.44398E-001	-1.19419E-007	0.00000E+000	-1.44550E-001	9.84492E-004	5	..........a	-327.66
	179	36	-1.54446E-001	-1.21593E-007	0.00000E+000	-1.54550E-001	9.92092E-004	5	..........a	-327.66
	180	36.2	-1.64380E-001	-1.23607E-007	0.00000E+000	-1.64550E-001	9.79392E-004	5	..........a	-327.66
	181	36.4	-1.74441E-001	-1.26234E-007	0.00000E+000	-1.74550E-001	9.92892E-004	5	..........a	-327.66
	182	36.6	-1.84390E-001	-1.27939E-007	0.00000E+000	-1.84550E-001	9.87092E-004	5	..........a	-327.66
	183	36.8	-1.94424E-001	-1.29237E-007	0.00000E+000	-1.94550E-001	9.79392E-004	5	..........a	-327.66
	184	37	-2.04429E-001	-1.31584E-007	0.00000E+000	-2.04550E-001	9.96592E-004	5	..........a	-327.66
	185	37.2	-2.14398E-001	-1.33592E-007	0.00000E+000	-2.14550E-001	9.93892E-004	5	..........a	-327.66
	186	37.4	-2.24364E-001	-1.36312E-007	0.00000E+000	-2.24550E-001	9.81092E-004	5	..........a	-327.66
	187	37.6	-2.34386E-001	-1.38124E-007	0.00000E+000	-2.34550E-001	9.81792E-004	5	..........a	-327.66
	188	37.8	-2.44381E-001	-1.41078E-007	0.00000E+000	-2.44550E-001	1.00009E-003	5	..........a	-327.66
	189	38	-2.54417E-001	-1.42630E-007	0.00000E+000	-2.54550E-001	9.79492E-004	5	..........a	-327.66
	190	38.2	-2.64362E-001	-1.44111E-007	0.00000E+000	-2.64550E-001	9.91192E-004	5	..........a	-327.66
	191	38.4	-2.74355E-001	-1.46059E-007	0.00000E+000	-2.74550E-001	9.71192E-004	5	..........a	-327.66
	192	38.6	-2.84387E-001	-1.47767E-007	0.00000E+000	-2.84550E-001	9.70892E-004	5	..........a	-327.66
	193	38.8	-2.94384E-001	-1.50203E-007	0.00000E+000	-2.94550E-001	9.99592E-004	5	..........a	-327.66
	194	39	-3.04356E-001	-1.52486E-007	0.00000E+000	-3.04550E-001	9.84292E-004	5	..........a	-327.66
	195	39.2	-3.14363E-001	-1.54968E-007	0.00000E+000	-3.14550E-001	9.73292E-004	5	..........a	-327.66
	196	39.4	-3.24378E-001	-1.57523E-007	0.00000E+000	-3.24550E-001	9.76792E-004	5	..........a	-327.66
	197	39.6	-3.34432E-001	-1.59584E-007	0.00000E+000	-3.34550E-001	1.00039E-003	5	..........a	-327.66
	198	39.8	-3.44338E-001	-1.61977E-007	0.00000E+000	-3.44550E-001	9.79292E-004	5	..........a	-327.66
	199	40	-3.54361E-001	-1.62451E-007	0.00000E+000	-3.54550E-001	9.80992E-004	5	..........a	-327.66
	200	40.2	-3.64417E-001	-1.62788E-007	0.00000E+000	-3.64550E-001	9.94392E-004	5	..........a	-327.66
	201	40.4	-3.74363E-001	-1.64354E-007	0.00000E+000	-3.74550E-001	9.91292E-004	5	..........a	-327.66
	202	40.6	-3.84361E-001	-1.66947E-007	0.00000E+000	-3.84550E-001	9.88892E-004	5	..........a	-327.66
	203	40.8	-3.94354E-001	-1.67357E-007	0.00000E+000	-3.94550E-001	9.68392E-004	5	..........a	-327.66
	204	41	-4.04363E-001	-1.69037E-007	0.00000E+000	-4.04550E-001	9.85492E-004	5	..........a	-327.66
	205	41.2	-4.14355E-001	-1.69885E-007	0.00000E+000	-4.14550E-001	9.88992E-004	5	..........a	-327.66
	206	41.4	-4.24301E-001	-1.71736E-007	0.00000E+000	-4.24550E-001	9.72492E-004	5	..........a	-327.66
	207	41.6	-4.34326E-001	-1.73921E-007	0.00000E+000	-4.34550E-001	9.74892E-004	5	..........a	-327.66
	208	41.8	-4.44331E-001	-1.75141E-007	0.00000E+000	-4.44550E-001	9.84092E-004	5	..........a	-327.66
	209	42	-4.54323E-001	-1.77829E-007	0.00000E+000	-4.54550E-001	9.79692E-004	5	..........a	-327.66
	210	42.2	-4.64293E-001	-1.78806E-007	0.00000E+000	-4.64550E-001	9.81692E-004	5	..........a	-327.66
	211	42.4	-4.74293E-001	-1.80601E-007	0.00000E+000	-4.74550E-001	9.77092E-004	5	..........a	-327.66
	212	42.6	-4.84329E-001	-1.82478E-007	0.00000E+000	-4.84550E-001	9.88892E-004	5	..........a	-327.66
	213	42.8	-4.94329E-001	-1.84832E-007	0.00000E+000	-4.94550E-001	9.74392E-004	5	..........a	-327.66
	214	43	-5.04297E-001	-1.86761E-007	0.00000E+000	-5.04550E-001	9.82792E-004	5	..........a	-327.66
	215	43.2	-5.14289E-001	-1.88682E-007	0.00000E+000	-5.14550E-001	9.69892E-004	5	..........a	-327.66
	216	43.4	-5.24328E-001	-1.90822E-007	0.00000E+000	-5.24550E-001	9.93992E-004	5	..........a	-327.66
	217	43.6	-5.34347E-001	-1.92881E-007	0.00000E+000	-5.34550E-001	9.86292E-004	5	..........a	-327.66
	218	43.8	-5.44348E-001	-1.95169E-007	0.00000E+000	-5.44550E-001	9.89992E-004	5	..........a	-327.66
	219	44	-5.54292E-001	-1.97897E-007	0.00000E+000	-5.54550E-001	9.80892E-004	5	..........a	-327.66
	220	44.2	-5.64335E-001	-2.00413E-007	0.00000E+000	-5.64550E-001	9.82592E-004	5	..........a	-327.66
	221	44.4	-5.74304E-001	-2.02302E-007	0.00000E+000	-5.74550E-001	9.73492E-004	5	..........a	-327.66
	222	44.6	-5.84312E-001	-2.04682E-007	0.00000E+000	-5.84550E-001	9.79492E-004	5	..........a	-327.66
	223	44.8	-5.94252E-001	-2.07297E-007	0.00000E+000	-5.94550E-001	9.83192E-004	5	..........a	-327.66
CURVE2	TABLE
	Pt	T	Vf	Im	Vu	Sig	Ach	IERange	Over	Temp
	#	s	V vs. Ref.	A	V	V	V	#	bits	deg C
	224	45	-5.89792E-001	-1.88800E-007	0.00000E+000	-5.90000E-001	9.72492E-004	5	..........a	-327.66
	225	45.2	-5.79764E-001	-1.69665E-007	0.00000E+000	-5.80000E-001	9.66792E-004	5	..........a	-327.66
	226	45.4	-5.69843E-001	-1.56040E-007	0.00000E+000	-5.70000E-001	9.79492E-004	5	..........a	-327.66
	227	45.6	-5.59839E-001	-1.45525E-007	0.00000E+000	-5.60000E-001	9.88492E-004	5	..........a	-327.66
	228	45.8	-5.49821E-001	-1.35529E-007	0.00000E+000	-5.50000E-001	9.90692E-004	5	..........a	-327.66
	229	46	-5.39744E-001	-1.27074E-007	0.00000E+000	-5.40000E-001	9.80392E-004	5	..........a	-327.66
	230	46.2	-5.29820E-001	-1.19567E-007	0.00000E+000	-5.30000E-001	9.89992E-004	5	..........a	-327.66
	231	46.4	-5.19813E-001	-1.12903E-007	0.00000E+000	-5.20000E-001	9.71692E-004	5	..........a	-327.66
	232	46.6	-5.09823E-001	-1.06139E-007	0.00000E+000	-5.10000E-001	9.83092E-004	5	..........a	-327.66
	233	46.8	-4.99800E-001	-9.95147E-008	0.00000E+000	-5.00000E-001	9.71292E-004	5	..........a	-327.66
	234	47	-4.89823E-001	-9.34307E-008	0.00000E+000	-4.90000E-001	9.80792E-004	5	..........a	-327.66
	235	47.2	-4.79800E-001	-8.77756E-008	0.00000E+000	-4.80000E-001	9.95492E-004	5	..........a	-327.66
	236	47.4	-4.69827E-001	-8.23642E-008	0.00000E+000	-4.70000E-001	9.67792E-004	5	..........a	-327.66
	237	47.6	-4.59778E-001	-7.68881E-008	0.00000E+000	-4.60000E-001	9.66892E-004	5	..........a	-327.66
	238	47.8	-4.49828E-001	-7.21214E-008	0.00000E+000	-4.50000E-001	9.73292E-004	5	..........a	-327.66
	239	48	-4.39815E-001	-6.71606E-008	0.00000E+000	-4.40000E-001	9.79492E-004	5	..........a	-327.66
	240	48.2	-4.29845E-001	-6.24611E-008	0.00000E+000	-4.30000E-001	9.77392E-004	5	..........a	-327.66
	241	48.4	-4.19740E-001	-5.78249E-008	0.00000E+000	-4.20000E-001	9.86492E-004	5	..........a	-327.66
	242	48.6	-4.09857E-001	-5.37840E-008	0.00000E+000	-4.10000E-001	9.95492E-004	5	..........a	-327.66
	243	48.8	-3.99841E-001	-4.96857E-008	0.00000E+000	-4.00000E-001	9.67492E-004	5	..........a	-327.66
	244	49	-3.89875E-001	-4.58265E-008	0.00000E+000	-3.90000E-001	9.67292E-004	5	..........a	-327.66
	245	49.2	-3.79828E-001	-4.20092E-008	0.00000E+000	-3.80000E-001	9.82992E-004	5	..........a	-327.66
	246	49.4	-3.69870E-001	-3.82031E-008	0.00000E+000	-3.70000E-001	9.81292E-004	5	..........a	-327.66
	247	49.6	-3.59864E-001	-3.45836E-008	0.00000E+000	-3.60000E-001	9.77092E-004	5	..........a	-327.66
	248	49.8	-3.49864E-001	-3.11160E-008	0.00000E+000	-3.50000E-001	9.81092E-004	5	..........a	-327.66
	249	50	-3.39811E-001	-2.78588E-008	0.00000E+000	-3.40000E-001	9.74692E-004	5	..........a	-327.66
	250	50.2	-3.29876E-001	-2.45146E-008	0.00000E+000	-3.30000E-001	9.76892E-004	5	..........a	-327.66
	251	50.4	-3.19865E-001	-2.13348E-008	0.00000E+000	-3.20000E-001	9.68292E-004	5	..........a	-327.66
	252	50.6	-3.09881E-001	-1.84085E-008	0.00000E+000	-3.10000E-001	9.73592E-004	5	..........a	-327.66
	253	50.8	-2.99844E-001	-1.51706E-008	0.00000E+000	-3.00000E-001	9.70392E-004	5	..........a	-327.66
	254	51	-2.89907E-001	-1.22040E-008	0.00000E+000	-2.90000E-001	9.89492E-004	5	..........a	-327.66
	255	51.2	-2.79862E-001	-9.26343E-009	0.00000E+000	-2.80000E-001	9.81492E-004	5	..........a	-327.66
	256	51.4	-2.69865E-001	-6.36765E-009	0.00000E+000	-2.70000E-001	9.92792E-004	5	..........a	-327.66
	257	51.6	-2.59835E-001	-3.64999E-009	0.00000E+000	-2.60000E-001	9.64792E-004	5	..........a	-327.66
	258	51.8	-2.49898E-001	-8.20624E-010	0.00000E+000	-2.50000E-001	9.89292E-004	5	..........a	-327.66
	259	52	-2.39948E-001	1.95019E-009	0.00000E+000	-2.40000E-001	9.83292E-004	5	..........a	-327.66
	260	52.2	-2.29955E-001	4.72408E-009	0.00000E+000	-2.30000E-001	1.00549E-003	5	..........a	-327.66
	261	52.4	-2.19888E-001	7.53937E-009	0.00000E+000	-2.20000E-001	9.85992E-004	5	..........a	-327.66
	262	52.6	-2.09911E-001	1.01447E-008	0.00000E+000	-2.10000E-001	9.82092E-004	5	..........a	-327.66
	263	52.8	-1.99990E-001	1.29332E-008	0.00000E+000	-2.00000E-001	9.92892E-004	5	..........a	-327.66
	264	53	-1.90050E-001	1.55970E-008	0.00000E+000	-1.90000E-001	9.91392E-004	5	..........a	-327.66
	265	53.2	-1.79922E-001	1.82327E-008	0.00000E+000	-1.80000E-001	9.85492E-004	5	..........a	-327.66
	266	53.4	-1.69905E-001	2.08581E-008	0.00000E+000	-1.70000E-001	9.80392E-004	5	..........a	-327.66
	267	53.6	-1.60023E-001	2.34664E-008	0.00000E+000	-1.60000E-001	9.92692E-004	5	..........a	-327.66
	268	53.8	-1.49962E-001	2.60473E-008	0.00000E+000	-1.50000E-001	9.93692E-004	5	..........a	-327.66
	269	54	-1.39912E-001	2.86174E-008	0.00000E+000	-1.40000E-001	9.85792E-004	5	..........a	-327.66
	270	54.2	-1.29956E-001	3.11845E-008	0.00000E+000	-1.30000E-001	1.00239E-003	5	..........a	-327.66
	271	54.4	-1.19977E-001	3.37940E-008	0.00000E+000	-1.20000E-001	9.85992E-004	5	..........a	-327.66
	272	54.6	-1.09965E-001	3.63402E-008	0.00000E+000	-1.10000E-001	9.88792E-004	5	..........a	-327.66
	273	54.8	-9.99294E-002	3.89493E-008	0.00000E+000	-1.00000E-001	9.74892E-004	5	..........a	-327.66
	274	55	-8.99154E-002	4.14800E-008	0.00000E+000	-9.00000E-002	9.81492E-004	5	..........a	-327.66
	275	55.2	-8.00078E-002	4.40987E-008	0.00000E+000	-8.00000E-002	9.99092E-004	5	..........a	-327.66
	276	55.4	-6.99328E-002	4.66400E-008	0.00000E+000	-7.00000E-002	9.77592E-004	5	..........a	-327.66
	277	55.6	-5.98792E-002	4.91870E-008	0.00000E+000	-6.00000E-002	9.82492E-004	5	..........a	-327.66
	278	55.8	-4.99134E-002	5.16903E-008	0.00000E+000	-5.00000E-002	9.90792E-004	5	..........a	-327.66
	279	56	-3.99504E-002	5.42898E-008	0.00000E+000	-4.00000E-002	1.00319E-003	5	..........a	-327.66
	280	56.2	-2.99628E-002	5.68190E-008	0.00000E+000	-3.00000E-002	9.94592E-004	5	..........a	-327.66
	281	56.4	-1.99525E-002	5.93997E-008	0.00000E+000	-2.00000E-002	9.81492E-004	5	..........a	-327.66
	282	56.6	-9.88901E-003	6.19563E-008	0.00000E+000	-1.00000E-002	9.83092E-004	5	..........a	-327.66
	283	56.8	-2.18583E-005	6.45434E-008	0.00000E+000	7.45058E-009	9.95692E-004	5	..........a	-327.66
	284	57	1.00780E-002	6.70896E-008	0.00000E+000	1.00000E-002	9.94892E-004	5	..........a	-327.66
	285	57.2	2.00976E-002	6.96934E-008	0.00000E+000	2.00000E-002	9.97892E-004	5	..........a	-327.66
	286	57.4	3.00384E-002	7.22935E-008	0.00000E+000	3.00000E-002	9.85692E-004	5	..........a	-327.66
	287	57.6	4.00413E-002	7.49007E-008	0.00000E+000	4.00000E-002	9.59492E-004	5	..........a	-327.66
	288	57.8	5.00314E-002	7.75574E-008	0.00000E+000	5.00000E-002	9.92392E-004	5	..........a	-327.66
	289	58	6.00487E-002	8.01901E-008	0.00000E+000	6.00000E-002	9.78492E-004	5	..........a	-327.66
	290	58.2	6.99799E-002	8.28994E-008	0.00000E+000	7.00000E-002	9.96192E-004	5	..........a	-327.66
	291	58.4	7.99634E-002	8.56326E-008	0.00000E+000	8.00000E-002	9.73992E-004	5	..........a	-327.66
	292	58.6	9.00640E-002	8.83781E-008	0.00000E+000	9.00000E-002	9.81792E-004	5	..........a	-327.66
	293	58.8	1.00048E-001	9.11928E-008	0.00000E+000	1.00000E-001	9.63892E-004	5	..........a	-327.66
	294	59	1.10039E-001	9.53705E-008	0.00000E+000	1.10000E-001	9.74792E-004	5	..........a	-327.66
	295	59.2	1.19997E-001	9.91866E-008	0.00000E+000	1.20000E-001	9.73392E-004	5	..........a	-327.66
	296	59.4	1.29993E-001	1.00946E-007	0.00000E+000	1.30000E-001	9.90492E-004	5	..........a	-327.66
	297	59.6	1.40060E-001	1.03143E-007	0.00000E+000	1.40000E-001	9.74192E-004	5	..........a	-327.66
	298	59.8	1.50002E-001	1.05818E-007	0.00000E+000	1.50000E-001	9.77192E-004	5	..........a	-327.66
	299	60	1.60016E-001	1.08600E-007	0.00000E+000	1.60000E-001	9.91592E-004	5	..........a	-327.66
	300	60.2	1.70023E-001	1.11590E-007	0.00000E+000	1.70000E-001	9.88492E-004	5	..........a	-327.66
	301	60.4	1.80018E-001	1.14781E-007	0.00000E+000	1.80000E-001	9.84192E-004	5	..........a	-327.66
	302	60.6	1.90062E-001	1.17731E-007	0.00000E+000	1.90000E-001	9.70592E-004	5	..........a	-327.66
	303	60.8	1.99988E-001	1.20723E-007	0.00000E+000	2.00000E-001	9.83592E-004	5	..........a	-327.66
	304	61	2.09957E-001	1.23683E-007	0.00000E+000	2.10000E-001	9.83592E-004	5	..........a	-327.66
	305	61.2	2.20013E-001	1.26686E-007	0.00000E+000	2.20000E-001	9.76992E-004	5	..........a	-327.66
	306	61.4	2.29974E-001	1.29530E-007	0.00000E+000	2.30000E-001	9.97992E-004	5	..........a	-327.66
	307	61.6	2.39975E-001	1.32358E-007	0.00000E+000	2.40000E-001	9.92792E-004	5	..........a	-327.66
	308	61.8	2.49933E-001	1.35130E-007	0.00000E+000	2.50000E-001	9.88592E-004	5	..........a	-327.66
	309	62	2.59975E-001	1.37974E-007	0.00000E+000	2.60000E-001	9.83092E-004	5	..........a	-327.66
	310	62.2	2.70033E-001	1.40904E-007	0.00000E+000	2.70000E-001	9.90392E-004	5	..........a	-327.66
	311	62.4	2.79923E-001	1.43874E-007	0.00000E+000	2.80000E-001	9.78592E-004	5	..........a	-327.66
	312	62.6	2.89954E-001	1.46808E-007	0.00000E+000	2.90000E-001	9.78292E-004	5	..........a	-327.66
	313	62.8	2.99971E-001	1.49781E-007	0.00000E+000	3.00000E-001	9.87292E-004	5	..........a	-327.66
	314	63	3.09999E-001	1.52838E-007	0.00000E+000	3.10000E-001	9.93192E-004	5	..........a	-327.66
	315	63.2	3.19949E-001	1.55947E-007	0.00000E+000	3.20000E-001	9.80992E-004	5	..........a	-327.66
	316	63.4	3.29979E-001	1.59038E-007	0.00000E+000	3.30000E-001	9.80092E-004	5	..........a	-327.66
	317	63.6	3.39969E-001	1.62196E-007	0.00000E+000	3.40000E-001	9.64392E-004	5	..........a	-327.66
	318	63.8	3.49972E-001	1.65399E-007	0.00000E+000	3.50000E-001	9.78392E-004	5	..........a	-327.66
	319	64	3.59928E-001	1.68554E-007	0.00000E+000	3.60000E-001	9.97992E-004	5	..........a	-327.66
	320	64.2	3.69943E-001	1.71711E-007	0.00000E+000	3.70000E-001	9.77992E-004	5	..........a	-327.66
	321	64.4	3.79958E-001	1.74913E-007	0.00000E+000	3.80000E-001	9.82692E-004	5	..........a	-327.66
	322	64.6	3.89985E-001	1.78155E-007	0.00000E+000	3.90000E-001	9.81492E-004	5	..........a	-327.66
	323	64.8	3.99922E-001	1.81456E-007	0.00000E+000	4.00000E-001	9.75192E-004	5	..........a	-327.66
	324	65	4.09916E-001	1.84673E-007	0.00000E+000	4.10000E-001	9.90992E-004	5	..........a	-327.66
	325	65.2	4.19911E-001	1.88039E-007	0.00000E+000	4.20000E-001	9.77592E-004	5	..........a	-327.66
	326	65.4	4.29962E-001	1.91374E-007	0.00000E+000	4.30000E-001	1.00329E-003	5	..........a	-327.66
	327	65.6	4.39900E-001	1.94679E-007	0.00000E+000	4.40000E-001	9.77992E-004	5	..........a	-327.66
	328	65.8	4.49932E-001	1.98052E-007	0.00000E+000	4.50000E-001	9.78492E-004	5	..........a	-327.66
	329	66	4.59898E-001	2.01414E-007	0.00000E+000	4.60000E-001	9.90292E-004	5	..........a	-327.66
	330	66.2	4.69948E-001	2.04780E-007	0.00000E+000	4.70000E-001	9.68292E-004	5	..........a	-327.66
	331	66.4	4.79873E-001	2.08201E-007	0.00000E+000	4.80000E-001	9.93292E-004	5	..........a	-327.66
	332	66.6	4.89883E-001	2.11555E-007	0.00000E+000	4.90000E-001	9.79292E-004	5	..........a	-327.66
	333	66.8	4.99924E-001	2.15009E-007	0.00000E+000	5.00000E-001	9.89792E-004	5	..........a	-327.66
	334	67	5.09952E-001	2.18381E-007	0.00000E+000	5.10000E-001	9.69992E-004	5	..........a	-327.66
	335	67.2	5.19883E-001	2.22113E-007	0.00000E+000	5.20000E-001	9.81292E-004	5	..........a	-327.66
	336	67.4	5.29899E-001	2.25487E-007	0.00000E+000	5.30000E-001	9.85292E-004	5	..........a	-327.66
	337	67.6	5.39896E-001	2.29295E-007	0.00000E+000	5.40000E-001	9.76492E-004	5	..........a	-327.66
	338	67.8	5.49935E-001	2.33278E-007	0.00000E+000	5.50000E-001	9.88092E-004	5	..........a	-327.66
	339	68	5.59882E-001	2.37477E-007	0.00000E+000	5.60000E-001	9.81292E-004	5	..........a	-327.66
	340	68.2	5.69903E-001	2.41757E-007	0.00000E+000	5.70000E-001	9.84792E-004	5	..........a	-327.66
	341	68.4	5.79884E-001	2.46341E-007	0.00000E+000	5.80000E-001	9.78592E-004	5	..........a	-327.66
	342	68.6	5.89953E-001	2.51138E-007	0.00000E+000	5.90000E-001	9.82992E-004	5	..........a	-327.66
	343	68.8	5.99855E-001	2.56139E-007	0.00000E+000	6.00000E-001	9.84092E-004	5	..........a	-327.66
	344	69	6.09883E-001	2.61376E-007	0.00000E+000	6.10000E-001	9.83092E-004	5	..........a	-327.66
	345	69.2	6.19830E-001	2.66842E-007	0.00000E+000	6.20000E-001	9.85592E-004	5	..........a	-327.66
	346	69.4	6.29921E-001	2.72578E-007	0.00000E+000	6.30000E-001	9.77592E-004	5	..........a	-327.66
	347	69.6	6.39805E-001	2.78535E-007	0.00000E+000	6.40000E-001	9.83992E-004	5	..........a	-327.66
	348	69.8	6.49826E-001	2.84796E-007	0.00000E+000	6.50000E-001	9.90692E-004	5	..........a	-327.66
	349	70	6.59819E-001	2.91317E-007	0.00000E+000	6.60000E-001	9.74992E-004	5	..........a	-327.66
	350	70.2	6.69887E-001	2.98068E-007	0.00000E+000	6.70000E-001	9.92392E-004	5	..........a	-327.66
	351	70.4	6.79843E-001	3.05113E-007	0.00000E+000	6.80000E-001	9.80492E-004	5	..........a	-327.66
	352	70.6	6.89814E-001	3.12517E-007	0.00000E+000	6.90000E-001	9.86392E-004	5	..........a	-327.66
	353	70.8	6.99795E-001	3.20278E-007	0.00000E+000	7.00000E-001	9.83892E-004	5	..........a	-327.66
	354	71	7.09897E-001	3.28420E-007	0.00000E+000	7.10000E-001	9.72092E-004	5	..........a	-327.66
[...]
	920	184.2	7.69788E-001	3.54439E-007	0.00000E+000	7.70000E-001	9.90192E-004	5	..........a	-327.66
	921	184.4	7.79782E-001	3.65056E-007	0.00000E+000	7.80000E-001	9.83192E-004	5	..........a	-327.66
	922	184.6	7.89890E-001	3.76535E-007	0.00000E+000	7.90000E-001	9.80592E-004	5	..........a	-327.66
	923	184.8	7.99769E-001	3.88618E-007	0.00000E+000	8.00000E-001	9.75292E-004	5	..........a	-327.66
	924	185	7.89903E-001	3.32645E-007	0.00000E+000	7.90000E-001	9.87092E-004	5	..........a	-327.66
	925	185.2	7.79807E-001	2.94994E-007	0.00000E+000	7.80000E-001	9.86392E-004	5	..........a	-327.66
	926	185.4	7.69839E-001	2.65580E-007	0.00000E+000	7.70000E-001	9.81692E-004	5	..........a	-327.66
	927	185.6	7.59856E-001	2.41471E-007	0.00000E+000	7.60000E-001	9.73692E-004	5	..........a	-327.66
	928	185.8	7.49926E-001	2.20930E-007	0.00000E+000	7.50000E-001	9.92092E-004	5	..........a	-327.66
	929	186	7.39859E-001	2.02994E-007	0.00000E+000	7.40000E-001	9.88792E-004	5	..........a	-327.66
	930	186.2	7.29848E-001	1.87168E-007	0.00000E+000	7.30000E-001	9.80592E-004	5	..........a	-327.66
	931	186.4	7.19863E-001	1.72960E-007	0.00000E+000	7.20000E-001	9.73992E-004	5	..........a	-327.66
	932	186.6	7.09975E-001	1.60140E-007	0.00000E+000	7.10000E-001	9.88892E-004	5	..........a	-327.66
	933	186.8	6.99885E-001	1.48504E-007	0.00000E+000	7.00000E-001	9.94392E-004	5	..........a	-327.66
	934	187	6.89899E-001	1.37804E-007	0.00000E+000	6.90000E-001	9.93492E-004	5	..........a	-327.66
	935	187.2	6.79924E-001	1.27970E-007	0.00000E+000	6.80000E-001	9.73892E-004	5	..........a	-327.66
	936	187.4	6.69963E-001	1.18856E-007	0.00000E+000	6.70000E-001	9.78292E-004	5	..........a	-327.66
	937	187.6	6.59908E-001	1.10421E-007	0.00000E+000	6.60000E-001	9.65392E-004	5	..........a	-327.66
	938	187.8	6.49912E-001	1.02542E-007	0.00000E+000	6.50000E-001	9.90192E-004	5	..........a	-327.66
	939	188	6.39875E-001	9.52462E-008	0.00000E+000	6.40000E-001	9.86292E-004	5	..........a	-327.66
	940	188.2	6.30010E-001	8.84229E-008	0.00000E+000	6.30000E-001	9.96892E-004	5	..........a	-327.66
	941	188.4	6.19917E-001	8.19346E-008	0.00000E+000	6.20000E-001	9.77292E-004	5	..........a	-327.66
	942	188.6	6.09960E-001	7.59065E-008	0.00000E+000	6.10000E-001	9.89592E-004	5	..........a	-327.66
	943	188.8	5.99960E-001	7.01361E-008	0.00000E+000	6.00000E-001	9.90092E-004	5	..........a	-327.66
	944	189	5.90001E-001	6.46696E-008	0.00000E+000	5.90000E-001	9.86092E-004	5	..........a	-327.66
	945	189.2	5.79982E-001	5.94651E-008	0.00000E+000	5.80000E-001	9.70592E-004	5	..........a	-327.66
	946	189.4	5.69956E-001	5.45231E-008	0.00000E+000	5.70000E-001	9.91892E-004	5	..........a	-327.66
	947	189.6	5.59948E-001	4.98215E-008	0.00000E+000	5.60000E-001	9.65292E-004	5	..........a	-327.66
	948	189.8	5.50029E-001	4.52957E-008	0.00000E+000	5.50000E-001	9.83992E-004	5	..........a	-327.66
	949	190	5.39996E-001	4.09363E-008	0.00000E+000	5.40000E-001	9.64792E-004	5	..........a	-327.66
	950	190.2	5.29983E-001	3.67299E-008	0.00000E+000	5.30000E-001	9.76492E-004	5	..........a	-327.66
	951	190.4	5.19979E-001	3.25655E-008	0.00000E+000	5.20000E-001	9.90592E-004	5	..........a	-327.66
	952	190.6	5.09985E-001	2.86000E-008	0.00000E+000	5.10000E-001	9.86592E-004	5	..........a	-327.66
	953	190.8	5.00059E-001	2.49035E-008	0.00000E+000	5.00000E-001	9.60692E-004	5	..........a	-327.66
	954	191	4.89961E-001	2.12272E-008	0.00000E+000	4.90000E-001	9.87492E-004	5	..........a	-327.66
	955	191.2	4.79938E-001	1.76782E-008	0.00000E+000	4.80000E-001	9.75092E-004	5	..........a	-327.66
	956	191.4	4.70031E-001	1.42006E-008	0.00000E+000	4.70000E-001	9.85592E-004	5	..........a	-327.66
	957	191.6	4.60022E-001	1.08662E-008	0.00000E+000	4.60000E-001	9.70892E-004	5	..........a	-327.66
	958	191.8	4.49916E-001	7.59324E-009	0.00000E+000	4.50000E-001	9.65392E-004	5	..........a	-327.66
	959	192	4.39961E-001	4.33523E-009	0.00000E+000	4.40000E-001	9.94192E-004	5	..........a	-327.66
	960	192.2	4.29983E-001	1.13223E-009	0.00000E+000	4.30000E-001	9.87992E-004	5	..........a	-327.66
	961	192.4	4.20029E-001	-2.11078E-009	0.00000E+000	4.20000E-001	9.70692E-004	5	..........a	-327.66
	962	192.6	4.10036E-001	-5.26867E-009	0.00000E+000	4.10000E-001	9.82492E-004	5	..........a	-327.66
	963	192.8	4.00041E-001	-8.26487E-009	0.00000E+000	4.00000E-001	9.82092E-004	5	..........a	-327.66
	964	193	3.90071E-001	-1.13348E-008	0.00000E+000	3.90000E-001	9.80892E-004	5	..........a	-327.66
	965	193.2	3.80083E-001	-1.43367E-008	0.00000E+000	3.80000E-001	9.65392E-004	5	..........a	-327.66
	966	193.4	3.70067E-001	-1.72578E-008	0.00000E+000	3.70000E-001	9.88792E-004	5	..........a	-327.66
	967	193.6	3.60043E-001	-2.01601E-008	0.00000E+000	3.60000E-001	9.78492E-004	5	..........a	-327.66
	968	193.8	3.50060E-001	-2.30753E-008	0.00000E+000	3.50000E-001	9.78892E-004	5	..........a	-327.66
	969	194	3.40104E-001	-2.59181E-008	0.00000E+000	3.40000E-001	9.63492E-004	5	..........a	-327.66
	970	194.2	3.30052E-001	-2.86852E-008	0.00000E+000	3.30000E-001	9.75692E-004	5	..........a	-327.66
	971	194.4	3.20067E-001	-3.14936E-008	0.00000E+000	3.20000E-001	9.78792E-004	5	..........a	-327.66
	972	194.6	3.10064E-001	-3.42103E-008	0.00000E+000	3.10000E-001	9.75792E-004	5	..........a	-327.66
	973	194.8	3.00093E-001	-3.69127E-008	0.00000E+000	3.00000E-001	9.58592E-004	5	..........a	-327.66
	974	195	2.90063E-001	-3.95333E-008	0.00000E+000	2.90000E-001	9.61692E-004	5	..........a	-327.66
	975	195.2	2.80021E-001	-4.21997E-008	0.00000E+000	2.80000E-001	9.85092E-004	5	..........a	-327.66
	976	195.4	2.70113E-001	-4.46487E-008	0.00000E+000	2.70000E-001	9.84692E-004	5	..........a	-327.66
	977	195.6	2.60098E-001	-4.70737E-008	0.00000E+000	2.60000E-001	9.66492E-004	5	..........a	-327.66
	978	195.8	2.50053E-001	-4.93995E-008	0.00000E+000	2.50000E-001	9.77492E-004	5	..........a	-327.66
	979	196	2.40073E-001	-5.18781E-008	0.00000E+000	2.40000E-001	9.89392E-004	5	..........a	-327.66
	980	196.2	2.30034E-001	-5.41522E-008	0.00000E+000	2.30000E-001	9.80092E-004	5	..........a	-327.66
	981	196.4	2.20098E-001	-5.63361E-008	0.00000E+000	2.20000E-001	9.61592E-004	5	..........a	-327.66
	982	196.6	2.10055E-001	-5.85616E-008	0.00000E+000	2.10000E-001	9.71492E-004	5	..........a	-327.66
	983	196.8	2.00095E-001	-6.06771E-008	0.00000E+000	2.00000E-001	9.94992E-004	5	..........a	-327.66
	984	197	1.90128E-001	-6.28501E-008	0.00000E+000	1.90000E-001	9.82492E-004	5	..........a	-327.66
	985	197.2	1.80137E-001	-6.47675E-008	0.00000E+000	1.80000E-001	9.51992E-004	5	..........a	-327.66
	986	197.4	1.70113E-001	-6.66918E-008	0.00000E+000	1.70000E-001	9.67992E-004	5	..........a	-327.66
	987	197.6	1.60101E-001	-6.86040E-008	0.00000E+000	1.60000E-001	9.82892E-004	5	..........a	-327.66
	988	197.8	1.50107E-001	-7.05361E-008	0.00000E+000	1.50000E-001	9.86492E-004	5	..........a	-327.66
	989	198	1.40152E-001	-7.23147E-008	0.00000E+000	1.40000E-001	9.75492E-004	5	..........a	-327.66
	990	198.2	1.30102E-001	-7.41702E-008	0.00000E+000	1.30000E-001	9.79592E-004	5	..........a	-327.66
	991	198.4	1.20109E-001	-7.59481E-008	0.00000E+000	1.20000E-001	9.93292E-004	5	..........a	-327.66
	992	198.6	1.10126E-001	-7.77719E-008	0.00000E+000	1.10000E-001	9.75492E-004	5	..........a	-327.66
	993	198.8	1.00178E-001	-7.94852E-008	0.00000E+000	1.00000E-001	9.62892E-004	5	..........a	-327.66
	994	199	9.01337E-002	-8.11297E-008	0.00000E+000	9.00000E-002	9.69892E-004	5	..........a	-327.66
	995	199.2	8.00833E-002	-8.26985E-008	0.00000E+000	8.00000E-002	9.70092E-004	5	..........a	-327.66
	996	199.4	7.00895E-002	-8.40802E-008	0.00000E+000	7.00000E-002	9.87092E-004	5	..........a	-327.66
	997	199.6	6.01642E-002	-8.53921E-008	0.00000E+000	6.00000E-002	9.66292E-004	5	..........a	-327.66
	998	199.8	5.01206E-002	-8.67592E-008	0.00000E+000	5.00000E-002	9.85692E-004	5	..........a	-327.66
	999	200	4.01614E-002	-8.82997E-008	0.00000E+000	4.00000E-002	9.77192E-004	5	..........a	-327.66
	1000	200.2	3.01098E-002	-8.99535E-008	0.00000E+000	3.00000E-002	9.79792E-004	5	..........a	-327.66
	1001	200.4	2.02250E-002	-9.19922E-008	0.00000E+000	2.00000E-002	9.64192E-004	5	..........a	-327.66
	1002	200.6	1.01440E-002	-9.37067E-008	0.00000E+000	1.00000E-002	9.68492E-004	5	..........a	-327.66
	1003	200.8	1.00192E-004	-9.53023E-008	0.00000E+000	7.45058E-009	9.89492E-004	5	..........a	-327.66
	1004	201	-9.84711E-003	-9.61405E-008	0.00000E+000	-1.00000E-002	9.62592E-004	5	..........a	-327.66
	1005	201.2	-1.98565E-002	-9.78776E-008	0.00000E+000	-2.00000E-002	9.73892E-004	5	..........a	-327.66
	1006	201.4	-2.98863E-002	-9.92645E-008	0.00000E+000	-3.00000E-002	9.78292E-004	5	..........a	-327.66
	1007	201.6	-3.98625E-002	-1.00727E-007	0.00000E+000	-4.00000E-002	9.66392E-004	5	..........a	-327.66
	1008	201.8	-4.98652E-002	-1.02170E-007	0.00000E+000	-5.00000E-002	9.73492E-004	5	..........a	-327.66
	1009	202	-5.98144E-002	-1.04047E-007	0.00000E+000	-6.00000E-002	9.72392E-004	5	..........a	-327.66
	1010	202.2	-6.98694E-002	-1.05962E-007	0.00000E+000	-7.00000E-002	9.74092E-004	5	..........a	-327.66
	1011	202.4	-7.98631E-002	-1.07805E-007	0.00000E+000	-8.00000E-002	9.75392E-004	5	..........a	-327.66
	1012	202.6	-8.98590E-002	-1.09501E-007	0.00000E+000	-9.00000E-002	9.77092E-004	5	..........a	-327.66
	1013	202.8	-9.98275E-002	-1.11498E-007	0.00000E+000	-1.00000E-001	9.59292E-004	5	..........a	-327.66
	1014	203	-1.09909E-001	-1.13439E-007	0.00000E+000	-1.10000E-001	9.82192E-004	5	..........a	-327.66
	1015	203.2	-1.19880E-001	-1.15212E-007	0.00000E+000	-1.20000E-001	9.62792E-004	5	..........a	-327.66
	1016	203.4	-1.29884E-001	-1.17419E-007	0.00000E+000	-1.30000E-001	9.71892E-004	5	..........a	-327.66
	1017	203.6	-1.39820E-001	-1.19213E-007	0.00000E+000	-1.40000E-001	9.68592E-004	5	..........a	-327.66
	1018	203.8	-1.49899E-001	-1.21174E-007	0.00000E+000	-1.50000E-001	9.64692E-004	5	..........a	-327.66
	1019	204	-1.59880E-001	-1.23343E-007	0.00000E+000	-1.60000E-001	9.80192E-004	5	..........a	-327.66
	1020	204.2	-1.69851E-001	-1.25255E-007	0.00000E+000	-1.70000E-001	9.66792E-004	5	..........a	-327.66
	1021	204.4	-1.79816E-001	-1.27416E-007	0.00000E+000	-1.80000E-001	9.63992E-004	5	..........a	-327.66
	1022	204.6	-1.89900E-001	-1.29238E-007	0.00000E+000	-1.90000E-001	9.60492E-004	5	..........a	-327.66
	1023	204.8	-1.99887E-001	-1.31358E-007	0.00000E+000	-2.00000E-001	9.73192E-004	5	..........a	-327.66
	1024	205	-2.09853E-001	-1.28952E-007	0.00000E+000	-2.10000E-001	9.62092E-004	5	..........a	-327.66
	1025	205.2	-2.19820E-001	-1.30081E-007	0.00000E+000	-2.20000E-001	9.56692E-004	5	..........a	-327.66
	1026	205.4	-2.29857E-001	-1.32552E-007	0.00000E+000	-2.30000E-001	9.56192E-004	5	..........a	-327.66
	1027	205.6	-2.39833E-001	-1.35118E-007	0.00000E+000	-2.40000E-001	9.68792E-004	5	..........a	-327.66
	1028	205.8	-2.49829E-001	-1.37605E-007	0.00000E+000	-2.50000E-001	9.62692E-004	5	..........a	-327.66
	1029	206	-2.59747E-001	-1.40133E-007	0.00000E+000	-2.60000E-001	9.58792E-004	5	..........a	-327.66
	1030	206.2	-2.69827E-001	-1.42548E-007	0.00000E+000	-2.70000E-001	9.76992E-004	5	..........a	-327.66
	1031	206.4	-2.79844E-001	-1.44757E-007	0.00000E+000	-2.80000E-001	9.68092E-004	5	..........a	-327.66
	1032	206.6	-2.89836E-001	-1.47078E-007	0.00000E+000	-2.90000E-001	9.74392E-004	5	..........a	-327.66
	1033	206.8	-2.99797E-001	-1.49227E-007	0.00000E+000	-3.00000E-001	9.72392E-004	5	..........a	-327.66
	1034	207	-3.09841E-001	-1.51140E-007	0.00000E+000	-3.10000E-001	9.67292E-004	5	..........a	-327.66
	1035	207.2	-3.19797E-001	-1.53110E-007	0.00000E+000	-3.20000E-001	9.59392E-004	5	..........a	-327.66
	1036	207.4	-3.29847E-001	-1.55216E-007	0.00000E+000	-3.30000E-001	9.63492E-004	5	..........a	-327.66
	1037	207.6	-3.39724E-001	-1.57189E-007	0.00000E+000	-3.40000E-001	9.73592E-004	5	..........a	-327.66
	1038	207.8	-3.49826E-001	-1.59210E-007	0.00000E+000	-3.50000E-001	9.69692E-004	5	..........a	-327.66
	1039	208	-3.59844E-001	-1.61044E-007	0.00000E+000	-3.60000E-001	9.89192E-004	5	..........a	-327.66
	1040	208.2	-3.69815E-001	-1.62878E-007	0.00000E+000	-3.70000E-001	9.76992E-004	5	..........a	-327.66
	1041	208.4	-3.79753E-001	-1.64634E-007	0.00000E+000	-3.80000E-001	9.75592E-004	5	..........a	-327.66
	1042	208.6	-3.89837E-001	-1.66493E-007	0.00000E+000	-3.90000E-001	9.80092E-004	5	..........a	-327.66
	1043	208.8	-3.99779E-001	-1.68270E-007	0.00000E+000	-4.00000E-001	9.64492E-004	5	..........a	-327.66
	1044	209	-4.09811E-001	-1.69829E-007	0.00000E+000	-4.10000E-001	9.82392E-004	5	..........a	-327.66
	1045	209.2	-4.19714E-001	-1.71393E-007	0.00000E+000	-4.20000E-001	9.59892E-004	5	..........a	-327.66
	1046	209.4	-4.29801E-001	-1.72929E-007	0.00000E+000	-4.30000E-001	9.67592E-004	5	..........a	-327.66
	1047	209.6	-4.39765E-001	-1.74309E-007	0.00000E+000	-4.40000E-001	9.71192E-004	5	..........a	-327.66
	1048	209.8	-4.49806E-001	-1.75766E-007	0.00000E+000	-4.50000E-001	9.63092E-004	5	..........a	-327.66
	1049	210	-4.59739E-001	-1.77213E-007	0.00000E+000	-4.60000E-001	9.76492E-004	5	..........a	-327.66
	1050	210.2	-4.69797E-001	-1.78711E-007	0.00000E+000	-4.70000E-001	9.64092E-004	5	..........a	-327.66
	1051	210.4	-4.79795E-001	-1.80332E-007	0.00000E+000	-4.80000E-001	9.83192E-004	5	..........a	-327.66
	1052	210.6	-4.89790E-001	-1.81819E-007	0.00000E+000	-4.90000E-001	9.74592E-004	5	..........a	-327.66
	1053	210.8	-4.99777E-001	-1.83451E-007	0.00000E+000	-5.00000E-001	9.65792E-004	5	..........a	-327.66
	1054	211	-5.09796E-001	-1.85084E-007	0.00000E+000	-5.10000E-001	9.66592E-004	5	..........a	-327.66
	1055	211.2	-5.19778E-001	-1.86821E-007	0.00000E+000	-5.20000E-001	9.78292E-004	5	..........a	-327.66
	1056	211.4	-5.29800E-001	-1.88645E-007	0.00000E+000	-5.30000E-001	9.65992E-004	5	..........a	-327.66
	1057	211.6	-5.39714E-001	-1.90499E-007	0.00000E+000	-5.40000E-001	9.62992E-004	5	..........a	-327.66
	1058	211.8	-5.49800E-001	-1.92410E-007	0.00000E+000	-5.50000E-001	9.72992E-004	5	..........a	-327.66
	1059	212	-5.59794E-001	-1.94294E-007	0.00000E+000	-5.60000E-001	9.71092E-004	5	..........a	-327.66
	1060	212.2	-5.69796E-001	-1.96305E-007	0.00000E+000	-5.70000E-001	9.75392E-004	5	..........a	-327.66
	1061	212.4	-5.79749E-001	-1.98307E-007	0.00000E+000	-5.80000E-001	9.63692E-004	5	..........a	-327.66
	1062	212.6	-5.89797E-001	-2.00426E-007	0.00000E+000	-5.90000E-001	9.79392E-004	5	..........a	-327.66
	1063	212.8	-5.99798E-001	-2.02733E-007	0.00000E+000	-6.00000E-001	9.64392E-004	5	..........a	-327.66
CURVE5	TABLE
	Pt	T	Vf	Im	Vu	Sig	Ach	IERange	Over	Temp
	#	s	V vs. Ref.	A	V	V	V	#	bits	deg C
	1064	213	-5.89815E-001	-1.75999E-007	0.00000E+000	-5.90000E-001	9.72192E-004	5	..........a	-327.66
	1065	213.2	-5.79778E-001	-1.59538E-007	0.00000E+000	-5.80000E-001	9.61292E-004	5	..........a	-327.66
	1066	213.4	-5.69807E-001	-1.46897E-007	0.00000E+000	-5.70000E-001	9.79292E-004	5	..........a	-327.66
	1067	213.6	-5.59817E-001	-1.36240E-007	0.00000E+000	-5.60000E-001	9.79392E-004	5	..........a	-327.66
	1068	213.8	-5.49834E-001	-1.26973E-007	0.00000E+000	-5.50000E-001	9.57392E-004	5	..........a	-327.66
	1069	214	-5.39745E-001	-1.18507E-007	0.00000E+000	-5.40000E-001	9.66592E-004	5	..........a	-327.66
	1070	214.2	-5.29823E-001	-1.10902E-007	0.00000E+000	-5.30000E-001	9.74592E-004	5	..........a	-327.66
	1071	214.4	-5.19818E-001	-1.03941E-007	0.00000E+000	-5.20000E-001	9.77192E-004	5	..........a	-327.66
	1072	214.6	-5.09827E-001	-9.73923E-008	0.00000E+000	-5.10000E-001	9.60892E-004	5	..........a	-327.66
	1073	214.8	-4.99814E-001	-9.11928E-008	0.00000E+000	-5.00000E-001	9.61792E-004	5	..........a	-327.66
	1074	215	-4.89827E-001	-8.53758E-008	0.00000E+000	-4.90000E-001	9.80192E-004	5	..........a	-327.66
	1075	215.2	-4.79853E-001	-7.98040E-008	0.00000E+000	-4.80000E-001	9.90692E-004	5	..........a	-327.66
	1076	215.4	-4.69844E-001	-7.45510E-008	0.00000E+000	-4.70000E-001	9.71792E-004	5	..........a	-327.66
	1077	215.6	-4.59792E-001	-6.95140E-008	0.00000E+000	-4.60000E-001	9.65492E-004	5	..........a	-327.66
	1078	215.8	-4.49838E-001	-6.47536E-008	0.00000E+000	-4.50000E-001	9.58692E-004	5	..........a	-327.66
	1079	216	-4.39836E-001	-6.05560E-008	0.00000E+000	-4.40000E-001	9.71092E-004	5	..........a	-327.66
	1080	216.2	-4.29849E-001	-5.60025E-008	0.00000E+000	-4.30000E-001	9.57792E-004	5	..........a	-327.66
	1081	216.4	-4.19816E-001	-5.17153E-008	0.00000E+000	-4.20000E-001	9.52292E-004	5	..........a	-327.66
	1082	216.6	-4.09886E-001	-4.76296E-008	0.00000E+000	-4.10000E-001	9.67692E-004	5	..........a	-327.66
	1083	216.8	-3.99864E-001	-4.36484E-008	0.00000E+000	-4.00000E-001	9.68192E-004	5	..........a	-327.66
	1084	217	-3.89887E-001	-3.98192E-008	0.00000E+000	-3.90000E-001	9.76892E-004	5	..........a	-327.66
	1085	217.2	-3.79840E-001	-3.61616E-008	0.00000E+000	-3.80000E-001	9.65292E-004	5	..........a	-327.66
	1086	217.4	-3.69865E-001	-3.26317E-008	0.00000E+000	-3.70000E-001	9.63092E-004	5	..........a	-327.66
	1087	217.6	-3.59884E-001	-2.91501E-008	0.00000E+000	-3.60000E-001	9.77692E-004	5	..........a	-327.66
	1088	217.8	-3.49875E-001	-2.57795E-008	0.00000E+000	-3.50000E-001	9.74092E-004	5	..........a	-327.66
	1089	218	-3.39829E-001	-2.26202E-008	0.00000E+000	-3.40000E-001	9.72192E-004	5	..........a	-327.66
	1090	218.2	-3.29884E-001	-1.93570E-008	0.00000E+000	-3.30000E-001	9.88492E-004	5	..........a	-327.66
	1091	218.4	-3.19866E-001	-1.62509E-008	0.00000E+000	-3.20000E-001	9.61492E-004	5	..........a	-327.66
	1092	218.6	-3.09910E-001	-1.31825E-008	0.00000E+000	-3.10000E-001	9.82092E-004	5	..........a	-327.66
	1093	218.8	-2.99855E-001	-1.02029E-008	0.00000E+000	-3.00000E-001	9.60692E-004	5	..........a	-327.66
	1094	219	-2.89913E-001	-7.21948E-009	0.00000E+000	-2.90000E-001	9.87792E-004	5	..........a	-327.66
	1095	219.2	-2.79867E-001	-4.30998E-009	0.00000E+000	-2.80000E-001	9.74492E-004	5	..........a	-327.66
	1096	219.4	-2.69894E-001	-1.46203E-009	0.00000E+000	-2.70000E-001	9.64392E-004	5	..........a	-327.66
	1097	219.6	-2.59845E-001	1.39604E-009	0.00000E+000	-2.60000E-001	9.56192E-004	5	..........a	-327.66
	1098	219.8	-2.49905E-001	4.21492E-009	0.00000E+000	-2.50000E-001	9.75692E-004	5	..........a	-327.66
	1099	220	-2.39934E-001	7.00396E-009	0.00000E+000	-2.40000E-001	9.71592E-004	5	..........a	-327.66
	1100	220.2	-2.29956E-001	9.67883E-009	0.00000E+000	-2.30000E-001	9.73992E-004	5	..........a	-327.66
	1101	220.4	-2.19897E-001	1.23767E-008	0.00000E+000	-2.20000E-001	9.64592E-004	5	..........a	-327.66
	1102	220.6	-2.09927E-001	1.50911E-008	0.00000E+000	-2.10000E-001	9.65692E-004	5	..........a	-327.66
	1103	220.8	-1.99989E-001	1.77844E-008	0.00000E+000	-2.00000E-001	9.86992E-004	5	..........a	-327.66
	1104	221	-1.90054E-001	2.04212E-008	0.00000E+000	-1.90000E-001	9.72092E-004	5	..........a	-327.66
	1105	221.2	-1.79951E-001	2.30806E-008	0.00000E+000	-1.80000E-001	9.69492E-004	5	..........a	-327.66
	1106	221.4	-1.69906E-001	2.57006E-008	0.00000E+000	-1.70000E-001	9.70092E-004	5	..........a	-327.66
	1107	221.6	-1.60029E-001	2.82814E-008	0.00000E+000	-1.60000E-001	9.78992E-004	5	..........a	-327.66
	1108	221.8	-1.49971E-001	3.09150E-008	0.00000E+000	-1.50000E-001	9.83092E-004	5	..........a	-327.66
	1109	222	-1.39921E-001	3.35495E-008	0.00000E+000	-1.40000E-001	9.64692E-004	5	..........a	-327.66
	1110	222.2	-1.29944E-001	3.59524E-008	0.00000E+000	-1.30000E-001	9.76192E-004	5	..........a	-327.66
	1111	222.4	-1.19975E-001	3.86680E-008	0.00000E+000	-1.20000E-001	9.76192E-004	5	..........a	-327.66
	1112	222.6	-1.09998E-001	4.13090E-008	0.00000E+000	-1.10000E-001	9.73492E-004	5	..........a	-327.66
	1113	222.8	-9.99493E-002	4.38961E-008	0.00000E+000	-1.00000E-001	9.68692E-004	5	..........a	-327.66
	1114	223	-8.99265E-002	4.65022E-008	0.00000E+000	-9.00000E-002	9.76392E-004	5	..........a	-327.66
	1115	223.2	-8.00073E-002	4.90031E-008	0.00000E+000	-8.00000E-002	9.94792E-004	5	..........a	-327.66
	1116	223.4	-6.99421E-002	5.15082E-008	0.00000E+000	-7.00000E-002	9.77092E-004	5	..........a	-327.66
	1117	223.6	-5.99284E-002	5.40570E-008	0.00000E+000	-6.00000E-002	9.68592E-004	5	..........a	-327.66
	1118	223.8	-4.99219E-002	5.65428E-008	0.00000E+000	-5.00000E-002	9.79092E-004	5	..........a	-327.66