File: example_project/raw_outputs/20240509_ZZI_GM0016_HL03_E09_CV50.DTA
EXPLAIN
TAG	CV
TITLE	LABEL	Cyclic Voltammetry	Test &Identifier
DATE	LABEL	5/9/2024	Date
TIME	LABEL	14:17:42	Time
NOTES	NOTES	1	&Notes...

PSTAT	PSTAT	REF600P-43058	Potentiostat
VINIT	POTEN	0.00000E+000	T	Initial &E (V)
VLIMIT1	POTEN	8.00000E-001	F	Scan Limit &1 (V)
VLIMIT2	POTEN	-6.00000E-001	F	Scan Limit &2 (V)
VFINAL	POTEN	0.00000E+000	T	Final &E (V)
SCANRATE	QUANT	4.99999E+001	&Scan Rate (mV/s)
STEPSIZE	QUANT	1.00000E+001	St&ep Size (mV)
CYCLES	IQUANT	4	C&ycles (#)
IMODE	SELECTOR	0	I/E Range &Mode
IRANGE	QUANT	1.00000E-005	&Max Current (mA)
AREA	QUANT	1.00000E+000	Electrode &Area (cm^2)
ELECTRODETYPE	SELECTOR	0	Electrode Type
STRIPPING	TOGGLE	F	Used for Stripping
POLARITY	TOGGLE	F	Signal Polarity
CONDIT	TWOPARAM	F	1.50000E+001	0.00000E+000	Conditionin&g	Time(s)	E(V)
DELAY	TWOPARAM	T	1.00000E+001	0.00000E+000	Init. De&lay	Time(s)	Stab.(mV/s)
EQDELAY	QUANT	1.00000E+001	Equil. &Time (s)
IRCOMP	SELECTOR	0	IRCom&p
PFCOR	QUANT	5.00000E+001	PF Corr. (ohm)
SAMPLINGMODE	SELECTOR	1	Sampling &Mode
OCVCURVE	TABLE	39
	Pt	T	Vf	Vm	Ach	Over	Temp
	#	s	V vs. Ref.	V	V	bits	deg C
	0	0.258333	-1.67840E-001	-1.67840E-001	2.31659E-004	..........a	-327.66
	1	0.516667	-1.67842E-001	-1.67921E-001	2.27259E-004	..........a	-327.66
	2	0.775	-1.67850E-001	-1.67926E-001	2.21792E-004	..........a	-327.66
	3	1.03333	-1.67869E-001	-1.67974E-001	2.16526E-004	..........a	-327.66
	4	1.29167	-1.67899E-001	-1.68049E-001	2.23592E-004	..........a	-327.66
	5	1.55	-1.67939E-001	-1.68188E-001	2.30392E-004	..........a	-327.66
	6	1.80833	-1.67996E-001	-1.68332E-001	2.28859E-004	..........a	-327.66
	7	2.06667	-1.68080E-001	-1.68477E-001	2.24126E-004	..........a	-327.66
	8	2.325	-1.68190E-001	-1.68610E-001	2.17392E-004	..........a	-327.66
	9	2.58333	-1.68320E-001	-1.68734E-001	2.30326E-004	..........a	-327.66
	10	2.84167	-1.68457E-001	-1.68869E-001	2.24592E-004	..........a	-327.66
	11	3.1	-1.68593E-001	-1.68991E-001	2.29859E-004	..........a	-327.66
	12	3.35833	-1.68726E-001	-1.69128E-001	2.28192E-004	..........a	-327.66
	13	3.61667	-1.68856E-001	-1.69252E-001	2.21926E-004	..........a	-327.66
	14	3.875	-1.68985E-001	-1.69380E-001	2.28992E-004	..........a	-327.66
	15	4.13333	-1.69114E-001	-1.69496E-001	2.23926E-004	..........a	-327.66
	16	4.39167	-1.69240E-001	-1.69597E-001	2.22992E-004	..........a	-327.66
	17	4.65	-1.69362E-001	-1.69691E-001	2.26192E-004	..........a	-327.66
	18	4.90833	-1.69477E-001	-1.69792E-001	2.34726E-004	..........a	-327.66
	19	5.16667	-1.69585E-001	-1.69928E-001	2.35326E-004	..........a	-327.66
	20	5.425	-1.69687E-001	-1.69873E-001	2.30726E-004	..........a	-327.66
	21	5.68333	-1.69775E-001	-1.69771E-001	2.27459E-004	..........a	-327.66
	22	5.94167	-1.69831E-001	-1.69893E-001	2.22192E-004	..........a	-327.66
	23	6.2	-1.69854E-001	-1.70011E-001	2.29859E-004	..........a	-327.66
	24	6.45833	-1.69874E-001	-1.70134E-001	2.21992E-004	..........a	-327.66
	25	6.71667	-1.69925E-001	-1.70258E-001	2.25659E-004	..........a	-327.66
	26	6.975	-1.70011E-001	-1.70391E-001	2.14059E-004	..........a	-327.66
	27	7.23333	-1.70124E-001	-1.70524E-001	2.12992E-004	..........a	-327.66
	28	7.49167	-1.70249E-001	-1.70656E-001	2.30126E-004	..........a	-327.66
	29	7.75	-1.70380E-001	-1.70791E-001	2.20459E-004	..........a	-327.66
	30	8.00833	-1.70512E-001	-1.70911E-001	2.25326E-004	..........a	-327.66
	31	8.26667	-1.70644E-001	-1.71041E-001	2.17859E-004	..........a	-327.66
	32	8.525	-1.70775E-001	-1.71186E-001	2.18126E-004	..........a	-327.66
	33	8.78333	-1.70906E-001	-1.71352E-001	2.08859E-004	..........a	-327.66
	34	9.04167	-1.71042E-001	-1.71509E-001	2.28926E-004	..........a	-327.66
	35	9.3	-1.71186E-001	-1.71660E-001	2.18259E-004	..........a	-327.66
	36	9.5583	-1.71337E-001	-1.71758E-001	2.23392E-004	..........a	-327.66
	37	9.8167	-1.71482E-001	-1.71727E-001	2.25926E-004	..........a	-327.66
	38	10.075	-1.71605E-001	-1.71807E-001	2.29859E-004	..........a	-327.66
EOC	QUANT	-0.1716053	Open Circuit (V)
PSTATMODEL	IQUANT	7	Pstat Model
PSTATSECTION	LABEL	REF600P-43058	Pstat Section
PSTATSERIALNO	LABEL	43058	Pstat Serial Number
CTRLMODE	IQUANT	1	Control Mode
ELECTROMETER	IQUANT	0	RE=0 or CS=1
IESTAB	IQUANT	2	I/E Stability
CASPEED	IQUANT	4	Control Amp Speed
CONVENTION	IQUANT	1	Current Convention
ICHRANGE	IQUANT	2	Ich Range
ICHRANGEMODE	TOGGLE	F	Ich Auto Range
ICHOFFSETENABLE	TOGGLE	F	Ich Offset Enable
ICHOFFSET	QUANT	0	Ich Offset (V)
ICHFILTER	IQUANT	2	Ich Filter
VCHRANGE	IQUANT	2	Vch Range
VCHRANGEMODE	TOGGLE	F	Vch Auto Range
VCHOFFSETENABLE	TOGGLE	F	Vch Offset Enable
VCHOFFSET	QUANT	0	Vch Offset (V)
VCHFILTER	IQUANT	2	Vch Filter
ACHRANGE	IQUANT	2	Ach Range
ACHOFFSETENABLE	TOGGLE	F	Ach Offset Enable
ACHOFFSET	QUANT	0	Ach Offset (V)
ACHFILTER	IQUANT	1	Ach Filter
IERANGELOWERLIMIT	IQUANT	1	I/E Range Lower Limit
IERANGEMODE	TOGGLE	T	I/E AutoRange
IERANGE	IQUANT	4	I/E Range
POSFEEDENABLE	TOGGLE	F	Positive Feedback IR Comp
POSFEEDRESISTANCE	QUANT	0	Positive Feedback Resistance (ohm)
ACHSELECT	IQUANT	4	Ach Select
SENSECABLEID	IQUANT	7	Sense Cable ID
PWRCABLEID	IQUANT	7	Power Cable ID
DCCALDATE	LABEL	3/22/2024	DC Calibration Date
ACCALDATE	LABEL	3/22/2024	AC Calibration Date
THERMOSELECT	IQUANT	1	Thermo Select
FRAMEWORKVERSION	LABEL	7.8.4	Framework Version
INSTRUMENTVERSION	LABEL	4.42	Instrument Version
CURVE1	TABLE
	Pt	T	Vf	Im	Vu	Sig	Ach	IERange	Over	Temp
	#	s	V vs. Ref.	A	V	V	V	#	bits	deg C
	0	0.2	-1.71524E-001	1.26032E-009	0.00000E+000	-1.71600E-001	9.82692E-004	5	..........a	-327.66
	1	0.4	-1.61597E-001	6.32380E-009	0.00000E+000	-1.61600E-001	9.87692E-004	5	..........a	-327.66
	2	0.6	-1.51587E-001	9.13541E-009	0.00000E+000	-1.51600E-001	9.80892E-004	5	..........a	-327.66
	3	0.8	-1.41519E-001	1.13447E-008	0.00000E+000	-1.41600E-001	9.60492E-004	5	..........a	-327.66
	4	1	-1.31604E-001	1.31624E-008	0.00000E+000	-1.31600E-001	9.86592E-004	5	..........a	-327.66
	5	1.2	-1.21552E-001	1.49534E-008	0.00000E+000	-1.21600E-001	9.93292E-004	5	..........a	-327.66
	6	1.4	-1.11538E-001	1.66806E-008	0.00000E+000	-1.11600E-001	9.96892E-004	5	..........a	-327.66
	7	1.6	-1.01529E-001	1.82730E-008	0.00000E+000	-1.01600E-001	9.87992E-004	5	..........a	-327.66
	8	1.8	-9.14921E-002	1.98255E-008	0.00000E+000	-9.16000E-002	9.91592E-004	5	..........a	-327.66
	9	2	-8.15520E-002	2.13937E-008	0.00000E+000	-8.16000E-002	9.96792E-004	5	..........a	-327.66
	10	2.2	-7.15805E-002	2.28840E-008	0.00000E+000	-7.16000E-002	9.79992E-004	5	..........a	-327.66
	11	2.4	-6.14911E-002	2.43092E-008	0.00000E+000	-6.16000E-002	9.87692E-004	5	..........a	-327.66
	12	2.6	-5.15248E-002	2.59917E-008	0.00000E+000	-5.16000E-002	9.87692E-004	5	..........a	-327.66
	13	2.8	-4.15193E-002	2.76116E-008	0.00000E+000	-4.16000E-002	9.92692E-004	5	..........a	-327.66
	14	3	-3.15684E-002	2.91997E-008	0.00000E+000	-3.16000E-002	9.85092E-004	5	..........a	-327.66
	15	3.2	-2.15071E-002	3.08349E-008	0.00000E+000	-2.16000E-002	9.67692E-004	5	..........a	-327.66
	16	3.4	-1.15116E-002	3.25356E-008	0.00000E+000	-1.16000E-002	9.80692E-004	5	..........a	-327.66
	17	3.6	-1.58826E-003	3.43415E-008	0.00000E+000	-1.60000E-003	9.79692E-004	5	..........a	-327.66
	18	3.8	8.49484E-003	3.62015E-008	0.00000E+000	8.40000E-003	9.93292E-004	5	..........a	-327.66
	19	4	1.85528E-002	3.80378E-008	0.00000E+000	1.84000E-002	9.93892E-004	5	..........a	-327.66
	20	4.2	2.84198E-002	4.00927E-008	0.00000E+000	2.84000E-002	9.89592E-004	5	..........a	-327.66
	21	4.4	3.84933E-002	4.23846E-008	0.00000E+000	3.84000E-002	9.85492E-004	5	..........a	-327.66
	22	4.6	4.84199E-002	4.47461E-008	0.00000E+000	4.84000E-002	9.91592E-004	5	..........a	-327.66
	23	4.8	5.84907E-002	4.74024E-008	0.00000E+000	5.84000E-002	9.75792E-004	5	..........a	-327.66
	24	5	6.84062E-002	5.01266E-008	0.00000E+000	6.84000E-002	9.82792E-004	5	..........a	-327.66
	25	5.2	7.84245E-002	5.30900E-008	0.00000E+000	7.84000E-002	9.74092E-004	5	..........a	-327.66
	26	5.4	8.84775E-002	5.62763E-008	0.00000E+000	8.84000E-002	9.80792E-004	5	..........a	-327.66
	27	5.6	9.85043E-002	5.97614E-008	0.00000E+000	9.84000E-002	9.76892E-004	5	..........a	-327.66
	28	5.8	1.08443E-001	6.33487E-008	0.00000E+000	1.08400E-001	9.86192E-004	5	..........a	-327.66
	29	6	1.18465E-001	6.74394E-008	0.00000E+000	1.18400E-001	9.79892E-004	5	..........a	-327.66
	30	6.2	1.28413E-001	7.16922E-008	0.00000E+000	1.28400E-001	9.95392E-004	5	..........a	-327.66
	31	6.4	1.38475E-001	7.63071E-008	0.00000E+000	1.38400E-001	9.83292E-004	5	..........a	-327.66
	32	6.6	1.48423E-001	8.11101E-008	0.00000E+000	1.48400E-001	9.94892E-004	5	..........a	-327.66
	33	6.8	1.58401E-001	8.63023E-008	0.00000E+000	1.58400E-001	9.89092E-004	5	..........a	-327.66
	34	7	1.68379E-001	9.17797E-008	0.00000E+000	1.68400E-001	9.73992E-004	5	..........a	-327.66
	35	7.2	1.78463E-001	9.74134E-008	0.00000E+000	1.78400E-001	9.82492E-004	5	..........a	-327.66
	36	7.4	1.88469E-001	1.03203E-007	0.00000E+000	1.88400E-001	9.85592E-004	5	..........a	-327.66
	37	7.6	1.98384E-001	1.08789E-007	0.00000E+000	1.98400E-001	9.85092E-004	5	..........a	-327.66
	38	7.8	2.08344E-001	1.14833E-007	0.00000E+000	2.08400E-001	9.83092E-004	5	..........a	-327.66
	39	8	2.18489E-001	1.21099E-007	0.00000E+000	2.18400E-001	9.80392E-004	5	..........a	-327.66
	40	8.2	2.28373E-001	1.27352E-007	0.00000E+000	2.28400E-001	9.78592E-004	5	..........a	-327.66
	41	8.4	2.38368E-001	1.33460E-007	0.00000E+000	2.38400E-001	9.86192E-004	5	..........a	-327.66
	42	8.6	2.48351E-001	1.39382E-007	0.00000E+000	2.48400E-001	9.93492E-004	5	..........a	-327.66
	43	8.8	2.58370E-001	1.45103E-007	0.00000E+000	2.58400E-001	9.91692E-004	5	..........a	-327.66
	44	9	2.68400E-001	1.50628E-007	0.00000E+000	2.68400E-001	9.82592E-004	5	..........a	-327.66
	45	9.2	2.78330E-001	1.56032E-007	0.00000E+000	2.78400E-001	1.00079E-003	5	..........a	-327.66
	46	9.4	2.88357E-001	1.60952E-007	0.00000E+000	2.88400E-001	9.75192E-004	5	..........a	-327.66
	47	9.6	2.98373E-001	1.66144E-007	0.00000E+000	2.98400E-001	9.91192E-004	5	..........a	-327.66
	48	9.8	3.08398E-001	1.71239E-007	0.00000E+000	3.08400E-001	9.75592E-004	5	..........a	-327.66
	49	10	3.18357E-001	1.76330E-007	0.00000E+000	3.18400E-001	9.80592E-004	5	..........a	-327.66
	50	10.2	3.28342E-001	1.81408E-007	0.00000E+000	3.28400E-001	9.71892E-004	5	..........a	-327.66
	51	10.4	3.38364E-001	1.86453E-007	0.00000E+000	3.38400E-001	9.70492E-004	5	..........a	-327.66
	52	10.6	3.48422E-001	1.91450E-007	0.00000E+000	3.48400E-001	9.74292E-004	5	..........a	-327.66
	53	10.8	3.58321E-001	1.96407E-007	0.00000E+000	3.58400E-001	9.81692E-004	5	..........a	-327.66
	54	11	3.68352E-001	2.01228E-007	0.00000E+000	3.68400E-001	9.77292E-004	5	..........a	-327.66
	55	11.2	3.78344E-001	2.06134E-007	0.00000E+000	3.78400E-001	9.81692E-004	5	..........a	-327.66
	56	11.4	3.88375E-001	2.11339E-007	0.00000E+000	3.88400E-001	9.74992E-004	5	..........a	-327.66
	57	11.6	3.98333E-001	2.16545E-007	0.00000E+000	3.98400E-001	9.72292E-004	5	..........a	-327.66
	58	11.8	4.08324E-001	2.21796E-007	0.00000E+000	4.08400E-001	9.80592E-004	5	..........a	-327.66
	59	12	4.18303E-001	2.26816E-007	0.00000E+000	4.18400E-001	9.66192E-004	5	..........a	-327.66
	60	12.2	4.28346E-001	2.32229E-007	0.00000E+000	4.28400E-001	9.88592E-004	5	..........a	-327.66
	61	12.4	4.38289E-001	2.37787E-007	0.00000E+000	4.38400E-001	9.96492E-004	5	..........a	-327.66
	62	12.6	4.48332E-001	2.43365E-007	0.00000E+000	4.48400E-001	9.76392E-004	5	..........a	-327.66
	63	12.8	4.58292E-001	2.49205E-007	0.00000E+000	4.58400E-001	9.80392E-004	5	..........a	-327.66
	64	13	4.68347E-001	2.54975E-007	0.00000E+000	4.68400E-001	9.79092E-004	5	..........a	-327.66
	65	13.2	4.78276E-001	2.60773E-007	0.00000E+000	4.78400E-001	9.84792E-004	5	..........a	-327.66
	66	13.4	4.88262E-001	2.66388E-007	0.00000E+000	4.88400E-001	9.77592E-004	5	..........a	-327.66
	67	13.6	4.98262E-001	2.71196E-007	0.00000E+000	4.98400E-001	9.75292E-004	5	..........a	-327.66
	68	13.8	5.08357E-001	2.75345E-007	0.00000E+000	5.08400E-001	9.95592E-004	5	..........a	-327.66
	69	14	5.18258E-001	2.79333E-007	0.00000E+000	5.18400E-001	9.88892E-004	5	..........a	-327.66
	70	14.2	5.28310E-001	2.83885E-007	0.00000E+000	5.28400E-001	9.92492E-004	5	..........a	-327.66
	71	14.4	5.38246E-001	2.88712E-007	0.00000E+000	5.38400E-001	9.77292E-004	5	..........a	-327.66
	72	14.6	5.48314E-001	2.93820E-007	0.00000E+000	5.48400E-001	9.84492E-004	5	..........a	-327.66
	73	14.8	5.58259E-001	2.99075E-007	0.00000E+000	5.58400E-001	9.80692E-004	5	..........a	-327.66
	74	15	5.68245E-001	3.04523E-007	0.00000E+000	5.68400E-001	9.91992E-004	5	..........a	-327.66
	75	15.2	5.78166E-001	3.10189E-007	0.00000E+000	5.78400E-001	9.73592E-004	5	..........a	-327.66
	76	15.4	5.88335E-001	3.15981E-007	0.00000E+000	5.88400E-001	9.87792E-004	5	..........a	-327.66
	77	15.6	5.98227E-001	3.21999E-007	0.00000E+000	5.98400E-001	9.97592E-004	5	..........a	-327.66
	78	15.8	6.08195E-001	3.28184E-007	0.00000E+000	6.08400E-001	9.78692E-004	5	..........a	-327.66
	79	16	6.18213E-001	3.33990E-007	0.00000E+000	6.18400E-001	9.69592E-004	5	..........a	-327.66
	80	16.2	6.28288E-001	3.39882E-007	0.00000E+000	6.28400E-001	9.87692E-004	5	..........a	-327.66
	81	16.4	6.38181E-001	3.46134E-007	0.00000E+000	6.38400E-001	9.87092E-004	5	..........a	-327.66
	82	16.6	6.48181E-001	3.52427E-007	0.00000E+000	6.48400E-001	9.86492E-004	5	..........a	-327.66
	83	16.8	6.58196E-001	3.59020E-007	0.00000E+000	6.58400E-001	9.76792E-004	5	..........a	-327.66
	84	17	6.68268E-001	3.65917E-007	0.00000E+000	6.68400E-001	9.93492E-004	5	..........a	-327.66
	85	17.2	6.78182E-001	3.72882E-007	0.00000E+000	6.78400E-001	9.80992E-004	5	..........a	-327.66
	86	17.4	6.88142E-001	3.80140E-007	0.00000E+000	6.88400E-001	9.92792E-004	5	..........a	-327.66
	87	17.6	6.98174E-001	3.87604E-007	0.00000E+000	6.98400E-001	9.79392E-004	5	..........a	-327.66
	88	17.8	7.08275E-001	3.95264E-007	0.00000E+000	7.08400E-001	9.74492E-004	5	..........a	-327.66
	89	18	7.18178E-001	4.03129E-007	0.00000E+000	7.18400E-001	9.89692E-004	5	..........a	-327.66
	90	18.2	7.28161E-001	4.11336E-007	0.00000E+000	7.28400E-001	9.74792E-004	5	..........a	-327.66
	91	18.4	7.38168E-001	4.19960E-007	0.00000E+000	7.38400E-001	9.95192E-004	5	..........a	-327.66
	92	18.6	7.48225E-001	4.28879E-007	0.00000E+000	7.48400E-001	9.79292E-004	5	..........a	-327.66
	93	18.8	7.58170E-001	4.38367E-007	0.00000E+000	7.58400E-001	9.88592E-004	5	..........a	-327.66
	94	19	7.68139E-001	4.48304E-007	0.00000E+000	7.68400E-001	9.84992E-004	5	..........a	-327.66
	95	19.2	7.78151E-001	4.58882E-007	0.00000E+000	7.78400E-001	9.83192E-004	5	..........a	-327.66
	96	19.4	7.88240E-001	4.69905E-007	0.00000E+000	7.88400E-001	9.79592E-004	5	..........a	-327.66
	97	19.6	7.98122E-001	4.81593E-007	0.00000E+000	7.98400E-001	9.75592E-004	5	..........a	-327.66
	98	19.8	7.88276E-001	4.06203E-007	0.00000E+000	7.88400E-001	9.72692E-004	5	..........a	-327.66
	99	20	7.78194E-001	3.52965E-007	0.00000E+000	7.78400E-001	9.84392E-004	5	..........a	-327.66
	100	20.2	7.68231E-001	3.11544E-007	0.00000E+000	7.68400E-001	9.82092E-004	5	..........a	-327.66
	101	20.4	7.58258E-001	2.77889E-007	0.00000E+000	7.58400E-001	9.78992E-004	5	..........a	-327.66
	102	20.6	7.48322E-001	2.49971E-007	0.00000E+000	7.48400E-001	9.75292E-004	5	..........a	-327.66
	103	20.8	7.38259E-001	2.26231E-007	0.00000E+000	7.38400E-001	9.77992E-004	5	..........a	-327.66
	104	21	7.28273E-001	2.05641E-007	0.00000E+000	7.28400E-001	9.86992E-004	5	..........a	-327.66
	105	21.2	7.18251E-001	1.87680E-007	0.00000E+000	7.18400E-001	9.84592E-004	5	..........a	-327.66
	106	21.4	7.08339E-001	1.71811E-007	0.00000E+000	7.08400E-001	9.90892E-004	5	..........a	-327.66
	107	21.6	6.98278E-001	1.57707E-007	0.00000E+000	6.98400E-001	9.86792E-004	5	..........a	-327.66
	108	21.8	6.88266E-001	1.45104E-007	0.00000E+000	6.88400E-001	9.81392E-004	5	..........a	-327.66
	109	22	6.78278E-001	1.34030E-007	0.00000E+000	6.78400E-001	9.89992E-004	5	..........a	-327.66
	110	22.2	6.68364E-001	1.23621E-007	0.00000E+000	6.68400E-001	9.94292E-004	5	..........a	-327.66
	111	22.4	6.58334E-001	1.13988E-007	0.00000E+000	6.58400E-001	9.73292E-004	5	..........a	-327.66
	112	22.6	6.48288E-001	1.05471E-007	0.00000E+000	6.48400E-001	9.99592E-004	5	..........a	-327.66
	113	22.8	6.38291E-001	9.76728E-008	0.00000E+000	6.38400E-001	9.79792E-004	5	..........a	-327.66
	114	23	6.28334E-001	9.04804E-008	0.00000E+000	6.28400E-001	9.95292E-004	5	..........a	-327.66
	115	23.2	6.18328E-001	8.38429E-008	0.00000E+000	6.18400E-001	9.81992E-004	5	..........a	-327.66
	116	23.4	6.08372E-001	7.76721E-008	0.00000E+000	6.08400E-001	1.00529E-003	5	..........a	-327.66
	117	23.6	5.98367E-001	7.19880E-008	0.00000E+000	5.98400E-001	9.84492E-004	5	..........a	-327.66
	118	23.8	5.88386E-001	6.65405E-008	0.00000E+000	5.88400E-001	9.86692E-004	5	..........a	-327.66
	119	24	5.78311E-001	6.15679E-008	0.00000E+000	5.78400E-001	9.82292E-004	5	..........a	-327.66
	120	24.2	5.68353E-001	5.69999E-008	0.00000E+000	5.68400E-001	9.85592E-004	5	..........a	-327.66
	121	24.4	5.58349E-001	5.24774E-008	0.00000E+000	5.58400E-001	9.73192E-004	5	..........a	-327.66
	122	24.6	5.48427E-001	4.83448E-008	0.00000E+000	5.48400E-001	9.84192E-004	5	..........a	-327.66
	123	24.8	5.38370E-001	4.44709E-008	0.00000E+000	5.38400E-001	1.00019E-003	5	..........a	-327.66
	124	25	5.28385E-001	4.07946E-008	0.00000E+000	5.28400E-001	9.74392E-004	5	..........a	-327.66
	125	25.2	5.18367E-001	3.71826E-008	0.00000E+000	5.18400E-001	9.90992E-004	5	..........a	-327.66
	126	25.4	5.08381E-001	3.39052E-008	0.00000E+000	5.08400E-001	9.86992E-004	5	..........a	-327.66
	127	25.6	4.98409E-001	3.06870E-008	0.00000E+000	4.98400E-001	9.72892E-004	5	..........a	-327.66
	128	25.8	4.88349E-001	2.76169E-008	0.00000E+000	4.88400E-001	9.96992E-004	5	..........a	-327.66
	129	26	4.78330E-001	2.47216E-008	0.00000E+000	4.78400E-001	9.91292E-004	5	..........a	-327.66
	130	26.2	4.68414E-001	2.18391E-008	0.00000E+000	4.68400E-001	9.92792E-004	5	..........a	-327.66
	131	26.4	4.58430E-001	1.90111E-008	0.00000E+000	4.58400E-001	9.74692E-004	5	..........a	-327.66
	132	26.6	4.48441E-001	1.62563E-008	0.00000E+000	4.48400E-001	9.83992E-004	5	..........a	-327.66
	133	26.8	4.38345E-001	1.35803E-008	0.00000E+000	4.38400E-001	9.85592E-004	5	..........a	-327.66
	134	27	4.28362E-001	1.09669E-008	0.00000E+000	4.28400E-001	9.92292E-004	5	..........a	-327.66
	135	27.2	4.18431E-001	8.38435E-009	0.00000E+000	4.18400E-001	9.81892E-004	5	..........a	-327.66
	136	27.4	4.08408E-001	5.87128E-009	0.00000E+000	4.08400E-001	9.88892E-004	5	..........a	-327.66
	137	27.6	3.98405E-001	3.44092E-009	0.00000E+000	3.98400E-001	9.87692E-004	5	..........a	-327.66
	138	27.8	3.88420E-001	5.93469E-010	0.00000E+000	3.88400E-001	9.99092E-004	5	..........a	-327.66
	139	28	3.78478E-001	-1.72329E-009	0.00000E+000	3.78400E-001	9.82692E-004	5	..........a	-327.66
	140	28.2	3.68469E-001	-3.85038E-009	0.00000E+000	3.68400E-001	9.83492E-004	5	..........a	-327.66
	141	28.4	3.58417E-001	-6.10430E-009	0.00000E+000	3.58400E-001	9.90592E-004	5	..........a	-327.66
	142	28.6	3.48495E-001	-8.22969E-009	0.00000E+000	3.48400E-001	9.82192E-004	5	..........a	-327.66
	143	28.8	3.38488E-001	-1.03130E-008	0.00000E+000	3.38400E-001	9.85292E-004	5	..........a	-327.66
	144	29	3.28453E-001	-1.23655E-008	0.00000E+000	3.28400E-001	1.00109E-003	5	..........a	-327.66
	145	29.2	3.18476E-001	-1.45258E-008	0.00000E+000	3.18400E-001	9.90492E-004	5	..........a	-327.66
	146	29.4	3.08468E-001	-1.69794E-008	0.00000E+000	3.08400E-001	9.91292E-004	5	..........a	-327.66
	147	29.6	2.98524E-001	-1.88340E-008	0.00000E+000	2.98400E-001	9.79392E-004	5	..........a	-327.66
	148	29.8	2.88442E-001	-2.07961E-008	0.00000E+000	2.88400E-001	9.77192E-004	5	..........a	-327.66
	149	30	2.78403E-001	-2.29914E-008	0.00000E+000	2.78400E-001	9.67192E-004	5	..........a	-327.66
	150	30.2	2.68493E-001	-2.49720E-008	0.00000E+000	2.68400E-001	9.78292E-004	5	..........a	-327.66
	151	30.4	2.58496E-001	-2.68914E-008	0.00000E+000	2.58400E-001	9.78192E-004	5	..........a	-327.66
	152	30.6	2.48443E-001	-2.90650E-008	0.00000E+000	2.48400E-001	9.69992E-004	5	..........a	-327.66
	153	30.8	2.38464E-001	-3.13200E-008	0.00000E+000	2.38400E-001	9.95292E-004	5	..........a	-327.66
	154	31	2.28411E-001	-3.32407E-008	0.00000E+000	2.28400E-001	1.00549E-003	5	..........a	-327.66
	155	31.2	2.18591E-001	-3.51083E-008	0.00000E+000	2.18400E-001	9.91392E-004	5	..........a	-327.66
	156	31.4	2.08429E-001	-3.69239E-008	0.00000E+000	2.08400E-001	9.99092E-004	5	..........a	-327.66
	157	31.6	1.98433E-001	-3.85875E-008	0.00000E+000	1.98400E-001	9.99192E-004	5	..........a	-327.66
	158	31.8	1.88531E-001	-4.02133E-008	0.00000E+000	1.88400E-001	9.85992E-004	5	..........a	-327.66
	159	32	1.78562E-001	-4.18086E-008	0.00000E+000	1.78400E-001	9.77192E-004	5	..........a	-327.66
	160	32.2	1.68499E-001	-4.33207E-008	0.00000E+000	1.68400E-001	9.85292E-004	5	..........a	-327.66
	161	32.4	1.58491E-001	-4.44582E-008	0.00000E+000	1.58400E-001	9.89092E-004	5	..........a	-327.66
	162	32.6	1.48518E-001	-4.54911E-008	0.00000E+000	1.48400E-001	9.82092E-004	5	..........a	-327.66
	163	32.8	1.38552E-001	-4.64369E-008	0.00000E+000	1.38400E-001	9.72892E-004	5	..........a	-327.66
	164	33	1.28472E-001	-4.73525E-008	0.00000E+000	1.28400E-001	9.76292E-004	5	..........a	-327.66
	165	33.2	1.18533E-001	-4.80418E-008	0.00000E+000	1.18400E-001	9.85892E-004	5	..........a	-327.66
	166	33.4	1.08511E-001	-4.86872E-008	0.00000E+000	1.08400E-001	1.00149E-003	5	..........a	-327.66
	167	33.6	9.85890E-002	-4.92873E-008	0.00000E+000	9.84000E-002	9.83392E-004	5	..........a	-327.66
	168	33.8	8.85212E-002	-4.98937E-008	0.00000E+000	8.84000E-002	9.85692E-004	5	..........a	-327.66
	169	34	7.84888E-002	-5.02765E-008	0.00000E+000	7.84000E-002	9.80292E-004	5	..........a	-327.66
	170	34.2	6.84771E-002	-5.09976E-008	0.00000E+000	6.84000E-002	9.97692E-004	5	..........a	-327.66
	171	34.4	5.85591E-002	-5.12947E-008	0.00000E+000	5.84000E-002	9.87492E-004	5	..........a	-327.66
	172	34.6	4.84959E-002	-5.21819E-008	0.00000E+000	4.84000E-002	9.90492E-004	5	..........a	-327.66
	173	34.8	3.85325E-002	-5.22730E-008	0.00000E+000	3.84000E-002	9.67892E-004	5	..........a	-327.66
	174	35	2.84871E-002	-5.27927E-008	0.00000E+000	2.84000E-002	9.97792E-004	5	..........a	-327.66
	175	35.2	1.86306E-002	-5.32086E-008	0.00000E+000	1.84000E-002	9.78892E-004	5	..........a	-327.66
	176	35.4	8.53204E-003	-5.42240E-008	0.00000E+000	8.40000E-003	9.90792E-004	5	..........a	-327.66
	177	35.6	-1.50856E-003	-5.49393E-008	0.00000E+000	-1.60000E-003	9.99692E-004	5	..........a	-327.66
	178	35.8	-1.14572E-002	-5.53957E-008	0.00000E+000	-1.16000E-002	9.80692E-004	5	..........a	-327.66
	179	36	-2.14589E-002	-5.60569E-008	0.00000E+000	-2.16000E-002	9.71292E-004	5	..........a	-327.66
	180	36.2	-3.14996E-002	-5.70410E-008	0.00000E+000	-3.16000E-002	9.77392E-004	5	..........a	-327.66
	181	36.4	-4.14892E-002	-5.74214E-008	0.00000E+000	-4.16000E-002	9.80792E-004	5	..........a	-327.66
	182	36.6	-5.14998E-002	-5.82013E-008	0.00000E+000	-5.16000E-002	9.74392E-004	5	..........a	-327.66
	183	36.8	-6.14433E-002	-5.91276E-008	0.00000E+000	-6.16000E-002	9.65392E-004	5	..........a	-327.66
	184	37	-7.14971E-002	-5.99557E-008	0.00000E+000	-7.16000E-002	9.84192E-004	5	..........a	-327.66
	185	37.2	-8.15021E-002	-6.10158E-008	0.00000E+000	-8.16000E-002	9.91592E-004	5	..........a	-327.66
	186	37.4	-9.14624E-002	-6.21622E-008	0.00000E+000	-9.16000E-002	9.65092E-004	5	..........a	-327.66
	187	37.6	-1.01473E-001	-6.33962E-008	0.00000E+000	-1.01600E-001	9.89392E-004	5	..........a	-327.66
	188	37.8	-1.11494E-001	-6.46951E-008	0.00000E+000	-1.11600E-001	9.89292E-004	5	..........a	-327.66
	189	38	-1.21491E-001	-6.62530E-008	0.00000E+000	-1.21600E-001	9.92792E-004	5	..........a	-327.66
	190	38.2	-1.31528E-001	-6.77431E-008	0.00000E+000	-1.31600E-001	9.91592E-004	5	..........a	-327.66
	191	38.4	-1.41475E-001	-6.93569E-008	0.00000E+000	-1.41600E-001	9.80292E-004	5	..........a	-327.66
	192	38.6	-1.51509E-001	-7.11190E-008	0.00000E+000	-1.51600E-001	9.73892E-004	5	..........a	-327.66
	193	38.8	-1.61535E-001	-7.29618E-008	0.00000E+000	-1.61600E-001	9.87592E-004	5	..........a	-327.66
	194	39	-1.71470E-001	-7.48529E-008	0.00000E+000	-1.71600E-001	9.74792E-004	5	..........a	-327.66
	195	39.2	-1.81425E-001	-7.69661E-008	0.00000E+000	-1.81600E-001	9.87692E-004	5	..........a	-327.66
	196	39.4	-1.91508E-001	-7.91184E-008	0.00000E+000	-1.91600E-001	9.85492E-004	5	..........a	-327.66
	197	39.6	-2.01503E-001	-8.17566E-008	0.00000E+000	-2.01600E-001	9.85992E-004	5	..........a	-327.66
	198	39.8	-2.11473E-001	-8.39581E-008	0.00000E+000	-2.11600E-001	9.96092E-004	5	..........a	-327.66
	199	40	-2.21419E-001	-8.60226E-008	0.00000E+000	-2.21600E-001	9.84592E-004	5	..........a	-327.66
	200	40.2	-2.31474E-001	-8.83532E-008	0.00000E+000	-2.31600E-001	9.69992E-004	5	..........a	-327.66
	201	40.4	-2.41360E-001	-9.07382E-008	0.00000E+000	-2.41600E-001	9.78392E-004	5	..........a	-327.66
	202	40.6	-2.51451E-001	-9.31483E-008	0.00000E+000	-2.51600E-001	9.80092E-004	5	..........a	-327.66
	203	40.8	-2.61352E-001	-9.55828E-008	0.00000E+000	-2.61600E-001	9.88692E-004	5	..........a	-327.66
	204	41	-2.71433E-001	-9.79904E-008	0.00000E+000	-2.71600E-001	9.81192E-004	5	..........a	-327.66
	205	41.2	-2.81473E-001	-1.00487E-007	0.00000E+000	-2.81600E-001	9.81492E-004	5	..........a	-327.66
	206	41.4	-2.91420E-001	-1.02978E-007	0.00000E+000	-2.91600E-001	9.79392E-004	5	..........a	-327.66
	207	41.6	-3.01403E-001	-1.05904E-007	0.00000E+000	-3.01600E-001	9.92992E-004	5	..........a	-327.66
	208	41.8	-3.11441E-001	-1.08110E-007	0.00000E+000	-3.11600E-001	9.86892E-004	5	..........a	-327.66
	209	42	-3.21427E-001	-1.10510E-007	0.00000E+000	-3.21600E-001	9.75692E-004	5	..........a	-327.66
	210	42.2	-3.31437E-001	-1.13051E-007	0.00000E+000	-3.31600E-001	9.75692E-004	5	..........a	-327.66
	211	42.4	-3.41354E-001	-1.15463E-007	0.00000E+000	-3.41600E-001	9.87492E-004	5	..........a	-327.66
	212	42.6	-3.51431E-001	-1.17676E-007	0.00000E+000	-3.51600E-001	9.87792E-004	5	..........a	-327.66
	213	42.8	-3.61461E-001	-1.19995E-007	0.00000E+000	-3.61600E-001	9.93492E-004	5	..........a	-327.66
	214	43	-3.71427E-001	-1.22287E-007	0.00000E+000	-3.71600E-001	9.74792E-004	5	..........a	-327.66
	215	43.2	-3.81357E-001	-1.24571E-007	0.00000E+000	-3.81600E-001	9.67192E-004	5	..........a	-327.66
	216	43.4	-3.91448E-001	-1.26793E-007	0.00000E+000	-3.91600E-001	9.95092E-004	5	..........a	-327.66
	217	43.6	-4.01428E-001	-1.29067E-007	0.00000E+000	-4.01600E-001	9.82492E-004	5	..........a	-327.66
	218	43.8	-4.11413E-001	-1.31347E-007	0.00000E+000	-4.11600E-001	9.74292E-004	5	..........a	-327.66
	219	44	-4.21308E-001	-1.33655E-007	0.00000E+000	-4.21600E-001	9.84692E-004	5	..........a	-327.66
	220	44.2	-4.31412E-001	-1.36037E-007	0.00000E+000	-4.31600E-001	9.96992E-004	5	..........a	-327.66
	221	44.4	-4.41414E-001	-1.38452E-007	0.00000E+000	-4.41600E-001	9.88192E-004	5	..........a	-327.66
	222	44.6	-4.51409E-001	-1.40705E-007	0.00000E+000	-4.51600E-001	9.97992E-004	5	..........a	-327.66
	223	44.8	-4.61313E-001	-1.43025E-007	0.00000E+000	-4.61600E-001	9.79192E-004	5	..........a	-327.66
	224	45	-4.71457E-001	-1.45372E-007	0.00000E+000	-4.71600E-001	9.89292E-004	5	..........a	-327.66
	225	45.2	-4.81408E-001	-1.47754E-007	0.00000E+000	-4.81600E-001	9.79592E-004	5	..........a	-327.66
	226	45.4	-4.91391E-001	-1.50071E-007	0.00000E+000	-4.91600E-001	9.88292E-004	5	..........a	-327.66
	227	45.6	-5.01366E-001	-1.53448E-007	0.00000E+000	-5.01600E-001	9.71692E-004	5	..........a	-327.66
	228	45.8	-5.11417E-001	-1.55281E-007	0.00000E+000	-5.11600E-001	9.85892E-004	5	..........a	-327.66
	229	46	-5.21395E-001	-1.57333E-007	0.00000E+000	-5.21600E-001	9.96392E-004	5	..........a	-327.66
	230	46.2	-5.31413E-001	-1.59744E-007	0.00000E+000	-5.31600E-001	9.81892E-004	5	..........a	-327.66
	231	46.4	-5.41299E-001	-1.62197E-007	0.00000E+000	-5.41600E-001	9.85592E-004	5	..........a	-327.66
	232	46.6	-5.51406E-001	-1.64631E-007	0.00000E+000	-5.51600E-001	9.83392E-004	5	..........a	-327.66
	233	46.8	-5.61385E-001	-1.66920E-007	0.00000E+000	-5.61600E-001	9.91592E-004	5	..........a	-327.66
	234	47	-5.71390E-001	-1.69705E-007	0.00000E+000	-5.71600E-001	9.82992E-004	5	..........a	-327.66
	235	47.2	-5.81343E-001	-1.71995E-007	0.00000E+000	-5.81600E-001	1.00369E-003	5	..........a	-327.66
	236	47.4	-5.91389E-001	-1.74501E-007	0.00000E+000	-5.91600E-001	9.75692E-004	5	..........a	-327.66
	237	47.6	-6.01384E-001	-1.77113E-007	0.00000E+000	-6.01600E-001	9.92092E-004	5	..........a	-327.66
CURVE2	TABLE
	Pt	T	Vf	Im	Vu	Sig	Ach	IERange	Over	Temp
	#	s	V vs. Ref.	A	V	V	V	#	bits	deg C
	238	47.8	-5.89797E-001	-1.48650E-007	0.00000E+000	-5.90000E-001	9.81192E-004	5	..........a	-327.66
	239	48	-5.79766E-001	-1.33316E-007	0.00000E+000	-5.80000E-001	9.77992E-004	5	..........a	-327.66
	240	48.2	-5.69818E-001	-1.21376E-007	0.00000E+000	-5.70000E-001	9.86092E-004	5	..........a	-327.66
	241	48.4	-5.59843E-001	-1.11189E-007	0.00000E+000	-5.60000E-001	9.84892E-004	5	..........a	-327.66
	242	48.6	-5.49833E-001	-1.02689E-007	0.00000E+000	-5.50000E-001	9.70292E-004	5	..........a	-327.66
	243	48.8	-5.39750E-001	-9.50410E-008	0.00000E+000	-5.40000E-001	9.75192E-004	5	..........a	-327.66
	244	49	-5.29823E-001	-8.80364E-008	0.00000E+000	-5.30000E-001	9.81692E-004	5	..........a	-327.66
	245	49.2	-5.19863E-001	-8.18551E-008	0.00000E+000	-5.20000E-001	9.96792E-004	5	..........a	-327.66
	246	49.4	-5.09833E-001	-7.61150E-008	0.00000E+000	-5.10000E-001	9.95492E-004	5	..........a	-327.66
	247	49.6	-4.99808E-001	-7.05128E-008	0.00000E+000	-5.00000E-001	9.75192E-004	5	..........a	-327.66
	248	49.8	-4.89827E-001	-6.53349E-008	0.00000E+000	-4.90000E-001	9.88592E-004	5	..........a	-327.66
	249	50	-4.79830E-001	-6.05355E-008	0.00000E+000	-4.80000E-001	9.92392E-004	5	..........a	-327.66
	250	50.2	-4.69834E-001	-5.59618E-008	0.00000E+000	-4.70000E-001	9.93092E-004	5	..........a	-327.66
	251	50.4	-4.59788E-001	-5.15734E-008	0.00000E+000	-4.60000E-001	9.69392E-004	5	..........a	-327.66
	252	50.6	-4.49839E-001	-4.74367E-008	0.00000E+000	-4.50000E-001	9.72692E-004	5	..........a	-327.66
	253	50.8	-4.39849E-001	-4.35685E-008	0.00000E+000	-4.40000E-001	9.80792E-004	5	..........a	-327.66
	254	51	-4.29845E-001	-3.96909E-008	0.00000E+000	-4.30000E-001	9.69192E-004	5	..........a	-327.66
	255	51.2	-4.19786E-001	-3.61229E-008	0.00000E+000	-4.20000E-001	9.75592E-004	5	..........a	-327.66
	256	51.4	-4.09887E-001	-3.26071E-008	0.00000E+000	-4.10000E-001	9.92392E-004	5	..........a	-327.66
	257	51.6	-3.99844E-001	-2.91834E-008	0.00000E+000	-4.00000E-001	9.84792E-004	5	..........a	-327.66
	258	51.8	-3.89889E-001	-2.59696E-008	0.00000E+000	-3.90000E-001	9.81692E-004	5	..........a	-327.66
	259	52	-3.79833E-001	-2.27973E-008	0.00000E+000	-3.80000E-001	9.88792E-004	5	..........a	-327.66
	260	52.2	-3.69857E-001	-1.97060E-008	0.00000E+000	-3.70000E-001	1.00259E-003	5	..........a	-327.66
	261	52.4	-3.59884E-001	-1.67700E-008	0.00000E+000	-3.60000E-001	1.00209E-003	5	..........a	-327.66
	262	52.6	-3.49857E-001	-1.39559E-008	0.00000E+000	-3.50000E-001	9.82992E-004	5	..........a	-327.66
	263	52.8	-3.39822E-001	-1.12346E-008	0.00000E+000	-3.40000E-001	9.76492E-004	5	..........a	-327.66
	264	53	-3.29870E-001	-8.40712E-009	0.00000E+000	-3.30000E-001	9.79092E-004	5	..........a	-327.66
	265	53.2	-3.19862E-001	-5.79126E-009	0.00000E+000	-3.20000E-001	9.89692E-004	5	..........a	-327.66
	266	53.4	-3.09873E-001	-3.17346E-009	0.00000E+000	-3.10000E-001	9.86692E-004	5	..........a	-327.66
	267	53.6	-2.99864E-001	-7.32211E-010	0.00000E+000	-3.00000E-001	9.93192E-004	5	..........a	-327.66
	268	53.8	-2.89909E-001	1.77604E-009	0.00000E+000	-2.90000E-001	9.91992E-004	5	..........a	-327.66
	269	54	-2.79930E-001	4.20176E-009	0.00000E+000	-2.80000E-001	9.95092E-004	5	..........a	-327.66
	270	54.2	-2.69865E-001	6.52040E-009	0.00000E+000	-2.70000E-001	9.93392E-004	5	..........a	-327.66
	271	54.4	-2.59821E-001	8.74237E-009	0.00000E+000	-2.60000E-001	1.01699E-003	5	..........a	-327.66
	272	54.6	-2.49887E-001	1.10246E-008	0.00000E+000	-2.50000E-001	9.91892E-004	5	..........a	-327.66
	273	54.8	-2.39979E-001	1.31864E-008	0.00000E+000	-2.40000E-001	9.90792E-004	5	..........a	-327.66
	274	55	-2.29929E-001	1.53270E-008	0.00000E+000	-2.30000E-001	9.78792E-004	5	..........a	-327.66
	275	55.2	-2.19877E-001	1.74485E-008	0.00000E+000	-2.20000E-001	9.82292E-004	5	..........a	-327.66
	276	55.4	-2.09914E-001	1.94851E-008	0.00000E+000	-2.10000E-001	9.92892E-004	5	..........a	-327.66
	277	55.6	-1.99961E-001	2.15105E-008	0.00000E+000	-2.00000E-001	9.98892E-004	5	..........a	-327.66
	278	55.8	-1.90001E-001	2.34428E-008	0.00000E+000	-1.90000E-001	9.88292E-004	5	..........a	-327.66
	279	56	-1.79910E-001	2.54218E-008	0.00000E+000	-1.80000E-001	9.83092E-004	5	..........a	-327.66
	280	56.2	-1.69892E-001	2.73139E-008	0.00000E+000	-1.70000E-001	9.94592E-004	5	..........a	-327.66
	281	56.4	-1.59986E-001	2.91903E-008	0.00000E+000	-1.60000E-001	9.91792E-004	5	..........a	-327.66
	282	56.6	-1.49959E-001	3.04183E-008	0.00000E+000	-1.50000E-001	9.91192E-004	5	..........a	-327.66
	283	56.8	-1.39880E-001	3.26684E-008	0.00000E+000	-1.40000E-001	9.78292E-004	5	..........a	-327.66
	284	57	-1.29949E-001	3.45847E-008	0.00000E+000	-1.30000E-001	9.98792E-004	5	..........a	-327.66
	285	57.2	-1.19934E-001	3.64479E-008	0.00000E+000	-1.20000E-001	9.75492E-004	5	..........a	-327.66
	286	57.4	-1.09996E-001	3.82456E-008	0.00000E+000	-1.10000E-001	9.90292E-004	5	..........a	-327.66
	287	57.6	-9.99144E-002	4.00710E-008	0.00000E+000	-1.00000E-001	9.87592E-004	5	..........a	-327.66
	288	57.8	-8.99120E-002	4.19012E-008	0.00000E+000	-9.00000E-002	9.90192E-004	5	..........a	-327.66
	289	58	-8.00101E-002	4.37031E-008	0.00000E+000	-8.00000E-002	1.00429E-003	5	..........a	-327.66
	290	58.2	-6.99274E-002	4.54762E-008	0.00000E+000	-7.00000E-002	9.94292E-004	5	..........a	-327.66
	291	58.4	-5.98968E-002	4.73222E-008	0.00000E+000	-6.00000E-002	9.76892E-004	5	..........a	-327.66
	292	58.6	-4.99484E-002	4.90979E-008	0.00000E+000	-5.00000E-002	9.99892E-004	5	..........a	-327.66
	293	58.8	-3.99287E-002	5.09511E-008	0.00000E+000	-4.00000E-002	9.95692E-004	5	..........a	-327.66
	294	59	-2.99601E-002	5.28145E-008	0.00000E+000	-3.00000E-002	1.00319E-003	5	..........a	-327.66
	295	59.2	-1.99469E-002	5.47284E-008	0.00000E+000	-2.00000E-002	9.81392E-004	5	..........a	-327.66
	296	59.4	-9.89511E-003	5.66315E-008	0.00000E+000	-1.00000E-002	9.86892E-004	5	..........a	-327.66
	297	59.6	-4.70834E-006	5.86414E-008	0.00000E+000	7.45058E-009	9.89092E-004	5	..........a	-327.66
	298	59.8	1.00809E-002	6.06899E-008	0.00000E+000	1.00000E-002	9.78492E-004	5	..........a	-327.66
	299	60	2.01323E-002	6.27866E-008	0.00000E+000	2.00000E-002	9.96392E-004	5	..........a	-327.66
	300	60.2	3.00042E-002	6.48786E-008	0.00000E+000	3.00000E-002	9.89492E-004	5	..........a	-327.66
	301	60.4	4.00095E-002	6.70113E-008	0.00000E+000	4.00000E-002	9.75992E-004	5	..........a	-327.66
	302	60.6	5.00088E-002	6.92225E-008	0.00000E+000	5.00000E-002	9.79692E-004	5	..........a	-327.66
	303	60.8	6.00827E-002	7.14462E-008	0.00000E+000	6.00000E-002	9.96392E-004	5	..........a	-327.66
	304	61	6.99960E-002	7.37359E-008	0.00000E+000	7.00000E-002	9.98492E-004	5	..........a	-327.66
	305	61.2	8.00107E-002	7.61338E-008	0.00000E+000	8.00000E-002	9.83692E-004	5	..........a	-327.66
	306	61.4	9.00829E-002	7.86740E-008	0.00000E+000	9.00000E-002	9.84392E-004	5	..........a	-327.66
	307	61.6	1.00077E-001	8.13254E-008	0.00000E+000	1.00000E-001	9.81692E-004	5	..........a	-327.66
	308	61.8	1.10054E-001	8.41291E-008	0.00000E+000	1.10000E-001	9.81692E-004	5	..........a	-327.66
	309	62	1.19991E-001	8.70641E-008	0.00000E+000	1.20000E-001	1.01339E-003	5	..........a	-327.66
	310	62.2	1.29996E-001	8.99868E-008	0.00000E+000	1.30000E-001	1.00259E-003	5	..........a	-327.66
	311	62.4	1.40077E-001	9.27252E-008	0.00000E+000	1.40000E-001	9.77692E-004	5	..........a	-327.66
	312	62.6	1.50002E-001	9.55668E-008	0.00000E+000	1.50000E-001	1.01179E-003	5	..........a	-327.66
	313	62.8	1.60014E-001	9.85540E-008	0.00000E+000	1.60000E-001	1.02079E-003	5	..........a	-327.66
	314	63	1.70030E-001	1.01501E-007	0.00000E+000	1.70000E-001	9.88692E-004	5	..........a	-327.66
	315	63.2	1.80034E-001	1.04426E-007	0.00000E+000	1.80000E-001	9.87592E-004	5	..........a	-327.66
	316	63.4	1.90066E-001	1.07419E-007	0.00000E+000	1.90000E-001	9.87792E-004	5	..........a	-327.66
	317	63.6	1.99984E-001	1.10376E-007	0.00000E+000	2.00000E-001	9.86792E-004	5	..........a	-327.66
	318	63.8	2.09966E-001	1.13083E-007	0.00000E+000	2.10000E-001	9.96792E-004	5	..........a	-327.66
	319	64	2.19938E-001	1.15729E-007	0.00000E+000	2.20000E-001	9.85492E-004	5	..........a	-327.66
	320	64.2	2.29997E-001	1.18064E-007	0.00000E+000	2.30000E-001	1.01479E-003	5	..........a	-327.66
	321	64.4	2.39981E-001	1.20260E-007	0.00000E+000	2.40000E-001	9.96992E-004	5	..........a	-327.66
	322	64.6	2.49961E-001	1.22174E-007	0.00000E+000	2.50000E-001	1.00009E-003	5	..........a	-327.66
	323	64.8	2.59990E-001	1.24589E-007	0.00000E+000	2.60000E-001	9.82992E-004	5	..........a	-327.66
	324	65	2.70040E-001	1.26829E-007	0.00000E+000	2.70000E-001	9.93292E-004	5	..........a	-327.66
	325	65.2	2.79935E-001	1.29141E-007	0.00000E+000	2.80000E-001	9.85692E-004	5	..........a	-327.66
	326	65.4	2.89958E-001	1.31571E-007	0.00000E+000	2.90000E-001	9.92992E-004	5	..........a	-327.66
	327	65.6	2.99996E-001	1.34146E-007	0.00000E+000	3.00000E-001	9.90092E-004	5	..........a	-327.66
	328	65.8	3.09984E-001	1.36825E-007	0.00000E+000	3.10000E-001	1.00399E-003	5	..........a	-327.66
	329	66	3.19974E-001	1.39604E-007	0.00000E+000	3.20000E-001	9.98792E-004	5	..........a	-327.66
	330	66.2	3.29964E-001	1.42445E-007	0.00000E+000	3.30000E-001	9.80192E-004	5	..........a	-327.66
	331	66.4	3.39996E-001	1.45211E-007	0.00000E+000	3.40000E-001	9.95692E-004	5	..........a	-327.66
	332	66.6	3.49998E-001	1.48385E-007	0.00000E+000	3.50000E-001	1.00829E-003	5	..........a	-327.66
	333	66.8	3.59936E-001	1.51608E-007	0.00000E+000	3.60000E-001	1.00189E-003	5	..........a	-327.66
	334	67	3.69983E-001	1.54843E-007	0.00000E+000	3.70000E-001	9.95792E-004	5	..........a	-327.66
	335	67.2	3.79973E-001	1.58161E-007	0.00000E+000	3.80000E-001	9.83992E-004	5	..........a	-327.66
	336	67.4	3.89999E-001	1.61387E-007	0.00000E+000	3.90000E-001	9.93292E-004	5	..........a	-327.66
	337	67.6	3.99946E-001	1.64638E-007	0.00000E+000	4.00000E-001	1.00329E-003	5	..........a	-327.66
	338	67.8	4.09898E-001	1.68065E-007	0.00000E+000	4.10000E-001	1.00749E-003	5	..........a	-327.66
	339	68	4.19941E-001	1.71427E-007	0.00000E+000	4.20000E-001	9.92292E-004	5	..........a	-327.66
	340	68.2	4.29961E-001	1.74827E-007	0.00000E+000	4.30000E-001	1.00559E-003	5	..........a	-327.66
	341	68.4	4.39900E-001	1.78197E-007	0.00000E+000	4.40000E-001	1.00009E-003	5	..........a	-327.66
	342	68.6	4.49880E-001	1.81629E-007	0.00000E+000	4.50000E-001	9.82392E-004	5	..........a	-327.66
	343	68.8	4.59922E-001	1.85044E-007	0.00000E+000	4.60000E-001	9.83792E-004	5	..........a	-327.66
	344	69	4.69968E-001	1.88569E-007	0.00000E+000	4.70000E-001	1.00199E-003	5	..........a	-327.66
	345	69.2	4.79876E-001	1.92044E-007	0.00000E+000	4.80000E-001	1.00669E-003	5	..........a	-327.66
	346	69.4	4.89896E-001	1.95488E-007	0.00000E+000	4.90000E-001	9.85292E-004	5	..........a	-327.66
	347	69.6	4.99954E-001	1.99061E-007	0.00000E+000	5.00000E-001	9.93892E-004	5	..........a	-327.66
	348	69.8	5.09963E-001	2.02617E-007	0.00000E+000	5.10000E-001	1.01449E-003	5	..........a	-327.66
	349	70	5.19904E-001	2.06356E-007	0.00000E+000	5.20000E-001	9.90192E-004	5	..........a	-327.66
	350	70.2	5.29902E-001	2.10176E-007	0.00000E+000	5.30000E-001	1.00159E-003	5	..........a	-327.66
	351	70.4	5.39898E-001	2.14135E-007	0.00000E+000	5.40000E-001	9.79292E-004	5	..........a	-327.66
	352	70.6	5.49948E-001	2.18313E-007	0.00000E+000	5.50000E-001	1.00119E-003	5	..........a	-327.66
	353	70.8	5.59895E-001	2.22730E-007	0.00000E+000	5.60000E-001	1.00509E-003	5	..........a	-327.66
	354	71	5.69875E-001	2.27611E-007	0.00000E+000	5.70000E-001	9.95992E-004	5	..........a	-327.66
[...]
	922	184.6	6.49861E-001	2.39279E-007	0.00000E+000	6.50000E-001	9.91692E-004	5	..........a	-327.66
	923	184.8	6.59859E-001	2.44458E-007	0.00000E+000	6.60000E-001	9.78792E-004	5	..........a	-327.66
	924	185	6.69909E-001	2.49985E-007	0.00000E+000	6.70000E-001	9.80792E-004	5	..........a	-327.66
	925	185.2	6.79859E-001	2.56332E-007	0.00000E+000	6.80000E-001	9.89892E-004	5	..........a	-327.66
	926	185.4	6.89838E-001	2.63479E-007	0.00000E+000	6.90000E-001	9.92892E-004	5	..........a	-327.66
	927	185.6	6.99827E-001	2.71494E-007	0.00000E+000	7.00000E-001	9.66392E-004	5	..........a	-327.66
	928	185.8	7.09927E-001	2.80269E-007	0.00000E+000	7.10000E-001	9.91092E-004	5	..........a	-327.66
	929	186	7.19818E-001	2.89818E-007	0.00000E+000	7.20000E-001	9.84992E-004	5	..........a	-327.66
	930	186.2	7.29827E-001	2.99944E-007	0.00000E+000	7.30000E-001	9.68092E-004	5	..........a	-327.66
	931	186.4	7.39812E-001	3.10687E-007	0.00000E+000	7.40000E-001	9.80192E-004	5	..........a	-327.66
	932	186.6	7.49879E-001	3.21992E-007	0.00000E+000	7.50000E-001	9.79292E-004	5	..........a	-327.66
	933	186.8	7.59804E-001	3.33585E-007	0.00000E+000	7.60000E-001	9.88592E-004	5	..........a	-327.66
	934	187	7.69781E-001	3.45193E-007	0.00000E+000	7.70000E-001	9.86992E-004	5	..........a	-327.66
	935	187.2	7.79790E-001	3.56999E-007	0.00000E+000	7.80000E-001	9.84292E-004	5	..........a	-327.66
	936	187.4	7.89888E-001	3.69546E-007	0.00000E+000	7.90000E-001	9.80692E-004	5	..........a	-327.66
	937	187.6	7.99773E-001	3.82479E-007	0.00000E+000	8.00000E-001	9.69992E-004	5	..........a	-327.66
	938	187.8	7.89908E-001	3.18673E-007	0.00000E+000	7.90000E-001	9.72592E-004	5	..........a	-327.66
	939	188	7.79818E-001	2.75373E-007	0.00000E+000	7.80000E-001	9.96992E-004	5	..........a	-327.66
	940	188.2	7.69905E-001	2.42497E-007	0.00000E+000	7.70000E-001	1.00829E-003	5	..........a	-327.66
	941	188.4	7.59863E-001	2.16138E-007	0.00000E+000	7.60000E-001	9.77092E-004	5	..........a	-327.66
	942	188.6	7.49947E-001	1.94320E-007	0.00000E+000	7.50000E-001	9.91192E-004	5	..........a	-327.66
	943	188.8	7.39893E-001	1.75879E-007	0.00000E+000	7.40000E-001	9.72092E-004	5	..........a	-327.66
	944	189	7.29951E-001	1.60037E-007	0.00000E+000	7.30000E-001	1.00959E-003	5	..........a	-327.66
	945	189.2	7.19873E-001	1.46295E-007	0.00000E+000	7.20000E-001	9.85892E-004	5	..........a	-327.66
	946	189.4	7.09975E-001	1.34208E-007	0.00000E+000	7.10000E-001	1.00779E-003	5	..........a	-327.66
	947	189.6	6.99899E-001	1.23465E-007	0.00000E+000	7.00000E-001	1.00569E-003	5	..........a	-327.66
	948	189.8	6.89919E-001	1.13977E-007	0.00000E+000	6.90000E-001	9.98392E-004	5	..........a	-327.66
	949	190	6.79921E-001	1.05502E-007	0.00000E+000	6.80000E-001	9.80292E-004	5	..........a	-327.66
	950	190.2	6.69973E-001	9.77913E-008	0.00000E+000	6.70000E-001	9.98292E-004	5	..........a	-327.66
	951	190.4	6.59925E-001	9.08528E-008	0.00000E+000	6.60000E-001	9.76892E-004	5	..........a	-327.66
	952	190.6	6.49910E-001	8.45017E-008	0.00000E+000	6.50000E-001	9.72892E-004	5	..........a	-327.66
	953	190.8	6.39903E-001	7.85990E-008	0.00000E+000	6.40000E-001	1.00619E-003	5	..........a	-327.66
	954	191	6.30030E-001	7.31596E-008	0.00000E+000	6.30000E-001	9.90892E-004	5	..........a	-327.66
	955	191.2	6.19949E-001	6.79973E-008	0.00000E+000	6.20000E-001	9.81992E-004	5	..........a	-327.66
	956	191.4	6.09946E-001	6.31748E-008	0.00000E+000	6.10000E-001	9.94192E-004	5	..........a	-327.66
	957	191.6	5.99979E-001	5.85469E-008	0.00000E+000	6.00000E-001	9.87492E-004	5	..........a	-327.66
	958	191.8	5.90003E-001	5.41062E-008	0.00000E+000	5.90000E-001	9.92992E-004	5	..........a	-327.66
	959	192	5.80020E-001	4.97935E-008	0.00000E+000	5.80000E-001	9.85092E-004	5	..........a	-327.66
	960	192.2	5.69968E-001	4.55030E-008	0.00000E+000	5.70000E-001	1.00479E-003	5	..........a	-327.66
	961	192.4	5.59951E-001	4.12788E-008	0.00000E+000	5.60000E-001	1.00599E-003	5	..........a	-327.66
	962	192.6	5.50044E-001	3.70867E-008	0.00000E+000	5.50000E-001	9.79792E-004	5	..........a	-327.66
	963	192.8	5.40018E-001	3.30444E-008	0.00000E+000	5.40000E-001	9.86992E-004	5	..........a	-327.66
	964	193	5.29975E-001	2.84302E-008	0.00000E+000	5.30000E-001	9.88092E-004	5	..........a	-327.66
	965	193.2	5.19983E-001	2.44200E-008	0.00000E+000	5.20000E-001	9.79192E-004	5	..........a	-327.66
	966	193.4	5.10000E-001	1.99230E-008	0.00000E+000	5.10000E-001	1.01049E-003	5	..........a	-327.66
	967	193.6	5.00074E-001	1.50573E-008	0.00000E+000	5.00000E-001	9.77592E-004	5	..........a	-327.66
	968	193.8	4.89968E-001	9.41787E-009	0.00000E+000	4.90000E-001	9.88392E-004	5	..........a	-327.66
	969	194	4.79930E-001	3.39267E-009	0.00000E+000	4.80000E-001	9.94392E-004	5	..........a	-327.66
	970	194.2	4.70050E-001	-2.50603E-009	0.00000E+000	4.70000E-001	9.85092E-004	5	..........a	-327.66
	971	194.4	4.60050E-001	-7.58326E-009	0.00000E+000	4.60000E-001	9.83292E-004	5	..........a	-327.66
	972	194.6	4.50001E-001	-1.19082E-008	0.00000E+000	4.50000E-001	9.85992E-004	5	..........a	-327.66
	973	194.8	4.40018E-001	-1.51514E-008	0.00000E+000	4.40000E-001	9.97092E-004	5	..........a	-327.66
	974	195	4.30021E-001	-1.75983E-008	0.00000E+000	4.30000E-001	1.00009E-003	5	..........a	-327.66
	975	195.2	4.20054E-001	-1.91866E-008	0.00000E+000	4.20000E-001	9.93792E-004	5	..........a	-327.66
	976	195.4	4.10035E-001	-2.02267E-008	0.00000E+000	4.10000E-001	9.97092E-004	5	..........a	-327.66
	977	195.6	4.00056E-001	-2.05530E-008	0.00000E+000	4.00000E-001	9.82392E-004	5	..........a	-327.66
	978	195.8	3.90079E-001	-2.08390E-008	0.00000E+000	3.90000E-001	9.79592E-004	5	..........a	-327.66
	979	196	3.80112E-001	-2.01681E-008	0.00000E+000	3.80000E-001	9.72692E-004	5	..........a	-327.66
	980	196.2	3.70078E-001	-1.97761E-008	0.00000E+000	3.70000E-001	9.82592E-004	5	..........a	-327.66
	981	196.4	3.60041E-001	-1.90321E-008	0.00000E+000	3.60000E-001	9.75392E-004	5	..........a	-327.66
	982	196.6	3.50052E-001	-1.87799E-008	0.00000E+000	3.50000E-001	9.86192E-004	5	..........a	-327.66
	983	196.8	3.40109E-001	-1.90517E-008	0.00000E+000	3.40000E-001	9.76292E-004	5	..........a	-327.66
	984	197	3.30051E-001	-1.95940E-008	0.00000E+000	3.30000E-001	9.86092E-004	5	..........a	-327.66
	985	197.2	3.20082E-001	-1.98440E-008	0.00000E+000	3.20000E-001	9.81892E-004	5	..........a	-327.66
	986	197.4	3.10068E-001	-2.06949E-008	0.00000E+000	3.10000E-001	1.00279E-003	5	..........a	-327.66
	987	197.6	3.00076E-001	-2.14495E-008	0.00000E+000	3.00000E-001	9.82092E-004	5	..........a	-327.66
	988	197.8	2.90062E-001	-2.23089E-008	0.00000E+000	2.90000E-001	9.91892E-004	5	..........a	-327.66
	989	198	2.80008E-001	-2.30536E-008	0.00000E+000	2.80000E-001	9.86892E-004	5	..........a	-327.66
	990	198.2	2.70109E-001	-2.42007E-008	0.00000E+000	2.70000E-001	1.00209E-003	5	..........a	-327.66
	991	198.4	2.60089E-001	-2.50306E-008	0.00000E+000	2.60000E-001	9.81492E-004	5	..........a	-327.66
	992	198.6	2.50042E-001	-2.61122E-008	0.00000E+000	2.50000E-001	9.88692E-004	5	..........a	-327.66
	993	198.8	2.40072E-001	-2.74455E-008	0.00000E+000	2.40000E-001	9.81592E-004	5	..........a	-327.66
	994	199	2.30023E-001	-2.82706E-008	0.00000E+000	2.30000E-001	1.00559E-003	5	..........a	-327.66
	995	199.2	2.20050E-001	-2.95932E-008	0.00000E+000	2.20000E-001	9.90192E-004	5	..........a	-327.66
	996	199.4	2.10056E-001	-3.09085E-008	0.00000E+000	2.10000E-001	9.85192E-004	5	..........a	-327.66
	997	199.6	2.00080E-001	-3.26120E-008	0.00000E+000	2.00000E-001	9.76092E-004	5	..........a	-327.66
	998	199.8	1.90134E-001	-3.39329E-008	0.00000E+000	1.90000E-001	9.68292E-004	5	..........a	-327.66
	999	200	1.80142E-001	-3.52854E-008	0.00000E+000	1.80000E-001	9.83992E-004	5	..........a	-327.66
	1000	200.2	1.70115E-001	-3.63892E-008	0.00000E+000	1.70000E-001	9.76892E-004	5	..........a	-327.66
	1001	200.4	1.60077E-001	-3.75463E-008	0.00000E+000	1.60000E-001	9.99392E-004	5	..........a	-327.66
	1002	200.6	1.50089E-001	-3.87938E-008	0.00000E+000	1.50000E-001	9.88892E-004	5	..........a	-327.66
	1003	200.8	1.40151E-001	-4.01783E-008	0.00000E+000	1.40000E-001	9.71392E-004	5	..........a	-327.66
	1004	201	1.30090E-001	-4.15896E-008	0.00000E+000	1.30000E-001	9.86092E-004	5	..........a	-327.66
	1005	201.2	1.20105E-001	-4.29057E-008	0.00000E+000	1.20000E-001	9.88592E-004	5	..........a	-327.66
	1006	201.4	1.10135E-001	-4.41307E-008	0.00000E+000	1.10000E-001	1.00679E-003	5	..........a	-327.66
	1007	201.6	1.00167E-001	-4.53115E-008	0.00000E+000	1.00000E-001	9.78792E-004	5	..........a	-327.66
	1008	201.8	9.01273E-002	-4.62931E-008	0.00000E+000	9.00000E-002	9.77892E-004	5	..........a	-327.66
	1009	202	8.00714E-002	-4.70948E-008	0.00000E+000	8.00000E-002	9.86092E-004	5	..........a	-327.66
	1010	202.2	7.00663E-002	-4.78548E-008	0.00000E+000	7.00000E-002	9.94292E-004	5	..........a	-327.66
	1011	202.4	6.01467E-002	-4.84826E-008	0.00000E+000	6.00000E-002	9.78492E-004	5	..........a	-327.66
	1012	202.6	5.00923E-002	-4.89311E-008	0.00000E+000	5.00000E-002	9.95992E-004	5	..........a	-327.66
	1013	202.8	4.00835E-002	-4.96461E-008	0.00000E+000	4.00000E-002	9.69192E-004	5	..........a	-327.66
	1014	203	3.01074E-002	-4.99362E-008	0.00000E+000	3.00000E-002	9.79192E-004	5	..........a	-327.66
	1015	203.2	2.02266E-002	-5.04101E-008	0.00000E+000	2.00000E-002	9.86292E-004	5	..........a	-327.66
	1016	203.4	1.01424E-002	-5.09220E-008	0.00000E+000	1.00000E-002	9.83792E-004	5	..........a	-327.66
	1017	203.6	8.39417E-005	-5.13221E-008	0.00000E+000	7.45058E-009	9.88192E-004	5	..........a	-327.66
	1018	203.8	-9.86296E-003	-5.17445E-008	0.00000E+000	-1.00000E-002	9.81292E-004	5	..........a	-327.66
	1019	204	-1.98749E-002	-5.24093E-008	0.00000E+000	-2.00000E-002	9.97292E-004	5	..........a	-327.66
	1020	204.2	-2.99152E-002	-5.28870E-008	0.00000E+000	-3.00000E-002	9.81192E-004	5	..........a	-327.66
	1021	204.4	-3.98740E-002	-5.34899E-008	0.00000E+000	-4.00000E-002	9.85692E-004	5	..........a	-327.66
	1022	204.6	-4.98847E-002	-5.40835E-008	0.00000E+000	-5.00000E-002	9.78492E-004	5	..........a	-327.66
	1023	204.8	-5.98373E-002	-5.49387E-008	0.00000E+000	-6.00000E-002	9.60792E-004	5	..........a	-327.66
	1024	205	-6.98647E-002	-5.57013E-008	0.00000E+000	-7.00000E-002	9.85092E-004	5	..........a	-327.66
	1025	205.2	-7.98800E-002	-5.67948E-008	0.00000E+000	-8.00000E-002	9.91692E-004	5	..........a	-327.66
	1026	205.4	-8.98714E-002	-5.77388E-008	0.00000E+000	-9.00000E-002	9.77292E-004	5	..........a	-327.66
	1027	205.6	-9.98545E-002	-5.87945E-008	0.00000E+000	-1.00000E-001	9.76392E-004	5	..........a	-327.66
	1028	205.8	-1.09913E-001	-5.98837E-008	0.00000E+000	-1.10000E-001	9.79192E-004	5	..........a	-327.66
	1029	206	-1.19879E-001	-6.11147E-008	0.00000E+000	-1.20000E-001	9.80692E-004	5	..........a	-327.66
	1030	206.2	-1.29903E-001	-6.25121E-008	0.00000E+000	-1.30000E-001	9.95492E-004	5	..........a	-327.66
	1031	206.4	-1.39833E-001	-6.38280E-008	0.00000E+000	-1.40000E-001	9.64292E-004	5	..........a	-327.66
	1032	206.6	-1.49904E-001	-6.53217E-008	0.00000E+000	-1.50000E-001	9.90092E-004	5	..........a	-327.66
	1033	206.8	-1.59898E-001	-6.68967E-008	0.00000E+000	-1.60000E-001	9.88192E-004	5	..........a	-327.66
	1034	207	-1.69867E-001	-6.86283E-008	0.00000E+000	-1.70000E-001	9.84092E-004	5	..........a	-327.66
	1035	207.2	-1.79847E-001	-7.03918E-008	0.00000E+000	-1.80000E-001	9.72292E-004	5	..........a	-327.66
	1036	207.4	-1.89911E-001	-7.22343E-008	0.00000E+000	-1.90000E-001	9.60692E-004	5	..........a	-327.66
	1037	207.6	-1.99915E-001	-7.42070E-008	0.00000E+000	-2.00000E-001	9.80292E-004	5	..........a	-327.66
	1038	207.8	-2.09848E-001	-7.62922E-008	0.00000E+000	-2.10000E-001	9.86692E-004	5	..........a	-327.66
	1039	208	-2.19834E-001	-7.82689E-008	0.00000E+000	-2.20000E-001	9.75592E-004	5	..........a	-327.66
	1040	208.2	-2.29884E-001	-8.03495E-008	0.00000E+000	-2.30000E-001	9.82692E-004	5	..........a	-327.66
	1041	208.4	-2.39847E-001	-8.24944E-008	0.00000E+000	-2.40000E-001	9.76392E-004	5	..........a	-327.66
	1042	208.6	-2.49849E-001	-8.45832E-008	0.00000E+000	-2.50000E-001	9.81592E-004	5	..........a	-327.66
	1043	208.8	-2.59785E-001	-8.68259E-008	0.00000E+000	-2.60000E-001	9.73492E-004	5	..........a	-327.66
	1044	209	-2.69836E-001	-8.90229E-008	0.00000E+000	-2.70000E-001	9.76092E-004	5	..........a	-327.66
	1045	209.2	-2.79832E-001	-9.12022E-008	0.00000E+000	-2.80000E-001	9.68792E-004	5	..........a	-327.66
	1046	209.4	-2.89871E-001	-9.34833E-008	0.00000E+000	-2.90000E-001	9.76992E-004	5	..........a	-327.66
	1047	209.6	-2.99809E-001	-9.56290E-008	0.00000E+000	-3.00000E-001	9.80792E-004	5	..........a	-327.66
	1048	209.8	-3.09851E-001	-9.78411E-008	0.00000E+000	-3.10000E-001	9.76492E-004	5	..........a	-327.66
	1049	210	-3.19828E-001	-1.00173E-007	0.00000E+000	-3.20000E-001	9.83992E-004	5	..........a	-327.66
	1050	210.2	-3.29850E-001	-1.02379E-007	0.00000E+000	-3.30000E-001	9.89392E-004	5	..........a	-327.66
	1051	210.4	-3.39754E-001	-1.04588E-007	0.00000E+000	-3.40000E-001	9.83392E-004	5	..........a	-327.66
	1052	210.6	-3.49830E-001	-1.06743E-007	0.00000E+000	-3.50000E-001	9.88992E-004	5	..........a	-327.66
	1053	210.8	-3.59857E-001	-1.08846E-007	0.00000E+000	-3.60000E-001	9.86192E-004	5	..........a	-327.66
	1054	211	-3.69836E-001	-1.10934E-007	0.00000E+000	-3.70000E-001	9.92292E-004	5	..........a	-327.66
	1055	211.2	-3.79784E-001	-1.12963E-007	0.00000E+000	-3.80000E-001	9.96392E-004	5	..........a	-327.66
	1056	211.4	-3.89850E-001	-1.15004E-007	0.00000E+000	-3.90000E-001	9.86992E-004	5	..........a	-327.66
	1057	211.6	-3.99820E-001	-1.17107E-007	0.00000E+000	-4.00000E-001	9.77892E-004	5	..........a	-327.66
	1058	211.8	-4.09824E-001	-1.19233E-007	0.00000E+000	-4.10000E-001	9.89592E-004	5	..........a	-327.66
	1059	212	-4.19729E-001	-1.21360E-007	0.00000E+000	-4.20000E-001	9.77292E-004	5	..........a	-327.66
	1060	212.2	-4.29819E-001	-1.23579E-007	0.00000E+000	-4.30000E-001	9.81092E-004	5	..........a	-327.66
	1061	212.4	-4.39791E-001	-1.25794E-007	0.00000E+000	-4.40000E-001	9.86592E-004	5	..........a	-327.66
	1062	212.6	-4.49816E-001	-1.27942E-007	0.00000E+000	-4.50000E-001	9.65492E-004	5	..........a	-327.66
	1063	212.8	-4.59745E-001	-1.30129E-007	0.00000E+000	-4.60000E-001	9.76892E-004	5	..........a	-327.66
	1064	213	-4.69794E-001	-1.32327E-007	0.00000E+000	-4.70000E-001	9.68092E-004	5	..........a	-327.66
	1065	213.2	-4.79812E-001	-1.34561E-007	0.00000E+000	-4.80000E-001	9.79092E-004	5	..........a	-327.66
	1066	213.4	-4.89801E-001	-1.36781E-007	0.00000E+000	-4.90000E-001	9.84292E-004	5	..........a	-327.66
	1067	213.6	-4.99780E-001	-1.39013E-007	0.00000E+000	-5.00000E-001	9.67592E-004	5	..........a	-327.66
	1068	213.8	-5.09800E-001	-1.41149E-007	0.00000E+000	-5.10000E-001	9.77992E-004	5	..........a	-327.66
	1069	214	-5.19804E-001	-1.43386E-007	0.00000E+000	-5.20000E-001	9.81992E-004	5	..........a	-327.66
	1070	214.2	-5.29813E-001	-1.45622E-007	0.00000E+000	-5.30000E-001	9.78092E-004	5	..........a	-327.66
	1071	214.4	-5.39715E-001	-1.47893E-007	0.00000E+000	-5.40000E-001	9.80892E-004	5	..........a	-327.66
	1072	214.6	-5.49818E-001	-1.50185E-007	0.00000E+000	-5.50000E-001	9.94892E-004	5	..........a	-327.66
	1073	214.8	-5.59817E-001	-1.52546E-007	0.00000E+000	-5.60000E-001	9.91292E-004	5	..........a	-327.66
	1074	215	-5.69813E-001	-1.55063E-007	0.00000E+000	-5.70000E-001	9.88492E-004	5	..........a	-327.66
	1075	215.2	-5.79753E-001	-1.57532E-007	0.00000E+000	-5.80000E-001	9.70792E-004	5	..........a	-327.66
	1076	215.4	-5.89792E-001	-1.60185E-007	0.00000E+000	-5.90000E-001	9.88592E-004	5	..........a	-327.66
	1077	215.6	-5.99813E-001	-1.62916E-007	0.00000E+000	-6.00000E-001	9.78092E-004	5	..........a	-327.66
CURVE5	TABLE
	Pt	T	Vf	Im	Vu	Sig	Ach	IERange	Over	Temp
	#	s	V vs. Ref.	A	V	V	V	#	bits	deg C
	1078	215.8	-5.89817E-001	-1.38284E-007	0.00000E+000	-5.90000E-001	9.80992E-004	5	..........a	-327.66
	1079	216	-5.79780E-001	-1.23448E-007	0.00000E+000	-5.80000E-001	9.75092E-004	5	..........a	-327.66
	1080	216.2	-5.69824E-001	-1.11966E-007	0.00000E+000	-5.70000E-001	9.86092E-004	5	..........a	-327.66
	1081	216.4	-5.59829E-001	-1.02579E-007	0.00000E+000	-5.60000E-001	9.82192E-004	5	..........a	-327.66
	1082	216.6	-5.49832E-001	-9.43924E-008	0.00000E+000	-5.50000E-001	9.65292E-004	5	..........a	-327.66
	1083	216.8	-5.39755E-001	-8.71990E-008	0.00000E+000	-5.40000E-001	9.67692E-004	5	..........a	-327.66
	1084	217	-5.29823E-001	-8.06767E-008	0.00000E+000	-5.30000E-001	9.78692E-004	5	..........a	-327.66
	1085	217.2	-5.19840E-001	-7.48062E-008	0.00000E+000	-5.20000E-001	9.71292E-004	5	..........a	-327.66
	1086	217.4	-5.09837E-001	-6.93647E-008	0.00000E+000	-5.10000E-001	9.86992E-004	5	..........a	-327.66
	1087	217.6	-4.99808E-001	-6.43357E-008	0.00000E+000	-5.00000E-001	9.80992E-004	5	..........a	-327.66
	1088	217.8	-4.89823E-001	-5.95617E-008	0.00000E+000	-4.90000E-001	9.80392E-004	5	..........a	-327.66
	1089	218	-4.79823E-001	-5.51812E-008	0.00000E+000	-4.80000E-001	9.83992E-004	5	..........a	-327.66
	1090	218.2	-4.69831E-001	-5.09393E-008	0.00000E+000	-4.70000E-001	9.72392E-004	5	..........a	-327.66
	1091	218.4	-4.59796E-001	-4.69437E-008	0.00000E+000	-4.60000E-001	9.84192E-004	5	..........a	-327.66
	1092	218.6	-4.49835E-001	-4.31213E-008	0.00000E+000	-4.50000E-001	9.78692E-004	5	..........a	-327.66
	1093	218.8	-4.39842E-001	-3.94278E-008	0.00000E+000	-4.40000E-001	9.73492E-004	5	..........a	-327.66
	1094	219	-4.29847E-001	-3.59606E-008	0.00000E+000	-4.30000E-001	9.60092E-004	5	..........a	-327.66
	1095	219.2	-4.19769E-001	-3.25765E-008	0.00000E+000	-4.20000E-001	9.78492E-004	5	..........a	-327.66
	1096	219.4	-4.09847E-001	-2.93825E-008	0.00000E+000	-4.10000E-001	9.86392E-004	5	..........a	-327.66
	1097	219.6	-3.99856E-001	-2.62548E-008	0.00000E+000	-4.00000E-001	9.80692E-004	5	..........a	-327.66
	1098	219.8	-3.89916E-001	-2.32957E-008	0.00000E+000	-3.90000E-001	9.82592E-004	5	..........a	-327.66
	1099	220	-3.79829E-001	-2.03669E-008	0.00000E+000	-3.80000E-001	9.64392E-004	5	..........a	-327.66
	1100	220.2	-3.69877E-001	-1.75260E-008	0.00000E+000	-3.70000E-001	9.92892E-004	5	..........a	-327.66
	1101	220.4	-3.59870E-001	-1.48221E-008	0.00000E+000	-3.60000E-001	9.80592E-004	5	..........a	-327.66
	1102	220.6	-3.49881E-001	-1.21325E-008	0.00000E+000	-3.50000E-001	9.84092E-004	5	..........a	-327.66
	1103	220.8	-3.39825E-001	-9.56208E-009	0.00000E+000	-3.40000E-001	9.81692E-004	5	..........a	-327.66
	1104	221	-3.29903E-001	-7.07326E-009	0.00000E+000	-3.30000E-001	9.88692E-004	5	..........a	-327.66
	1105	221.2	-3.19854E-001	-4.64387E-009	0.00000E+000	-3.20000E-001	9.84992E-004	5	..........a	-327.66
	1106	221.4	-3.09922E-001	-2.32110E-009	0.00000E+000	-3.10000E-001	9.83992E-004	5	..........a	-327.66
	1107	221.6	-2.99854E-001	-5.26555E-011	0.00000E+000	-3.00000E-001	9.78292E-004	5	..........a	-327.66
	1108	221.8	-2.89928E-001	2.26672E-009	0.00000E+000	-2.90000E-001	1.00049E-003	5	..........a	-327.66
	1109	222	-2.79919E-001	4.47812E-009	0.00000E+000	-2.80000E-001	9.94592E-004	5	..........a	-327.66
	1110	222.2	-2.69867E-001	6.55844E-009	0.00000E+000	-2.70000E-001	9.78892E-004	5	..........a	-327.66
	1111	222.4	-2.59829E-001	8.61872E-009	0.00000E+000	-2.60000E-001	9.77192E-004	5	..........a	-327.66
	1112	222.6	-2.49887E-001	1.06540E-008	0.00000E+000	-2.50000E-001	9.82992E-004	5	..........a	-327.66
	1113	222.8	-2.39956E-001	1.26158E-008	0.00000E+000	-2.40000E-001	9.96392E-004	5	..........a	-327.66
	1114	223	-2.29930E-001	1.45596E-008	0.00000E+000	-2.30000E-001	9.88792E-004	5	..........a	-327.66
	1115	223.2	-2.19872E-001	1.64160E-008	0.00000E+000	-2.20000E-001	9.81692E-004	5	..........a	-327.66
	1116	223.4	-2.09931E-001	1.82676E-008	0.00000E+000	-2.10000E-001	9.92792E-004	5	..........a	-327.66
	1117	223.6	-1.99958E-001	2.00788E-008	0.00000E+000	-2.00000E-001	9.86992E-004	5	..........a	-327.66
	1118	223.8	-1.90197E-001	2.18572E-008	0.00000E+000	-1.90000E-001	9.74192E-004	5	..........a	-327.66
	1119	224	-1.79934E-001	2.35914E-008	0.00000E+000	-1.80000E-001	9.66092E-004	5	..........a	-327.66
	1120	224.2	-1.69892E-001	2.53346E-008	0.00000E+000	-1.70000E-001	9.76092E-004	5	..........a	-327.66