File: example_project/raw_outputs/20240321_H_GM0016_HL03_E02_CV50k.DTA
EXPLAIN
TAG	CV
TITLE	LABEL	Cyclic Voltammetry	Test &Identifier
DATE	LABEL	3/21/2024	Date
TIME	LABEL	16:43:14	Time
NOTES	NOTES	1	&Notes...

PSTAT	PSTAT	REF600P-43058	Potentiostat
VINIT	POTEN	0.00000E+000	T	Initial &E (V)
VLIMIT1	POTEN	-6.00000E-001	F	Scan Limit &1 (V)
VLIMIT2	POTEN	8.00000E-001	F	Scan Limit &2 (V)
VFINAL	POTEN	0.00000E+000	T	Final &E (V)
SCANRATE	QUANT	4.99999E+004	&Scan Rate (mV/s)
STEPSIZE	QUANT	1.00000E+001	St&ep Size (mV)
CYCLES	IQUANT	10	C&ycles (#)
IMODE	SELECTOR	1	I/E Range &Mode
IRANGE	QUANT	1.00000E-005	&Max Current (mA)
AREA	QUANT	1.00000E+000	Electrode &Area (cm^2)
ELECTRODETYPE	SELECTOR	0	Electrode Type
STRIPPING	TOGGLE	F	Used for Stripping
POLARITY	TOGGLE	F	Signal Polarity
CONDIT	TWOPARAM	F	1.50000E+001	0.00000E+000	Conditionin&g	Time(s)	E(V)
DELAY	TWOPARAM	T	1.00000E+001	0.00000E+000	Init. De&lay	Time(s)	Stab.(mV/s)
EQDELAY	QUANT	1.00000E+001	Equil. &Time (s)
IRCOMP	SELECTOR	0	IRCom&p
PFCOR	QUANT	5.00000E+001	PF Corr. (ohm)
SAMPLINGMODE	SELECTOR	1	Sampling &Mode
OCVCURVE	TABLE	39
	Pt	T	Vf	Vm	Ach	Over	Temp
	#	s	V vs. Ref.	V	V	bits	deg C
	0	0.258333	3.06820E-001	3.06820E-001	2.28622E-004	..........a	-327.66
	1	0.516667	3.06827E-001	3.07163E-001	2.33622E-004	..........a	-327.66
	2	0.775	3.06866E-001	3.07426E-001	2.22489E-004	..........a	-327.66
	3	1.03333	3.06975E-001	3.07843E-001	2.31022E-004	..........a	-327.66
	4	1.29167	3.07174E-001	3.08060E-001	2.32222E-004	..........a	-327.66
	5	1.55	3.07442E-001	3.08293E-001	2.23022E-004	..........a	-327.66
	6	1.80833	3.07735E-001	3.08604E-001	2.16822E-004	..........a	-327.66
	7	2.06667	3.08023E-001	3.08894E-001	2.24956E-004	..........a	-327.66
	8	2.325	3.08304E-001	3.09164E-001	2.17289E-004	..........a	-327.66
	9	2.58333	3.08586E-001	3.09585E-001	2.25222E-004	..........a	-327.66
	10	2.84167	3.08878E-001	3.09749E-001	2.32822E-004	..........a	-327.66
	11	3.1	3.09177E-001	3.09994E-001	2.20889E-004	..........a	-327.66
	12	3.35833	3.09467E-001	3.10309E-001	2.19422E-004	..........a	-327.66
	13	3.61667	3.09742E-001	3.10610E-001	2.23622E-004	..........a	-327.66
	14	3.875	3.10014E-001	3.10938E-001	2.16622E-004	..........a	-327.66
	15	4.13333	3.10298E-001	3.11226E-001	2.32689E-004	..........a	-327.66
	16	4.39167	3.10593E-001	3.11439E-001	2.29222E-004	..........a	-327.66
	17	4.65	3.10887E-001	3.11719E-001	2.24422E-004	..........a	-327.66
	18	4.90833	3.11170E-001	3.12016E-001	2.35422E-004	..........a	-327.66
	19	5.16667	3.11442E-001	3.12287E-001	2.20889E-004	..........a	-327.66
	20	5.425	3.11714E-001	3.12636E-001	2.14422E-004	..........a	-327.66
	21	5.68333	3.11996E-001	3.12894E-001	2.33289E-004	..........a	-327.66
	22	5.94167	3.12286E-001	3.13111E-001	2.27689E-004	..........a	-327.66
	23	6.2	3.12573E-001	3.13399E-001	2.19289E-004	..........a	-327.66
	24	6.45833	3.12850E-001	3.13693E-001	2.35022E-004	..........a	-327.66
	25	6.71667	3.13118E-001	3.13944E-001	2.19356E-004	..........a	-327.66
	26	6.975	3.13389E-001	3.14309E-001	2.21089E-004	..........a	-327.66
	27	7.23333	3.13667E-001	3.14517E-001	2.32689E-004	..........a	-327.66
	28	7.49167	3.13950E-001	3.14755E-001	2.25022E-004	..........a	-327.66
	29	7.75	3.14229E-001	3.15039E-001	2.21422E-004	..........a	-327.66
	30	8.00833	3.14497E-001	3.15334E-001	2.26222E-004	..........a	-327.66
	31	8.26667	3.14760E-001	3.15588E-001	2.16956E-004	..........a	-327.66
	32	8.525	3.15029E-001	3.15939E-001	2.23156E-004	..........a	-327.66
	33	8.78333	3.15306E-001	3.16163E-001	2.29689E-004	..........a	-327.66
	34	9.04167	3.15590E-001	3.16400E-001	2.24222E-004	..........a	-327.66
	35	9.3	3.15869E-001	3.16664E-001	2.23822E-004	..........a	-327.66
	36	9.5583	3.16136E-001	3.16973E-001	2.22289E-004	..........a	-327.66
	37	9.8167	3.16399E-001	3.17227E-001	2.23222E-004	..........a	-327.66
	38	10.075	3.16665E-001	3.17548E-001	2.25089E-004	..........a	-327.66
EOC	QUANT	0.3166654	Open Circuit (V)
PSTATMODEL	IQUANT	7	Pstat Model
PSTATSECTION	LABEL	REF600P-43058	Pstat Section
PSTATSERIALNO	LABEL	43058	Pstat Serial Number
CTRLMODE	IQUANT	1	Control Mode
ELECTROMETER	IQUANT	0	RE=0 or CS=1
IESTAB	IQUANT	2	I/E Stability
CASPEED	IQUANT	4	Control Amp Speed
CONVENTION	IQUANT	1	Current Convention
ICHRANGE	IQUANT	2	Ich Range
ICHRANGEMODE	TOGGLE	F	Ich Auto Range
ICHOFFSETENABLE	TOGGLE	F	Ich Offset Enable
ICHOFFSET	QUANT	0	Ich Offset (V)
ICHFILTER	IQUANT	1	Ich Filter
VCHRANGE	IQUANT	2	Vch Range
VCHRANGEMODE	TOGGLE	F	Vch Auto Range
VCHOFFSETENABLE	TOGGLE	F	Vch Offset Enable
VCHOFFSET	QUANT	0	Vch Offset (V)
VCHFILTER	IQUANT	1	Vch Filter
ACHRANGE	IQUANT	2	Ach Range
ACHOFFSETENABLE	TOGGLE	F	Ach Offset Enable
ACHOFFSET	QUANT	0	Ach Offset (V)
ACHFILTER	IQUANT	1	Ach Filter
IERANGELOWERLIMIT	IQUANT	1	I/E Range Lower Limit
IERANGEMODE	TOGGLE	F	I/E AutoRange
IERANGE	IQUANT	4	I/E Range
POSFEEDENABLE	TOGGLE	F	Positive Feedback IR Comp
POSFEEDRESISTANCE	QUANT	0	Positive Feedback Resistance (ohm)
ACHSELECT	IQUANT	4	Ach Select
SENSECABLEID	IQUANT	7	Sense Cable ID
PWRCABLEID	IQUANT	7	Power Cable ID
DCCALDATE	LABEL	12/18/2023	DC Calibration Date
ACCALDATE	LABEL	12/18/2023	AC Calibration Date
THERMOSELECT	IQUANT	1	Thermo Select
FRAMEWORKVERSION	LABEL	7.8.4	Framework Version
INSTRUMENTVERSION	LABEL	4.42	Instrument Version
CURVE1	TABLE
	Pt	T	Vf	Im	Vu	Sig	Ach	IERange	Over	Temp
	#	s	V vs. Ref.	A	V	V	V	#	bits	deg C
	0	0.0002	3.16570E-001	2.47886E-011	0.00000E+000	3.16650E-001	8.00223E-005	4	..........a	-327.66
	1	0.0004	3.06670E-001	-1.72130E-011	0.00000E+000	3.06650E-001	8.00223E-005	4	..........a	-327.66
	2	0.0006	2.96570E-001	-6.52149E-011	0.00000E+000	2.96650E-001	8.00223E-005	4	..........a	-327.66
	3	0.0008	2.86570E-001	-1.15217E-010	0.00000E+000	2.86650E-001	8.00223E-005	4	..........a	-327.66
	4	0.001	2.76370E-001	-1.67219E-010	0.00000E+000	2.76650E-001	8.00223E-005	4	..........a	-327.66
	5	0.0012	2.66770E-001	-2.26221E-010	0.00000E+000	2.66650E-001	8.00223E-005	4	..........a	-327.66
	6	0.0014	2.56570E-001	-2.90224E-010	0.00000E+000	2.56650E-001	-3.19978E-004	4	..........a	-327.66
	7	0.0016	2.46670E-001	-3.46226E-010	0.00000E+000	2.46650E-001	8.00223E-005	4	..........a	-327.66
	8	0.0018	2.36570E-001	-4.18228E-010	0.00000E+000	2.36650E-001	8.00223E-005	4	..........a	-327.66
	9	0.002	2.26770E-001	-4.78231E-010	0.00000E+000	2.26650E-001	8.00223E-005	4	..........a	-327.66
	10	0.0022	2.16670E-001	-5.51234E-010	0.00000E+000	2.16650E-001	8.00223E-005	4	..........a	-327.66
	11	0.0024	2.06770E-001	-6.19236E-010	0.00000E+000	2.06650E-001	8.00223E-005	4	..........a	-327.66
	12	0.0026	1.96470E-001	-7.01239E-010	0.00000E+000	1.96650E-001	8.00223E-005	4	..........a	-327.66
	13	0.0028	1.86670E-001	-7.78242E-010	0.00000E+000	1.86650E-001	8.00223E-005	4	..........a	-327.66
	14	0.003	1.76670E-001	-8.58245E-010	0.00000E+000	1.76650E-001	8.00223E-005	4	..........a	-327.66
	15	0.0032	1.66670E-001	-9.40249E-010	0.00000E+000	1.66650E-001	8.00223E-005	4	..........a	-327.66
	16	0.0034	1.56470E-001	-1.02325E-009	0.00000E+000	1.56650E-001	8.00223E-005	4	..........a	-327.66
	17	0.0036	1.46720E-001	-1.11426E-009	0.00000E+000	1.46650E-001	-4.19978E-004	4	..........a	-327.66
	18	0.0038	1.36870E-001	-1.20326E-009	0.00000E+000	1.36650E-001	8.00223E-005	4	..........a	-327.66
	19	0.004	1.26670E-001	-1.29226E-009	0.00000E+000	1.26650E-001	-3.19978E-004	4	..........a	-327.66
	20	0.0042	1.16570E-001	-1.38727E-009	0.00000E+000	1.16650E-001	8.00223E-005	4	..........a	-327.66
	21	0.0044	1.06570E-001	-1.49027E-009	0.00000E+000	1.06650E-001	8.00223E-005	4	..........a	-327.66
	22	0.0046	9.68695E-002	-1.59027E-009	0.00000E+000	9.66500E-002	8.00223E-005	4	..........a	-327.66
	23	0.0048	8.66695E-002	-1.69328E-009	0.00000E+000	8.66500E-002	-4.19978E-004	4	..........a	-327.66
	24	0.005	7.66195E-002	-1.79628E-009	0.00000E+000	7.66500E-002	8.00223E-005	4	..........a	-327.66
	25	0.0052	6.67695E-002	-1.90429E-009	0.00000E+000	6.66500E-002	-4.19978E-004	4	..........a	-327.66
	26	0.0054	5.64695E-002	-2.01429E-009	0.00000E+000	5.66500E-002	8.00223E-005	4	..........a	-327.66
	27	0.0056	4.66695E-002	-2.12529E-009	0.00000E+000	4.66500E-002	8.00223E-005	4	..........a	-327.66
	28	0.0058	3.66695E-002	-2.24030E-009	0.00000E+000	3.66500E-002	8.00223E-005	4	..........a	-327.66
	29	0.006	2.67695E-002	-2.35630E-009	0.00000E+000	2.66500E-002	8.00223E-005	4	..........a	-327.66
	30	0.0062	1.66695E-002	-2.47531E-009	0.00000E+000	1.66500E-002	8.00223E-005	4	..........a	-327.66
	31	0.0064	6.56952E-003	-2.59731E-009	0.00000E+000	6.65000E-003	8.00223E-005	4	..........a	-327.66
	32	0.0066	-3.53048E-003	-2.71932E-009	0.00000E+000	-3.35000E-003	8.00223E-005	4	..........a	-327.66
	33	0.0068	-1.32305E-002	-2.84432E-009	0.00000E+000	-1.33500E-002	8.00223E-005	4	..........a	-327.66
	34	0.007	-2.32305E-002	-2.97833E-009	0.00000E+000	-2.33500E-002	8.00223E-005	4	..........a	-327.66
	35	0.0072	-3.33305E-002	-3.10833E-009	0.00000E+000	-3.33500E-002	8.00223E-005	4	..........a	-327.66
	36	0.0074	-4.33305E-002	-3.23934E-009	0.00000E+000	-4.33500E-002	8.00223E-005	4	..........a	-327.66
	37	0.0076	-5.32305E-002	-3.37034E-009	0.00000E+000	-5.33500E-002	8.00223E-005	4	..........a	-327.66
	38	0.0078	-6.32305E-002	-3.50935E-009	0.00000E+000	-6.33500E-002	8.00223E-005	4	..........a	-327.66
	39	0.008	-7.32305E-002	-3.65235E-009	0.00000E+000	-7.33500E-002	8.00223E-005	4	..........a	-327.66
	40	0.0082	-8.34805E-002	-3.79536E-009	0.00000E+000	-8.33500E-002	8.00223E-005	4	..........a	-327.66
	41	0.0084	-9.32305E-002	-3.93536E-009	0.00000E+000	-9.33500E-002	-3.19978E-004	4	..........a	-327.66
	42	0.0086	-1.03330E-001	-4.09137E-009	0.00000E+000	-1.03350E-001	8.00223E-005	4	..........a	-327.66
	43	0.0088	-1.13230E-001	-4.24038E-009	0.00000E+000	-1.13350E-001	8.00223E-005	4	..........a	-327.66
	44	0.009	-1.23230E-001	-4.39438E-009	0.00000E+000	-1.23350E-001	8.00223E-005	4	..........a	-327.66
	45	0.0092	-1.33330E-001	-4.55239E-009	0.00000E+000	-1.33350E-001	8.00223E-005	4	..........a	-327.66
	46	0.0094	-1.43430E-001	-4.70039E-009	0.00000E+000	-1.43350E-001	-3.19978E-004	4	..........a	-327.66
	47	0.0096	-1.53480E-001	-4.86440E-009	0.00000E+000	-1.53350E-001	8.00223E-005	4	..........a	-327.66
	48	0.0098	-1.63230E-001	-5.02841E-009	0.00000E+000	-1.63350E-001	8.00223E-005	4	..........a	-327.66
	49	0.01	-1.73330E-001	-5.18741E-009	0.00000E+000	-1.73350E-001	8.00223E-005	4	..........a	-327.66
	50	0.0102	-1.83230E-001	-5.34942E-009	0.00000E+000	-1.83350E-001	8.00223E-005	4	..........a	-327.66
	51	0.0104	-1.93330E-001	-5.51942E-009	0.00000E+000	-1.93350E-001	8.00223E-005	4	..........a	-327.66
	52	0.0106	-2.03330E-001	-5.69043E-009	0.00000E+000	-2.03350E-001	8.00223E-005	4	..........a	-327.66
	53	0.0108	-2.13330E-001	-5.85744E-009	0.00000E+000	-2.13350E-001	8.00223E-005	4	..........a	-327.66
	54	0.011	-2.23330E-001	-6.03144E-009	0.00000E+000	-2.23350E-001	8.00223E-005	4	..........a	-327.66
	55	0.0112	-2.33330E-001	-6.19845E-009	0.00000E+000	-2.33350E-001	8.00223E-005	4	..........a	-327.66
	56	0.0114	-2.43330E-001	-6.37846E-009	0.00000E+000	-2.43350E-001	8.00223E-005	4	..........a	-327.66
	57	0.0116	-2.53330E-001	-6.55246E-009	0.00000E+000	-2.53350E-001	8.00223E-005	4	..........a	-327.66
	58	0.0118	-2.63330E-001	-6.72647E-009	0.00000E+000	-2.63350E-001	8.00223E-005	4	..........a	-327.66
	59	0.012	-2.73480E-001	-6.90248E-009	0.00000E+000	-2.73350E-001	8.00223E-005	4	..........a	-327.66
	60	0.0122	-2.83330E-001	-7.08048E-009	0.00000E+000	-2.83350E-001	8.00223E-005	4	..........a	-327.66
	61	0.0124	-2.93130E-001	-7.25949E-009	0.00000E+000	-2.93350E-001	8.00223E-005	4	..........a	-327.66
	62	0.0126	-3.03330E-001	-7.43650E-009	0.00000E+000	-3.03350E-001	8.00223E-005	4	..........a	-327.66
	63	0.0128	-3.13330E-001	-7.62251E-009	0.00000E+000	-3.13350E-001	8.00223E-005	4	..........a	-327.66
	64	0.013	-3.23230E-001	-7.79851E-009	0.00000E+000	-3.23350E-001	8.00223E-005	4	..........a	-327.66
	65	0.0132	-3.33130E-001	-7.98052E-009	0.00000E+000	-3.33350E-001	8.00223E-005	4	..........a	-327.66
	66	0.0134	-3.43330E-001	-8.15953E-009	0.00000E+000	-3.43350E-001	8.00223E-005	4	..........a	-327.66
	67	0.0136	-3.53430E-001	-8.34053E-009	0.00000E+000	-3.53350E-001	8.00223E-005	4	..........a	-327.66
	68	0.0138	-3.63130E-001	-8.52254E-009	0.00000E+000	-3.63350E-001	-3.19978E-004	4	..........a	-327.66
	69	0.014	-3.73130E-001	-8.70855E-009	0.00000E+000	-3.73350E-001	8.00223E-005	4	..........a	-327.66
	70	0.0142	-3.83530E-001	-8.88755E-009	0.00000E+000	-3.83350E-001	-2.19978E-004	4	..........a	-327.66
	71	0.0144	-3.93230E-001	-9.07056E-009	0.00000E+000	-3.93350E-001	8.00223E-005	4	..........a	-327.66
	72	0.0146	-4.03130E-001	-9.25557E-009	0.00000E+000	-4.03350E-001	8.00223E-005	4	..........a	-327.66
	73	0.0148	-4.13030E-001	-9.43858E-009	0.00000E+000	-4.13350E-001	8.00223E-005	4	..........a	-327.66
	74	0.015	-4.23180E-001	-9.62458E-009	0.00000E+000	-4.23350E-001	8.00223E-005	4	..........a	-327.66
	75	0.0152	-4.33330E-001	-9.80259E-009	0.00000E+000	-4.33350E-001	8.00223E-005	4	..........a	-327.66
	76	0.0154	-4.43330E-001	-9.98860E-009	0.00000E+000	-4.43350E-001	8.00223E-005	4	..........a	-327.66
	77	0.0156	-4.53330E-001	-1.01776E-008	0.00000E+000	-4.53350E-001	8.00223E-005	4	..........a	-327.66
	78	0.0158	-4.63130E-001	-1.03626E-008	0.00000E+000	-4.63350E-001	8.00223E-005	4	..........a	-327.66
	79	0.016	-4.73230E-001	-1.05486E-008	0.00000E+000	-4.73350E-001	8.00223E-005	4	..........a	-327.66
	80	0.0162	-4.82930E-001	-1.07386E-008	0.00000E+000	-4.83350E-001	8.00223E-005	4	..........a	-327.66
	81	0.0164	-4.93130E-001	-1.09316E-008	0.00000E+000	-4.93350E-001	8.00223E-005	4	..........a	-327.66
	82	0.0166	-5.03130E-001	-1.11196E-008	0.00000E+000	-5.03350E-001	8.00223E-005	4	..........a	-327.66
	83	0.0168	-5.13130E-001	-1.13146E-008	0.00000E+000	-5.13350E-001	8.00223E-005	4	..........a	-327.66
	84	0.017	-5.23130E-001	-1.15087E-008	0.00000E+000	-5.23350E-001	8.00223E-005	4	..........a	-327.66
	85	0.0172	-5.33130E-001	-1.17087E-008	0.00000E+000	-5.33350E-001	8.00223E-005	4	..........a	-327.66
	86	0.0174	-5.43131E-001	-1.19087E-008	0.00000E+000	-5.43350E-001	8.00223E-005	4	..........a	-327.66
	87	0.0176	-5.53230E-001	-1.21067E-008	0.00000E+000	-5.53350E-001	8.00223E-005	4	..........a	-327.66
	88	0.0178	-5.63380E-001	-1.23137E-008	0.00000E+000	-5.63350E-001	8.00223E-005	4	..........a	-327.66
	89	0.018	-5.73231E-001	-1.25257E-008	0.00000E+000	-5.73350E-001	8.00223E-005	4	..........a	-327.66
	90	0.0182	-5.83230E-001	-1.27327E-008	0.00000E+000	-5.83350E-001	8.00223E-005	4	..........a	-327.66
	91	0.0184	-5.93130E-001	-1.29437E-008	0.00000E+000	-5.93350E-001	8.00223E-005	4	..........a	-327.66
	92	0.0186	-6.03130E-001	-1.31637E-008	0.00000E+000	-6.03350E-001	8.00223E-005	4	..........a	-327.66
	93	0.0188	-5.93230E-001	-1.32467E-008	0.00000E+000	-5.93350E-001	8.00223E-005	4	..........a	-327.66
	94	0.019	-5.83130E-001	-1.32967E-008	0.00000E+000	-5.83350E-001	8.00223E-005	4	..........a	-327.66
	95	0.0192	-5.73231E-001	-1.33267E-008	0.00000E+000	-5.73350E-001	8.00223E-005	4	..........a	-327.66
	96	0.0194	-5.63130E-001	-1.33467E-008	0.00000E+000	-5.63350E-001	8.00223E-005	4	..........a	-327.66
	97	0.0196	-5.53131E-001	-1.33467E-008	0.00000E+000	-5.53350E-001	8.00223E-005	4	..........a	-327.66
	98	0.0198	-5.43131E-001	-1.33377E-008	0.00000E+000	-5.43350E-001	8.00223E-005	4	..........a	-327.66
	99	0.02	-5.33230E-001	-1.33217E-008	0.00000E+000	-5.33350E-001	8.00223E-005	4	..........a	-327.66
	100	0.0202	-5.23331E-001	-1.32957E-008	0.00000E+000	-5.23350E-001	8.00223E-005	4	..........a	-327.66
	101	0.0204	-5.13130E-001	-1.32687E-008	0.00000E+000	-5.13350E-001	8.00223E-005	4	..........a	-327.66
	102	0.0206	-5.03130E-001	-1.32367E-008	0.00000E+000	-5.03350E-001	8.00223E-005	4	..........a	-327.66
	103	0.0208	-4.93130E-001	-1.31917E-008	0.00000E+000	-4.93350E-001	8.00223E-005	4	..........a	-327.66
	104	0.021	-4.83330E-001	-1.31467E-008	0.00000E+000	-4.83350E-001	8.00223E-005	4	..........a	-327.66
	105	0.0212	-4.73230E-001	-1.31027E-008	0.00000E+000	-4.73350E-001	8.00223E-005	4	..........a	-327.66
	106	0.0214	-4.63230E-001	-1.30507E-008	0.00000E+000	-4.63350E-001	8.00223E-005	4	..........a	-327.66
	107	0.0216	-4.53030E-001	-1.29967E-008	0.00000E+000	-4.53350E-001	8.00223E-005	4	..........a	-327.66
	108	0.0218	-4.43330E-001	-1.29387E-008	0.00000E+000	-4.43350E-001	8.00223E-005	4	..........a	-327.66
	109	0.022	-4.33130E-001	-1.28797E-008	0.00000E+000	-4.33350E-001	8.00223E-005	4	..........a	-327.66
	110	0.0222	-4.23130E-001	-1.28147E-008	0.00000E+000	-4.23350E-001	8.00223E-005	4	..........a	-327.66
	111	0.0224	-4.13130E-001	-1.27507E-008	0.00000E+000	-4.13350E-001	8.00223E-005	4	..........a	-327.66
	112	0.0226	-4.03530E-001	-1.26877E-008	0.00000E+000	-4.03350E-001	8.00223E-005	4	..........a	-327.66
	113	0.0228	-3.93130E-001	-1.26157E-008	0.00000E+000	-3.93350E-001	8.00223E-005	4	..........a	-327.66
	114	0.023	-3.83330E-001	-1.25487E-008	0.00000E+000	-3.83350E-001	8.00223E-005	4	..........a	-327.66
	115	0.0232	-3.73330E-001	-1.24767E-008	0.00000E+000	-3.73350E-001	8.00223E-005	4	..........a	-327.66
	116	0.0234	-3.63330E-001	-1.24027E-008	0.00000E+000	-3.63350E-001	8.00223E-005	4	..........a	-327.66
	117	0.0236	-3.53230E-001	-1.23257E-008	0.00000E+000	-3.53350E-001	8.00223E-005	4	..........a	-327.66
	118	0.0238	-3.43130E-001	-1.22427E-008	0.00000E+000	-3.43350E-001	8.00223E-005	4	..........a	-327.66
	119	0.024	-3.33330E-001	-1.21607E-008	0.00000E+000	-3.33350E-001	8.00223E-005	4	..........a	-327.66
	120	0.0242	-3.23330E-001	-1.20877E-008	0.00000E+000	-3.23350E-001	8.00223E-005	4	..........a	-327.66
	121	0.0244	-3.13230E-001	-1.20067E-008	0.00000E+000	-3.13350E-001	8.00223E-005	4	..........a	-327.66
	122	0.0246	-3.03130E-001	-1.19267E-008	0.00000E+000	-3.03350E-001	8.00223E-005	4	..........a	-327.66
	123	0.0248	-2.93230E-001	-1.18437E-008	0.00000E+000	-2.93350E-001	8.00223E-005	4	..........a	-327.66
	124	0.025	-2.83130E-001	-1.17587E-008	0.00000E+000	-2.83350E-001	8.00223E-005	4	..........a	-327.66
	125	0.0252	-2.73130E-001	-1.16757E-008	0.00000E+000	-2.73350E-001	8.00223E-005	4	..........a	-327.66
	126	0.0254	-2.63130E-001	-1.15847E-008	0.00000E+000	-2.63350E-001	8.00223E-005	4	..........a	-327.66
	127	0.0256	-2.53230E-001	-1.14947E-008	0.00000E+000	-2.53350E-001	8.00223E-005	4	..........a	-327.66
	128	0.0258	-2.43330E-001	-1.14047E-008	0.00000E+000	-2.43350E-001	8.00223E-005	4	..........a	-327.66
	129	0.026	-2.33230E-001	-1.13166E-008	0.00000E+000	-2.33350E-001	8.00223E-005	4	..........a	-327.66
	130	0.0262	-2.23130E-001	-1.12246E-008	0.00000E+000	-2.23350E-001	8.00223E-005	4	..........a	-327.66
	131	0.0264	-2.13230E-001	-1.11316E-008	0.00000E+000	-2.13350E-001	8.00223E-005	4	..........a	-327.66
	132	0.0266	-2.03230E-001	-1.10446E-008	0.00000E+000	-2.03350E-001	8.00223E-005	4	..........a	-327.66
	133	0.0268	-1.93330E-001	-1.09486E-008	0.00000E+000	-1.93350E-001	8.00223E-005	4	..........a	-327.66
	134	0.027	-1.83330E-001	-1.08526E-008	0.00000E+000	-1.83350E-001	8.00223E-005	4	..........a	-327.66
	135	0.0272	-1.73130E-001	-1.07556E-008	0.00000E+000	-1.73350E-001	8.00223E-005	4	..........a	-327.66
	136	0.0274	-1.63330E-001	-1.06586E-008	0.00000E+000	-1.63350E-001	8.00223E-005	4	..........a	-327.66
	137	0.0276	-1.53130E-001	-1.05626E-008	0.00000E+000	-1.53350E-001	8.00223E-005	4	..........a	-327.66
	138	0.0278	-1.43430E-001	-1.04606E-008	0.00000E+000	-1.43350E-001	8.00223E-005	4	..........a	-327.66
	139	0.028	-1.33230E-001	-1.03606E-008	0.00000E+000	-1.33350E-001	8.00223E-005	4	..........a	-327.66
	140	0.0282	-1.23330E-001	-1.02646E-008	0.00000E+000	-1.23350E-001	8.00223E-005	4	..........a	-327.66
	141	0.0284	-1.13230E-001	-1.01596E-008	0.00000E+000	-1.13350E-001	-2.19978E-004	4	..........a	-327.66
	142	0.0286	-1.03230E-001	-1.00586E-008	0.00000E+000	-1.03350E-001	8.00223E-005	4	..........a	-327.66
	143	0.0288	-9.33305E-002	-9.95259E-009	0.00000E+000	-9.33500E-002	8.00223E-005	4	..........a	-327.66
	144	0.029	-8.31305E-002	-9.84859E-009	0.00000E+000	-8.33500E-002	8.00223E-005	4	..........a	-327.66
	145	0.0292	-7.32305E-002	-9.74659E-009	0.00000E+000	-7.33500E-002	8.00223E-005	4	..........a	-327.66
	146	0.0294	-6.35305E-002	-9.64058E-009	0.00000E+000	-6.33500E-002	8.00223E-005	4	..........a	-327.66
	147	0.0296	-5.33805E-002	-9.53458E-009	0.00000E+000	-5.33500E-002	8.00223E-005	4	..........a	-327.66
	148	0.0298	-4.31305E-002	-9.41957E-009	0.00000E+000	-4.33500E-002	-3.19978E-004	4	..........a	-327.66
	149	0.03	-3.32305E-002	-9.31257E-009	0.00000E+000	-3.33500E-002	8.00223E-005	4	..........a	-327.66
	150	0.0302	-2.32305E-002	-9.20257E-009	0.00000E+000	-2.33500E-002	-3.19978E-004	4	..........a	-327.66
	151	0.0304	-1.33305E-002	-9.09156E-009	0.00000E+000	-1.33500E-002	8.00223E-005	4	..........a	-327.66
	152	0.0306	-3.43048E-003	-8.98056E-009	0.00000E+000	-3.35000E-003	8.00223E-005	4	..........a	-327.66
	153	0.0308	6.66952E-003	-8.86455E-009	0.00000E+000	6.65000E-003	8.00223E-005	4	..........a	-327.66
	154	0.031	1.66695E-002	-8.75255E-009	0.00000E+000	1.66500E-002	8.00223E-005	4	..........a	-327.66
	155	0.0312	2.67695E-002	-8.63054E-009	0.00000E+000	2.66500E-002	8.00223E-005	4	..........a	-327.66
	156	0.0314	3.67695E-002	-8.51554E-009	0.00000E+000	3.66500E-002	8.00223E-005	4	..........a	-327.66
	157	0.0316	4.67695E-002	-8.39453E-009	0.00000E+000	4.66500E-002	8.00223E-005	4	..........a	-327.66
	158	0.0318	5.65695E-002	-8.27453E-009	0.00000E+000	5.66500E-002	8.00223E-005	4	..........a	-327.66
	159	0.032	6.67695E-002	-8.15053E-009	0.00000E+000	6.66500E-002	8.00223E-005	4	..........a	-327.66
	160	0.0322	7.66695E-002	-8.02852E-009	0.00000E+000	7.66500E-002	-3.19978E-004	4	..........a	-327.66
	161	0.0324	8.68695E-002	-7.90752E-009	0.00000E+000	8.66500E-002	8.00223E-005	4	..........a	-327.66
	162	0.0326	9.67695E-002	-7.77851E-009	0.00000E+000	9.66500E-002	8.00223E-005	4	..........a	-327.66
	163	0.0328	1.06770E-001	-7.65251E-009	0.00000E+000	1.06650E-001	8.00223E-005	4	..........a	-327.66
	164	0.033	1.16670E-001	-7.51950E-009	0.00000E+000	1.16650E-001	8.00223E-005	4	..........a	-327.66
	165	0.0332	1.26570E-001	-7.38750E-009	0.00000E+000	1.26650E-001	8.00223E-005	4	..........a	-327.66
	166	0.0334	1.36770E-001	-7.25649E-009	0.00000E+000	1.36650E-001	-2.19978E-004	4	..........a	-327.66
	167	0.0336	1.46770E-001	-7.12249E-009	0.00000E+000	1.46650E-001	8.00223E-005	4	..........a	-327.66
	168	0.0338	1.56770E-001	-6.97748E-009	0.00000E+000	1.56650E-001	8.00223E-005	4	..........a	-327.66
	169	0.034	1.66670E-001	-6.83748E-009	0.00000E+000	1.66650E-001	-2.19978E-004	4	..........a	-327.66
	170	0.0342	1.76570E-001	-6.69747E-009	0.00000E+000	1.76650E-001	8.00223E-005	4	..........a	-327.66
	171	0.0344	1.86670E-001	-6.55646E-009	0.00000E+000	1.86650E-001	8.00223E-005	4	..........a	-327.66
	172	0.0346	1.96520E-001	-6.40746E-009	0.00000E+000	1.96650E-001	8.00223E-005	4	..........a	-327.66
	173	0.0348	2.06670E-001	-6.25545E-009	0.00000E+000	2.06650E-001	8.00223E-005	4	..........a	-327.66
	174	0.035	2.16570E-001	-6.10045E-009	0.00000E+000	2.16650E-001	8.00223E-005	4	..........a	-327.66
	175	0.0352	2.26670E-001	-5.94644E-009	0.00000E+000	2.26650E-001	8.00223E-005	4	..........a	-327.66
	176	0.0354	2.36770E-001	-5.79043E-009	0.00000E+000	2.36650E-001	8.00223E-005	4	..........a	-327.66
	177	0.0356	2.46570E-001	-5.62943E-009	0.00000E+000	2.46650E-001	8.00223E-005	4	..........a	-327.66
	178	0.0358	2.56570E-001	-5.46342E-009	0.00000E+000	2.56650E-001	8.00223E-005	4	..........a	-327.66
	179	0.036	2.66870E-001	-5.29642E-009	0.00000E+000	2.66650E-001	8.00223E-005	4	..........a	-327.66
	180	0.0362	2.76870E-001	-5.13141E-009	0.00000E+000	2.76650E-001	8.00223E-005	4	..........a	-327.66
	181	0.0364	2.86670E-001	-4.96040E-009	0.00000E+000	2.86650E-001	-4.19978E-004	4	..........a	-327.66
	182	0.0366	2.96470E-001	-4.78040E-009	0.00000E+000	2.96650E-001	8.00223E-005	4	..........a	-327.66
	183	0.0368	3.06670E-001	-4.60639E-009	0.00000E+000	3.06650E-001	8.00223E-005	4	..........a	-327.66
	184	0.037	3.16570E-001	-4.42838E-009	0.00000E+000	3.16650E-001	8.00223E-005	4	..........a	-327.66
	185	0.0372	3.26570E-001	-4.24038E-009	0.00000E+000	3.26650E-001	8.00223E-005	4	..........a	-327.66
	186	0.0374	3.36570E-001	-4.05037E-009	0.00000E+000	3.36650E-001	8.00223E-005	4	..........a	-327.66
	187	0.0376	3.46670E-001	-3.86436E-009	0.00000E+000	3.46650E-001	8.00223E-005	4	..........a	-327.66
	188	0.0378	3.56570E-001	-3.67235E-009	0.00000E+000	3.56650E-001	8.00223E-005	4	..........a	-327.66
	189	0.038	3.66470E-001	-3.48435E-009	0.00000E+000	3.66650E-001	8.00223E-005	4	..........a	-327.66
	190	0.0382	3.76470E-001	-3.28734E-009	0.00000E+000	3.76650E-001	8.00223E-005	4	..........a	-327.66
	191	0.0384	3.86770E-001	-3.08733E-009	0.00000E+000	3.86650E-001	8.00223E-005	4	..........a	-327.66
	192	0.0386	3.96570E-001	-2.88832E-009	0.00000E+000	3.96650E-001	8.00223E-005	4	..........a	-327.66
	193	0.0388	4.06470E-001	-2.68632E-009	0.00000E+000	4.06650E-001	8.00223E-005	4	..........a	-327.66
	194	0.039	4.16570E-001	-2.49031E-009	0.00000E+000	4.16650E-001	8.00223E-005	4	..........a	-327.66
	195	0.0392	4.26620E-001	-2.28030E-009	0.00000E+000	4.26650E-001	8.00223E-005	4	..........a	-327.66
	196	0.0394	4.36670E-001	-2.07329E-009	0.00000E+000	4.36650E-001	8.00223E-005	4	..........a	-327.66
	197	0.0396	4.46670E-001	-1.86228E-009	0.00000E+000	4.46650E-001	8.00223E-005	4	..........a	-327.66
	198	0.0398	4.56570E-001	-1.64728E-009	0.00000E+000	4.56650E-001	8.00223E-005	4	..........a	-327.66
	199	0.04	4.66570E-001	-1.43827E-009	0.00000E+000	4.66650E-001	8.00223E-005	4	..........a	-327.66
	200	0.0402	4.76570E-001	-1.22426E-009	0.00000E+000	4.76650E-001	8.00223E-005	4	..........a	-327.66
	201	0.0404	4.86570E-001	-1.00125E-009	0.00000E+000	4.86650E-001	8.00223E-005	4	..........a	-327.66
	202	0.0406	4.96570E-001	-7.92243E-010	0.00000E+000	4.96650E-001	-2.19978E-004	4	..........a	-327.66
	203	0.0408	5.06669E-001	-5.63234E-010	0.00000E+000	5.06650E-001	8.00223E-005	4	..........a	-327.66
	204	0.041	5.16469E-001	-3.42225E-010	0.00000E+000	5.16650E-001	8.00223E-005	4	..........a	-327.66
	205	0.0412	5.26269E-001	-1.18217E-010	0.00000E+000	5.26650E-001	8.00223E-005	4	..........a	-327.66
	206	0.0414	5.36669E-001	1.12792E-010	0.00000E+000	5.36650E-001	8.00223E-005	4	..........a	-327.66
	207	0.0416	5.46669E-001	3.34800E-010	0.00000E+000	5.46650E-001	-2.19978E-004	4	..........a	-327.66
	208	0.0418	5.56419E-001	5.61809E-010	0.00000E+000	5.56650E-001	8.00223E-005	4	..........a	-327.66
	209	0.042	5.66369E-001	7.95818E-010	0.00000E+000	5.66650E-001	8.00223E-005	4	..........a	-327.66
	210	0.0422	5.76970E-001	1.02783E-009	0.00000E+000	5.76650E-001	8.00223E-005	4	..........a	-327.66
	211	0.0424	5.86670E-001	1.26384E-009	0.00000E+000	5.86650E-001	8.00223E-005	4	..........a	-327.66
	212	0.0426	5.96469E-001	1.49685E-009	0.00000E+000	5.96650E-001	8.00223E-005	4	..........a	-327.66
	213	0.0428	6.06770E-001	1.74085E-009	0.00000E+000	6.06650E-001	8.00223E-005	4	..........a	-327.66
	214	0.043	6.16470E-001	1.97386E-009	0.00000E+000	6.16650E-001	8.00223E-005	4	..........a	-327.66
	215	0.0432	6.26570E-001	2.21787E-009	0.00000E+000	6.26650E-001	-2.19978E-004	4	..........a	-327.66
	216	0.0434	6.36669E-001	2.46488E-009	0.00000E+000	6.36650E-001	8.00223E-005	4	..........a	-327.66
	217	0.0436	6.46369E-001	2.70689E-009	0.00000E+000	6.46650E-001	8.00223E-005	4	..........a	-327.66
	218	0.0438	6.56769E-001	2.95290E-009	0.00000E+000	6.56650E-001	8.00223E-005	4	..........a	-327.66
	219	0.044	6.66669E-001	3.20391E-009	0.00000E+000	6.66650E-001	-3.19978E-004	4	..........a	-327.66
	220	0.0442	6.76569E-001	3.45592E-009	0.00000E+000	6.76650E-001	-2.19978E-004	4	..........a	-327.66
	221	0.0444	6.86369E-001	3.70893E-009	0.00000E+000	6.86650E-001	8.00223E-005	4	..........a	-327.66
	222	0.0446	6.96469E-001	3.96494E-009	0.00000E+000	6.96650E-001	8.00223E-005	4	..........a	-327.66
	223	0.0448	7.06569E-001	4.22495E-009	0.00000E+000	7.06650E-001	8.00223E-005	4	..........a	-327.66
	224	0.045	7.16370E-001	4.48596E-009	0.00000E+000	7.16650E-001	8.00223E-005	4	..........a	-327.66
	225	0.0452	7.26469E-001	4.75397E-009	0.00000E+000	7.26650E-001	8.00223E-005	4	..........a	-327.66
	226	0.0454	7.36569E-001	5.01498E-009	0.00000E+000	7.36650E-001	-3.19978E-004	4	..........a	-327.66
	227	0.0456	7.46569E-001	5.28199E-009	0.00000E+000	7.46650E-001	8.00223E-005	4	..........a	-327.66
	228	0.0458	7.56469E-001	5.55400E-009	0.00000E+000	7.56650E-001	8.00223E-005	4	..........a	-327.66
	229	0.046	7.66669E-001	5.83001E-009	0.00000E+000	7.66650E-001	8.00223E-005	4	..........a	-327.66
	230	0.0462	7.76469E-001	6.11002E-009	0.00000E+000	7.76650E-001	8.00223E-005	4	..........a	-327.66
	231	0.0464	7.86519E-001	6.39403E-009	0.00000E+000	7.86650E-001	8.00223E-005	4	..........a	-327.66
	232	0.0466	7.96469E-001	6.67604E-009	0.00000E+000	7.96650E-001	-2.19978E-004	4	..........a	-327.66
CURVE2	TABLE
	Pt	T	Vf	Im	Vu	Sig	Ach	IERange	Over	Temp
	#	s	V vs. Ref.	A	V	V	V	#	bits	deg C
	233	0.0468	7.89869E-001	6.85205E-009	0.00000E+000	7.90000E-001	8.00223E-005	4	..........a	-327.66
	234	0.047	7.79869E-001	6.96605E-009	0.00000E+000	7.80000E-001	8.00223E-005	4	..........a	-327.66
	235	0.0472	7.69870E-001	7.04206E-009	0.00000E+000	7.70000E-001	-3.19978E-004	4	..........a	-327.66
	236	0.0474	7.59869E-001	7.09206E-009	0.00000E+000	7.60000E-001	8.00223E-005	4	..........a	-327.66
	237	0.0476	7.49869E-001	7.12206E-009	0.00000E+000	7.50000E-001	8.00223E-005	4	..........a	-327.66
	238	0.0478	7.39769E-001	7.13306E-009	0.00000E+000	7.40000E-001	8.00223E-005	4	..........a	-327.66
	239	0.048	7.29869E-001	7.13406E-009	0.00000E+000	7.30000E-001	8.00223E-005	4	..........a	-327.66
	240	0.0482	7.19969E-001	7.12906E-009	0.00000E+000	7.20000E-001	8.00223E-005	4	..........a	-327.66
	241	0.0484	7.09870E-001	7.10406E-009	0.00000E+000	7.10000E-001	8.00223E-005	4	..........a	-327.66
	242	0.0486	6.99869E-001	7.08206E-009	0.00000E+000	7.00000E-001	8.00223E-005	4	..........a	-327.66
	243	0.0488	6.89869E-001	7.04506E-009	0.00000E+000	6.90000E-001	8.00223E-005	4	..........a	-327.66
	244	0.049	6.79869E-001	7.00606E-009	0.00000E+000	6.80000E-001	8.00223E-005	4	..........a	-327.66
	245	0.0492	6.69869E-001	6.95505E-009	0.00000E+000	6.70000E-001	8.00223E-005	4	..........a	-327.66
	246	0.0494	6.59719E-001	6.90805E-009	0.00000E+000	6.60000E-001	8.00223E-005	4	..........a	-327.66
	247	0.0496	6.49969E-001	6.85405E-009	0.00000E+000	6.50000E-001	8.00223E-005	4	..........a	-327.66
	248	0.0498	6.39870E-001	6.79305E-009	0.00000E+000	6.40000E-001	8.00223E-005	4	..........a	-327.66
	249	0.05	6.30069E-001	6.72505E-009	0.00000E+000	6.30000E-001	8.00223E-005	4	..........a	-327.66
	250	0.0502	6.19969E-001	6.65604E-009	0.00000E+000	6.20000E-001	-2.19978E-004	4	..........a	-327.66
	251	0.0504	6.09869E-001	6.58604E-009	0.00000E+000	6.10000E-001	8.00223E-005	4	..........a	-327.66
	252	0.0506	5.99869E-001	6.51004E-009	0.00000E+000	6.00000E-001	8.00223E-005	4	..........a	-327.66
	253	0.0508	5.89920E-001	6.43703E-009	0.00000E+000	5.90000E-001	8.00223E-005	4	..........a	-327.66
	254	0.051	5.79969E-001	6.35403E-009	0.00000E+000	5.80000E-001	-2.19978E-004	4	..........a	-327.66
	255	0.0512	5.69770E-001	6.27303E-009	0.00000E+000	5.70000E-001	8.00223E-005	4	..........a	-327.66
	256	0.0514	5.60070E-001	6.18502E-009	0.00000E+000	5.60000E-001	8.00223E-005	4	..........a	-327.66
	257	0.0516	5.49869E-001	6.09402E-009	0.00000E+000	5.50000E-001	8.00223E-005	4	..........a	-327.66
	258	0.0518	5.40069E-001	6.00302E-009	0.00000E+000	5.40000E-001	8.00223E-005	4	..........a	-327.66
	259	0.052	5.29869E-001	5.90901E-009	0.00000E+000	5.30000E-001	8.00223E-005	4	..........a	-327.66
	260	0.0522	5.19969E-001	5.80801E-009	0.00000E+000	5.20000E-001	-2.19978E-004	4	..........a	-327.66
	261	0.0524	5.09870E-001	5.71001E-009	0.00000E+000	5.10000E-001	8.00223E-005	4	..........a	-327.66
	262	0.0526	5.00170E-001	5.60600E-009	0.00000E+000	5.00000E-001	8.00223E-005	4	..........a	-327.66
	263	0.0528	4.89770E-001	5.50100E-009	0.00000E+000	4.90000E-001	-2.19978E-004	4	..........a	-327.66
	264	0.053	4.79820E-001	5.39199E-009	0.00000E+000	4.80000E-001	8.00223E-005	4	..........a	-327.66
	265	0.0532	4.69970E-001	5.28199E-009	0.00000E+000	4.70000E-001	8.00223E-005	4	..........a	-327.66
	266	0.0534	4.60070E-001	5.16599E-009	0.00000E+000	4.60000E-001	8.00223E-005	4	..........a	-327.66
	267	0.0536	4.50070E-001	5.04598E-009	0.00000E+000	4.50000E-001	8.00223E-005	4	..........a	-327.66
	268	0.0538	4.39920E-001	4.92498E-009	0.00000E+000	4.40000E-001	8.00223E-005	4	..........a	-327.66
	269	0.054	4.29870E-001	4.79797E-009	0.00000E+000	4.30000E-001	8.00223E-005	4	..........a	-327.66
	270	0.0542	4.19970E-001	4.67697E-009	0.00000E+000	4.20000E-001	8.00223E-005	4	..........a	-327.66
	271	0.0544	4.09920E-001	4.54196E-009	0.00000E+000	4.10000E-001	-3.19978E-004	4	..........a	-327.66
	272	0.0546	3.99820E-001	4.41096E-009	0.00000E+000	4.00000E-001	8.00223E-005	4	..........a	-327.66
	273	0.0548	3.89970E-001	4.27095E-009	0.00000E+000	3.90000E-001	8.00223E-005	4	..........a	-327.66
	274	0.055	3.80170E-001	4.13395E-009	0.00000E+000	3.80000E-001	8.00223E-005	4	..........a	-327.66
	275	0.0552	3.69970E-001	3.98694E-009	0.00000E+000	3.70000E-001	8.00223E-005	4	..........a	-327.66
	276	0.0554	3.59770E-001	3.83693E-009	0.00000E+000	3.60000E-001	8.00223E-005	4	..........a	-327.66
	277	0.0556	3.49920E-001	3.68293E-009	0.00000E+000	3.50000E-001	8.00223E-005	4	..........a	-327.66
	278	0.0558	3.39970E-001	3.52992E-009	0.00000E+000	3.40000E-001	8.00223E-005	4	..........a	-327.66
	279	0.056	3.29870E-001	3.36892E-009	0.00000E+000	3.30000E-001	8.00223E-005	4	..........a	-327.66
	280	0.0562	3.19870E-001	3.20391E-009	0.00000E+000	3.20000E-001	8.00223E-005	4	..........a	-327.66
	281	0.0564	3.10070E-001	3.03690E-009	0.00000E+000	3.10000E-001	8.00223E-005	4	..........a	-327.66
	282	0.0566	2.99920E-001	2.86290E-009	0.00000E+000	3.00000E-001	8.00223E-005	4	..........a	-327.66
	283	0.0568	2.89770E-001	2.69089E-009	0.00000E+000	2.90000E-001	8.00223E-005	4	..........a	-327.66
	284	0.057	2.79770E-001	2.50988E-009	0.00000E+000	2.80000E-001	8.00223E-005	4	..........a	-327.66
	285	0.0572	2.69970E-001	2.32888E-009	0.00000E+000	2.70000E-001	8.00223E-005	4	..........a	-327.66
	286	0.0574	2.60170E-001	2.14187E-009	0.00000E+000	2.60000E-001	8.00223E-005	4	..........a	-327.66
	287	0.0576	2.49920E-001	1.95186E-009	0.00000E+000	2.50000E-001	8.00223E-005	4	..........a	-327.66
	288	0.0578	2.39970E-001	1.76486E-009	0.00000E+000	2.40000E-001	8.00223E-005	4	..........a	-327.66
	289	0.058	2.29920E-001	1.57085E-009	0.00000E+000	2.30000E-001	8.00223E-005	4	..........a	-327.66
	290	0.0582	2.20170E-001	1.37684E-009	0.00000E+000	2.20000E-001	8.00223E-005	4	..........a	-327.66
	291	0.0584	2.10070E-001	1.17283E-009	0.00000E+000	2.10000E-001	8.00223E-005	4	..........a	-327.66
	292	0.0586	2.00170E-001	9.73825E-010	0.00000E+000	2.00000E-001	-3.19978E-004	4	..........a	-327.66
	293	0.0588	1.90070E-001	7.75817E-010	0.00000E+000	1.90000E-001	8.00223E-005	4	..........a	-327.66
	294	0.059	1.80220E-001	5.69810E-010	0.00000E+000	1.80000E-001	-3.19978E-004	4	..........a	-327.66
	295	0.0592	1.70070E-001	3.69802E-010	0.00000E+000	1.70000E-001	8.00223E-005	4	..........a	-327.66
	296	0.0594	1.59970E-001	1.67794E-010	0.00000E+000	1.60000E-001	8.00223E-005	4	..........a	-327.66
	297	0.0596	1.49970E-001	-3.42137E-011	0.00000E+000	1.50000E-001	8.00223E-005	4	..........a	-327.66
	298	0.0598	1.40170E-001	-2.36221E-010	0.00000E+000	1.40000E-001	8.00223E-005	4	..........a	-327.66
	299	0.06	1.30070E-001	-4.35229E-010	0.00000E+000	1.30000E-001	8.00223E-005	4	..........a	-327.66
	300	0.0602	1.20170E-001	-6.32237E-010	0.00000E+000	1.20000E-001	8.00223E-005	4	..........a	-327.66
	301	0.0604	1.10070E-001	-8.30244E-010	0.00000E+000	1.10000E-001	-3.19978E-004	4	..........a	-327.66
	302	0.0606	9.98695E-002	-1.03025E-009	0.00000E+000	1.00000E-001	-2.19978E-004	4	..........a	-327.66
	303	0.0608	8.99695E-002	-1.21726E-009	0.00000E+000	9.00000E-002	-2.19978E-004	4	..........a	-327.66
	304	0.061	7.98695E-002	-1.41227E-009	0.00000E+000	8.00000E-002	8.00223E-005	4	..........a	-327.66
	305	0.0612	7.00695E-002	-1.60327E-009	0.00000E+000	7.00000E-002	8.00223E-005	4	..........a	-327.66
	306	0.0614	5.99695E-002	-1.78528E-009	0.00000E+000	6.00000E-002	8.00223E-005	4	..........a	-327.66
	307	0.0616	4.99695E-002	-1.97429E-009	0.00000E+000	5.00000E-002	8.00223E-005	4	..........a	-327.66
	308	0.0618	4.03695E-002	-2.15429E-009	0.00000E+000	4.00000E-002	8.00223E-005	4	..........a	-327.66
	309	0.062	3.01695E-002	-2.34030E-009	0.00000E+000	3.00000E-002	8.00223E-005	4	..........a	-327.66
	310	0.0622	2.02695E-002	-2.51631E-009	0.00000E+000	2.00000E-002	8.00223E-005	4	..........a	-327.66
	311	0.0624	1.00695E-002	-2.68932E-009	0.00000E+000	1.00000E-002	8.00223E-005	4	..........a	-327.66
	312	0.0626	6.95192E-005	-2.86332E-009	0.00000E+000	7.45058E-009	8.00223E-005	4	..........a	-327.66
	313	0.0628	-9.93048E-003	-3.03133E-009	0.00000E+000	-1.00000E-002	8.00223E-005	4	..........a	-327.66
	314	0.063	-2.00305E-002	-3.20334E-009	0.00000E+000	-2.00000E-002	8.00223E-005	4	..........a	-327.66
	315	0.0632	-2.99305E-002	-3.37034E-009	0.00000E+000	-3.00000E-002	8.00223E-005	4	..........a	-327.66
	316	0.0634	-3.98305E-002	-3.53835E-009	0.00000E+000	-4.00000E-002	8.00223E-005	4	..........a	-327.66
	317	0.0636	-4.98305E-002	-3.69935E-009	0.00000E+000	-5.00000E-002	8.00223E-005	4	..........a	-327.66
	318	0.0638	-5.99305E-002	-3.86436E-009	0.00000E+000	-6.00000E-002	8.00223E-005	4	..........a	-327.66
	319	0.064	-6.99305E-002	-4.02837E-009	0.00000E+000	-7.00000E-002	-1.19978E-004	4	..........a	-327.66
	320	0.0642	-7.97305E-002	-4.18437E-009	0.00000E+000	-8.00000E-002	8.00223E-005	4	..........a	-327.66
	321	0.0644	-8.99305E-002	-4.33838E-009	0.00000E+000	-9.00000E-002	8.00223E-005	4	..........a	-327.66
	322	0.0646	-9.99305E-002	-4.49639E-009	0.00000E+000	-1.00000E-001	-2.19978E-004	4	..........a	-327.66
	323	0.0648	-1.09930E-001	-4.65139E-009	0.00000E+000	-1.10000E-001	8.00223E-005	4	..........a	-327.66
	324	0.065	-1.19930E-001	-4.79940E-009	0.00000E+000	-1.20000E-001	8.00223E-005	4	..........a	-327.66
	325	0.0652	-1.30030E-001	-4.95240E-009	0.00000E+000	-1.30000E-001	8.00223E-005	4	..........a	-327.66
	326	0.0654	-1.40130E-001	-5.10441E-009	0.00000E+000	-1.40000E-001	-3.19978E-004	4	..........a	-327.66
	327	0.0656	-1.50030E-001	-5.25241E-009	0.00000E+000	-1.50000E-001	-2.19978E-004	4	..........a	-327.66
	328	0.0658	-1.59980E-001	-5.40442E-009	0.00000E+000	-1.60000E-001	8.00223E-005	4	..........a	-327.66
	329	0.066	-1.69930E-001	-5.54843E-009	0.00000E+000	-1.70000E-001	8.00223E-005	4	..........a	-327.66
	330	0.0662	-1.79930E-001	-5.68943E-009	0.00000E+000	-1.80000E-001	8.00223E-005	4	..........a	-327.66
	331	0.0664	-1.89930E-001	-5.83644E-009	0.00000E+000	-1.90000E-001	8.00223E-005	4	..........a	-327.66
	332	0.0666	-1.99930E-001	-5.98344E-009	0.00000E+000	-2.00000E-001	8.00223E-005	4	..........a	-327.66
	333	0.0668	-2.09830E-001	-6.12145E-009	0.00000E+000	-2.10000E-001	8.00223E-005	4	..........a	-327.66
	334	0.067	-2.19930E-001	-6.26245E-009	0.00000E+000	-2.20000E-001	8.00223E-005	4	..........a	-327.66
	335	0.0672	-2.29930E-001	-6.40146E-009	0.00000E+000	-2.30000E-001	8.00223E-005	4	..........a	-327.66
	336	0.0674	-2.39930E-001	-6.54646E-009	0.00000E+000	-2.40000E-001	8.00223E-005	4	..........a	-327.66
	337	0.0676	-2.49830E-001	-6.68647E-009	0.00000E+000	-2.50000E-001	8.00223E-005	4	..........a	-327.66
	338	0.0678	-2.59630E-001	-6.82447E-009	0.00000E+000	-2.60000E-001	8.00223E-005	4	..........a	-327.66
	339	0.068	-2.69930E-001	-6.95948E-009	0.00000E+000	-2.70000E-001	8.00223E-005	4	..........a	-327.66
	340	0.0682	-2.79930E-001	-7.09948E-009	0.00000E+000	-2.80000E-001	8.00223E-005	4	..........a	-327.66
	341	0.0684	-2.90030E-001	-7.23349E-009	0.00000E+000	-2.90000E-001	8.00223E-005	4	..........a	-327.66
	342	0.0686	-2.99830E-001	-7.37250E-009	0.00000E+000	-3.00000E-001	8.00223E-005	4	..........a	-327.66
	343	0.0688	-3.09930E-001	-7.51050E-009	0.00000E+000	-3.10000E-001	8.00223E-005	4	..........a	-327.66
	344	0.069	-3.19830E-001	-7.64551E-009	0.00000E+000	-3.20000E-001	8.00223E-005	4	..........a	-327.66
[...]
	2605	0.5212	-5.30030E-001	-8.04952E-009	0.00000E+000	-5.30000E-001	8.00223E-005	4	..........a	-327.66
	2606	0.5214	-5.39831E-001	-8.20253E-009	0.00000E+000	-5.40000E-001	8.00223E-005	4	..........a	-327.66
	2607	0.5216	-5.49931E-001	-8.35353E-009	0.00000E+000	-5.50000E-001	8.00223E-005	4	..........a	-327.66
	2608	0.5218	-5.59830E-001	-8.51054E-009	0.00000E+000	-5.60000E-001	8.00223E-005	4	..........a	-327.66
	2609	0.522	-5.69830E-001	-8.67455E-009	0.00000E+000	-5.70000E-001	8.00223E-005	4	..........a	-327.66
	2610	0.5222	-5.79930E-001	-8.83555E-009	0.00000E+000	-5.80000E-001	8.00223E-005	4	..........a	-327.66
	2611	0.5224	-5.89930E-001	-9.00656E-009	0.00000E+000	-5.90000E-001	8.00223E-005	4	..........a	-327.66
	2612	0.5226	-5.99930E-001	-9.17557E-009	0.00000E+000	-6.00000E-001	8.00223E-005	4	..........a	-327.66
	2613	0.5228	-5.89930E-001	-9.21957E-009	0.00000E+000	-5.90000E-001	8.00223E-005	4	..........a	-327.66
	2614	0.523	-5.79930E-001	-9.23957E-009	0.00000E+000	-5.80000E-001	-2.19978E-004	4	..........a	-327.66
	2615	0.5232	-5.69930E-001	-9.25057E-009	0.00000E+000	-5.70000E-001	8.00223E-005	4	..........a	-327.66
	2616	0.5234	-5.59931E-001	-9.23857E-009	0.00000E+000	-5.60000E-001	8.00223E-005	4	..........a	-327.66
	2617	0.5236	-5.49931E-001	-9.22257E-009	0.00000E+000	-5.50000E-001	8.00223E-005	4	..........a	-327.66
	2618	0.5238	-5.39730E-001	-9.20457E-009	0.00000E+000	-5.40000E-001	8.00223E-005	4	..........a	-327.66
	2619	0.524	-5.30030E-001	-9.17457E-009	0.00000E+000	-5.30000E-001	8.00223E-005	4	..........a	-327.66
	2620	0.5242	-5.19830E-001	-9.14356E-009	0.00000E+000	-5.20000E-001	8.00223E-005	4	..........a	-327.66
	2621	0.5244	-5.09930E-001	-9.10356E-009	0.00000E+000	-5.10000E-001	-3.19978E-004	4	..........a	-327.66
	2622	0.5246	-4.99930E-001	-9.05656E-009	0.00000E+000	-5.00000E-001	8.00223E-005	4	..........a	-327.66
	2623	0.5248	-4.89830E-001	-9.01956E-009	0.00000E+000	-4.90000E-001	8.00223E-005	4	..........a	-327.66
	2624	0.525	-4.80030E-001	-8.96856E-009	0.00000E+000	-4.80000E-001	8.00223E-005	4	..........a	-327.66
	2625	0.5252	-4.69930E-001	-8.91955E-009	0.00000E+000	-4.70000E-001	8.00223E-005	4	..........a	-327.66
	2626	0.5254	-4.59730E-001	-8.86555E-009	0.00000E+000	-4.60000E-001	8.00223E-005	4	..........a	-327.66
	2627	0.5256	-4.49930E-001	-8.80755E-009	0.00000E+000	-4.50000E-001	8.00223E-005	4	..........a	-327.66
	2628	0.5258	-4.39730E-001	-8.75255E-009	0.00000E+000	-4.40000E-001	-2.19978E-004	4	..........a	-327.66
	2629	0.526	-4.29930E-001	-8.69155E-009	0.00000E+000	-4.30000E-001	8.00223E-005	4	..........a	-327.66
	2630	0.5262	-4.19730E-001	-8.62454E-009	0.00000E+000	-4.20000E-001	8.00223E-005	4	..........a	-327.66
	2631	0.5264	-4.09830E-001	-8.56654E-009	0.00000E+000	-4.10000E-001	8.00223E-005	4	..........a	-327.66
	2632	0.5266	-3.99930E-001	-8.50054E-009	0.00000E+000	-4.00000E-001	8.00223E-005	4	..........a	-327.66
	2633	0.5268	-3.89930E-001	-8.43154E-009	0.00000E+000	-3.90000E-001	8.00223E-005	4	..........a	-327.66
	2634	0.527	-3.79930E-001	-8.36653E-009	0.00000E+000	-3.80000E-001	8.00223E-005	4	..........a	-327.66
	2635	0.5272	-3.69930E-001	-8.29153E-009	0.00000E+000	-3.70000E-001	8.00223E-005	4	..........a	-327.66
	2636	0.5274	-3.59730E-001	-8.22453E-009	0.00000E+000	-3.60000E-001	8.00223E-005	4	..........a	-327.66
	2637	0.5276	-3.49930E-001	-8.14853E-009	0.00000E+000	-3.50000E-001	8.00223E-005	4	..........a	-327.66
	2638	0.5278	-3.39830E-001	-8.07552E-009	0.00000E+000	-3.40000E-001	8.00223E-005	4	..........a	-327.66
	2639	0.528	-3.29930E-001	-8.00252E-009	0.00000E+000	-3.30000E-001	8.00223E-005	4	..........a	-327.66
	2640	0.5282	-3.19930E-001	-7.92452E-009	0.00000E+000	-3.20000E-001	8.00223E-005	4	..........a	-327.66
	2641	0.5284	-3.10130E-001	-7.84651E-009	0.00000E+000	-3.10000E-001	8.00223E-005	4	..........a	-327.66
	2642	0.5286	-2.99830E-001	-7.77051E-009	0.00000E+000	-3.00000E-001	8.00223E-005	4	..........a	-327.66
	2643	0.5288	-2.89930E-001	-7.69051E-009	0.00000E+000	-2.90000E-001	8.00223E-005	4	..........a	-327.66
	2644	0.529	-2.79930E-001	-7.61850E-009	0.00000E+000	-2.80000E-001	8.00223E-005	4	..........a	-327.66
	2645	0.5292	-2.69930E-001	-7.52050E-009	0.00000E+000	-2.70000E-001	8.00223E-005	4	..........a	-327.66
	2646	0.5294	-2.59730E-001	-7.45250E-009	0.00000E+000	-2.60000E-001	8.00223E-005	4	..........a	-327.66
	2647	0.5296	-2.49930E-001	-7.36850E-009	0.00000E+000	-2.50000E-001	8.00223E-005	4	..........a	-327.66
	2648	0.5298	-2.39730E-001	-7.28149E-009	0.00000E+000	-2.40000E-001	8.00223E-005	4	..........a	-327.66
	2649	0.53	-2.29930E-001	-7.20249E-009	0.00000E+000	-2.30000E-001	8.00223E-005	4	..........a	-327.66
	2650	0.5302	-2.19830E-001	-7.11849E-009	0.00000E+000	-2.20000E-001	8.00223E-005	4	..........a	-327.66
	2651	0.5304	-2.09830E-001	-7.03048E-009	0.00000E+000	-2.10000E-001	8.00223E-005	4	..........a	-327.66
	2652	0.5306	-1.99930E-001	-6.94048E-009	0.00000E+000	-2.00000E-001	8.00223E-005	4	..........a	-327.66
	2653	0.5308	-1.89830E-001	-6.85448E-009	0.00000E+000	-1.90000E-001	8.00223E-005	4	..........a	-327.66
	2654	0.531	-1.79830E-001	-6.76547E-009	0.00000E+000	-1.80000E-001	8.00223E-005	4	..........a	-327.66
	2655	0.5312	-1.69930E-001	-6.67247E-009	0.00000E+000	-1.70000E-001	8.00223E-005	4	..........a	-327.66
	2656	0.5314	-1.59930E-001	-6.58447E-009	0.00000E+000	-1.60000E-001	-3.19978E-004	4	..........a	-327.66
	2657	0.5316	-1.49930E-001	-6.49846E-009	0.00000E+000	-1.50000E-001	8.00223E-005	4	..........a	-327.66
	2658	0.5318	-1.39830E-001	-6.40346E-009	0.00000E+000	-1.40000E-001	8.00223E-005	4	..........a	-327.66
	2659	0.532	-1.29930E-001	-6.31246E-009	0.00000E+000	-1.30000E-001	8.00223E-005	4	..........a	-327.66
	2660	0.5322	-1.20030E-001	-6.22245E-009	0.00000E+000	-1.20000E-001	8.00223E-005	4	..........a	-327.66
	2661	0.5324	-1.09930E-001	-6.12445E-009	0.00000E+000	-1.10000E-001	8.00223E-005	4	..........a	-327.66
	2662	0.5326	-9.99305E-002	-6.03044E-009	0.00000E+000	-1.00000E-001	8.00223E-005	4	..........a	-327.66
	2663	0.5328	-9.00305E-002	-5.93144E-009	0.00000E+000	-9.00000E-002	-4.19978E-004	4	..........a	-327.66
	2664	0.533	-7.99305E-002	-5.83844E-009	0.00000E+000	-8.00000E-002	8.00223E-005	4	..........a	-327.66
	2665	0.5332	-6.99305E-002	-5.73843E-009	0.00000E+000	-7.00000E-002	-3.19978E-004	4	..........a	-327.66
	2666	0.5334	-5.98305E-002	-5.63843E-009	0.00000E+000	-6.00000E-002	8.00223E-005	4	..........a	-327.66
	2667	0.5336	-4.99305E-002	-5.54243E-009	0.00000E+000	-5.00000E-002	8.00223E-005	4	..........a	-327.66
	2668	0.5338	-3.99305E-002	-5.44442E-009	0.00000E+000	-4.00000E-002	8.00223E-005	4	..........a	-327.66
	2669	0.534	-3.00305E-002	-5.34542E-009	0.00000E+000	-3.00000E-002	8.00223E-005	4	..........a	-327.66
	2670	0.5342	-1.99305E-002	-5.23941E-009	0.00000E+000	-2.00000E-002	8.00223E-005	4	..........a	-327.66
	2671	0.5344	-9.93048E-003	-5.13941E-009	0.00000E+000	-1.00000E-002	8.00223E-005	4	..........a	-327.66
	2672	0.5346	-1.30481E-004	-5.03341E-009	0.00000E+000	7.45058E-009	8.00223E-005	4	..........a	-327.66
	2673	0.5348	9.96952E-003	-4.93040E-009	0.00000E+000	1.00000E-002	8.00223E-005	4	..........a	-327.66
	2674	0.535	2.02195E-002	-4.82140E-009	0.00000E+000	2.00000E-002	8.00223E-005	4	..........a	-327.66
	2675	0.5352	3.00695E-002	-4.71839E-009	0.00000E+000	3.00000E-002	8.00223E-005	4	..........a	-327.66
	2676	0.5354	3.98195E-002	-4.60639E-009	0.00000E+000	4.00000E-002	8.00223E-005	4	..........a	-327.66
	2677	0.5356	4.98695E-002	-4.50039E-009	0.00000E+000	5.00000E-002	8.00223E-005	4	..........a	-327.66
	2678	0.5358	6.00695E-002	-4.38838E-009	0.00000E+000	6.00000E-002	8.00223E-005	4	..........a	-327.66
	2679	0.536	7.00695E-002	-4.27238E-009	0.00000E+000	7.00000E-002	-3.19978E-004	4	..........a	-327.66
	2680	0.5362	7.99695E-002	-4.16037E-009	0.00000E+000	8.00000E-002	8.00223E-005	4	..........a	-327.66
	2681	0.5364	9.00695E-002	-4.04237E-009	0.00000E+000	9.00000E-002	8.00223E-005	4	..........a	-327.66
	2682	0.5366	1.00070E-001	-3.92636E-009	0.00000E+000	1.00000E-001	8.00223E-005	4	..........a	-327.66
	2683	0.5368	1.09970E-001	-3.80436E-009	0.00000E+000	1.10000E-001	8.00223E-005	4	..........a	-327.66
	2684	0.537	1.20070E-001	-3.68435E-009	0.00000E+000	1.20000E-001	8.00223E-005	4	..........a	-327.66
	2685	0.5372	1.29870E-001	-3.55635E-009	0.00000E+000	1.30000E-001	8.00223E-005	4	..........a	-327.66
	2686	0.5374	1.40070E-001	-3.42434E-009	0.00000E+000	1.40000E-001	-3.19978E-004	4	..........a	-327.66
	2687	0.5376	1.50070E-001	-3.30634E-009	0.00000E+000	1.50000E-001	-3.19978E-004	4	..........a	-327.66
	2688	0.5378	1.60170E-001	-3.17333E-009	0.00000E+000	1.60000E-001	8.00223E-005	4	..........a	-327.66
	2689	0.538	1.70070E-001	-3.03733E-009	0.00000E+000	1.70000E-001	8.00223E-005	4	..........a	-327.66
	2690	0.5382	1.80070E-001	-2.90132E-009	0.00000E+000	1.80000E-001	8.00223E-005	4	..........a	-327.66
	2691	0.5384	1.90070E-001	-2.75932E-009	0.00000E+000	1.90000E-001	-3.19978E-004	4	..........a	-327.66
	2692	0.5386	1.99870E-001	-2.61931E-009	0.00000E+000	2.00000E-001	8.00223E-005	4	..........a	-327.66
	2693	0.5388	2.09970E-001	-2.47431E-009	0.00000E+000	2.10000E-001	-4.19978E-004	4	..........a	-327.66
	2694	0.539	2.19770E-001	-2.33230E-009	0.00000E+000	2.20000E-001	8.00223E-005	4	..........a	-327.66
	2695	0.5392	2.30070E-001	-2.17330E-009	0.00000E+000	2.30000E-001	-3.19978E-004	4	..........a	-327.66
	2696	0.5394	2.39970E-001	-2.01229E-009	0.00000E+000	2.40000E-001	8.00223E-005	4	..........a	-327.66
	2697	0.5396	2.49970E-001	-1.85828E-009	0.00000E+000	2.50000E-001	8.00223E-005	4	..........a	-327.66
	2698	0.5398	2.59870E-001	-1.69328E-009	0.00000E+000	2.60000E-001	-3.19978E-004	4	..........a	-327.66
	2699	0.54	2.69970E-001	-1.52627E-009	0.00000E+000	2.70000E-001	8.00223E-005	4	..........a	-327.66
	2700	0.5402	2.79970E-001	-1.35826E-009	0.00000E+000	2.80000E-001	8.00223E-005	4	..........a	-327.66
	2701	0.5404	2.89870E-001	-1.18326E-009	0.00000E+000	2.90000E-001	8.00223E-005	4	..........a	-327.66
	2702	0.5406	3.00170E-001	-1.00425E-009	0.00000E+000	3.00000E-001	-4.19978E-004	4	..........a	-327.66
	2703	0.5408	3.10070E-001	-8.23244E-010	0.00000E+000	3.10000E-001	-3.19978E-004	4	..........a	-327.66
	2704	0.541	3.19870E-001	-6.42237E-010	0.00000E+000	3.20000E-001	8.00223E-005	4	..........a	-327.66
	2705	0.5412	3.29970E-001	-4.52230E-010	0.00000E+000	3.30000E-001	8.00223E-005	4	..........a	-327.66
	2706	0.5414	3.40170E-001	-2.66223E-010	0.00000E+000	3.40000E-001	8.00223E-005	4	..........a	-327.66
	2707	0.5416	3.49970E-001	-6.92150E-011	0.00000E+000	3.50000E-001	8.00223E-005	4	..........a	-327.66
	2708	0.5418	3.60070E-001	1.28793E-010	0.00000E+000	3.60000E-001	8.00223E-005	4	..........a	-327.66
	2709	0.542	3.69870E-001	3.30800E-010	0.00000E+000	3.70000E-001	8.00223E-005	4	..........a	-327.66
	2710	0.5422	3.79970E-001	5.33808E-010	0.00000E+000	3.80000E-001	-3.19978E-004	4	..........a	-327.66
	2711	0.5424	3.89970E-001	7.33816E-010	0.00000E+000	3.90000E-001	8.00223E-005	4	..........a	-327.66
	2712	0.5426	3.99870E-001	9.48824E-010	0.00000E+000	4.00000E-001	8.00223E-005	4	..........a	-327.66
	2713	0.5428	4.09870E-001	1.15683E-009	0.00000E+000	4.10000E-001	8.00223E-005	4	..........a	-327.66
	2714	0.543	4.19870E-001	1.36884E-009	0.00000E+000	4.20000E-001	8.00223E-005	4	..........a	-327.66
	2715	0.5432	4.29970E-001	1.58285E-009	0.00000E+000	4.30000E-001	-2.19978E-004	4	..........a	-327.66
	2716	0.5434	4.39870E-001	1.80486E-009	0.00000E+000	4.40000E-001	8.00223E-005	4	..........a	-327.66
	2717	0.5436	4.49770E-001	2.02587E-009	0.00000E+000	4.50000E-001	8.00223E-005	4	..........a	-327.66
	2718	0.5438	4.60170E-001	2.24687E-009	0.00000E+000	4.60000E-001	8.00223E-005	4	..........a	-327.66
	2719	0.544	4.69970E-001	2.47288E-009	0.00000E+000	4.70000E-001	8.00223E-005	4	..........a	-327.66
	2720	0.5442	4.79870E-001	2.69289E-009	0.00000E+000	4.80000E-001	-3.19978E-004	4	..........a	-327.66
	2721	0.5444	4.90070E-001	2.92190E-009	0.00000E+000	4.90000E-001	8.00223E-005	4	..........a	-327.66
	2722	0.5446	4.99870E-001	3.15491E-009	0.00000E+000	5.00000E-001	-3.19978E-004	4	..........a	-327.66
	2723	0.5448	5.09870E-001	3.38292E-009	0.00000E+000	5.10000E-001	8.00223E-005	4	..........a	-327.66
	2724	0.545	5.19969E-001	3.61693E-009	0.00000E+000	5.20000E-001	8.00223E-005	4	..........a	-327.66
	2725	0.5452	5.29869E-001	3.84894E-009	0.00000E+000	5.30000E-001	8.00223E-005	4	..........a	-327.66
	2726	0.5454	5.39970E-001	4.08194E-009	0.00000E+000	5.40000E-001	8.00223E-005	4	..........a	-327.66
	2727	0.5456	5.49969E-001	4.31795E-009	0.00000E+000	5.50000E-001	8.00223E-005	4	..........a	-327.66
	2728	0.5458	5.59669E-001	4.55296E-009	0.00000E+000	5.60000E-001	8.00223E-005	4	..........a	-327.66
	2729	0.546	5.69969E-001	4.79697E-009	0.00000E+000	5.70000E-001	8.00223E-005	4	..........a	-327.66
	2730	0.5462	5.79969E-001	5.03198E-009	0.00000E+000	5.80000E-001	8.00223E-005	4	..........a	-327.66
	2731	0.5464	5.89969E-001	5.27099E-009	0.00000E+000	5.90000E-001	8.00223E-005	4	..........a	-327.66
	2732	0.5466	6.00069E-001	5.51400E-009	0.00000E+000	6.00000E-001	8.00223E-005	4	..........a	-327.66
	2733	0.5468	6.09869E-001	5.75401E-009	0.00000E+000	6.10000E-001	8.00223E-005	4	..........a	-327.66
	2734	0.547	6.19769E-001	5.99602E-009	0.00000E+000	6.20000E-001	8.00223E-005	4	..........a	-327.66
	2735	0.5472	6.30069E-001	6.24003E-009	0.00000E+000	6.30000E-001	8.00223E-005	4	..........a	-327.66
	2736	0.5474	6.39870E-001	6.48404E-009	0.00000E+000	6.40000E-001	8.00223E-005	4	..........a	-327.66
	2737	0.5476	6.49769E-001	6.73005E-009	0.00000E+000	6.50000E-001	8.00223E-005	4	..........a	-327.66
	2738	0.5478	6.59869E-001	6.97306E-009	0.00000E+000	6.60000E-001	8.00223E-005	4	..........a	-327.66
	2739	0.548	6.69969E-001	7.21906E-009	0.00000E+000	6.70000E-001	8.00223E-005	4	..........a	-327.66
	2740	0.5482	6.79669E-001	7.46707E-009	0.00000E+000	6.80000E-001	8.00223E-005	4	..........a	-327.66
	2741	0.5484	6.89869E-001	7.72008E-009	0.00000E+000	6.90000E-001	8.00223E-005	4	..........a	-327.66
	2742	0.5486	6.99869E-001	7.97109E-009	0.00000E+000	7.00000E-001	8.00223E-005	4	..........a	-327.66
	2743	0.5488	7.09870E-001	8.22510E-009	0.00000E+000	7.10000E-001	8.00223E-005	4	..........a	-327.66
	2744	0.549	7.19819E-001	8.48111E-009	0.00000E+000	7.20000E-001	8.00223E-005	4	..........a	-327.66
	2745	0.5492	7.30069E-001	8.73712E-009	0.00000E+000	7.30000E-001	8.00223E-005	4	..........a	-327.66
	2746	0.5494	7.39869E-001	8.99313E-009	0.00000E+000	7.40000E-001	8.00223E-005	4	..........a	-327.66
	2747	0.5496	7.49869E-001	9.25814E-009	0.00000E+000	7.50000E-001	8.00223E-005	4	..........a	-327.66
	2748	0.5498	7.59869E-001	9.52115E-009	0.00000E+000	7.60000E-001	8.00223E-005	4	..........a	-327.66
	2749	0.55	7.69870E-001	9.78416E-009	0.00000E+000	7.70000E-001	8.00223E-005	4	..........a	-327.66
	2750	0.5502	7.79869E-001	1.00592E-008	0.00000E+000	7.80000E-001	8.00223E-005	4	..........a	-327.66
	2751	0.5504	7.89869E-001	1.03302E-008	0.00000E+000	7.90000E-001	8.00223E-005	4	..........a	-327.66
	2752	0.5506	7.99969E-001	1.06102E-008	0.00000E+000	8.00000E-001	8.00223E-005	4	..........a	-327.66
CURVE11	TABLE
	Pt	T	Vf	Im	Vu	Sig	Ach	IERange	Over	Temp
	#	s	V vs. Ref.	A	V	V	V	#	bits	deg C
	2753	0.5508	7.89869E-001	1.07492E-008	0.00000E+000	7.90000E-001	8.00223E-005	4	..........a	-327.66
	2754	0.551	7.79819E-001	1.08372E-008	0.00000E+000	7.80000E-001	8.00223E-005	4	..........a	-327.66
	2755	0.5512	7.69969E-001	1.09022E-008	0.00000E+000	7.70000E-001	8.00223E-005	4	..........a	-327.66
	2756	0.5514	7.59769E-001	1.09342E-008	0.00000E+000	7.60000E-001	8.00223E-005	4	..........a	-327.66
	2757	0.5516	7.49869E-001	1.09562E-008	0.00000E+000	7.50000E-001	8.00223E-005	4	..........a	-327.66
	2758	0.5518	7.39869E-001	1.09532E-008	0.00000E+000	7.40000E-001	8.00223E-005	4	..........a	-327.66
	2759	0.552	7.29869E-001	1.09442E-008	0.00000E+000	7.30000E-001	8.00223E-005	4	..........a	-327.66
	2760	0.5522	7.19869E-001	1.09242E-008	0.00000E+000	7.20000E-001	8.00223E-005	4	..........a	-327.66
	2761	0.5524	7.09870E-001	1.08932E-008	0.00000E+000	7.10000E-001	8.00223E-005	4	..........a	-327.66
	2762	0.5526	6.99969E-001	1.08522E-008	0.00000E+000	7.00000E-001	8.00223E-005	4	..........a	-327.66
	2763	0.5528	6.89969E-001	1.08102E-008	0.00000E+000	6.90000E-001	8.00223E-005	4	..........a	-327.66
	2764	0.553	6.79669E-001	1.07542E-008	0.00000E+000	6.80000E-001	8.00223E-005	4	..........a	-327.66
	2765	0.5532	6.69869E-001	1.06982E-008	0.00000E+000	6.70000E-001	8.00223E-005	4	..........a	-327.66
	2766	0.5534	6.60269E-001	1.06352E-008	0.00000E+000	6.60000E-001	8.00223E-005	4	..........a	-327.66
	2767	0.5536	6.49769E-001	1.05662E-008	0.00000E+000	6.50000E-001	8.00223E-005	4	..........a	-327.66
	2768	0.5538	6.39870E-001	1.05002E-008	0.00000E+000	6.40000E-001	8.00223E-005	4	..........a	-327.66
	2769	0.554	6.29969E-001	1.04202E-008	0.00000E+000	6.30000E-001	8.00223E-005	4	..........a	-327.66
	2770	0.5542	6.19769E-001	1.03402E-008	0.00000E+000	6.20000E-001	8.00223E-005	4	..........a	-327.66
	2771	0.5544	6.09869E-001	1.02592E-008	0.00000E+000	6.10000E-001	8.00223E-005	4	..........a	-327.66
	2772	0.5546	5.99970E-001	1.01742E-008	0.00000E+000	6.00000E-001	8.00223E-005	4	..........a	-327.66
	2773	0.5548	5.89969E-001	1.00792E-008	0.00000E+000	5.90000E-001	8.00223E-005	4	..........a	-327.66
	2774	0.555	5.80069E-001	9.98817E-009	0.00000E+000	5.80000E-001	8.00223E-005	4	..........a	-327.66
	2775	0.5552	5.69869E-001	9.89117E-009	0.00000E+000	5.70000E-001	-2.19978E-004	4	..........a	-327.66
	2776	0.5554	5.59969E-001	9.79016E-009	0.00000E+000	5.60000E-001	8.00223E-005	4	..........a	-327.66
	2777	0.5556	5.49869E-001	9.69116E-009	0.00000E+000	5.50000E-001	8.00223E-005	4	..........a	-327.66
	2778	0.5558	5.39970E-001	9.58316E-009	0.00000E+000	5.40000E-001	8.00223E-005	4	..........a	-327.66
	2779	0.556	5.29819E-001	9.47315E-009	0.00000E+000	5.30000E-001	8.00223E-005	4	..........a	-327.66
	2780	0.5562	5.19719E-001	9.36715E-009	0.00000E+000	5.20000E-001	8.00223E-005	4	..........a	-327.66
	2781	0.5564	5.09870E-001	9.24614E-009	0.00000E+000	5.10000E-001	8.00223E-005	4	..........a	-327.66
	2782	0.5566	4.99770E-001	9.13314E-009	0.00000E+000	5.00000E-001	8.00223E-005	4	..........a	-327.66
	2783	0.5568	4.89770E-001	9.01013E-009	0.00000E+000	4.90000E-001	8.00223E-005	4	..........a	-327.66
	2784	0.557	4.79820E-001	8.88213E-009	0.00000E+000	4.80000E-001	8.00223E-005	4	..........a	-327.66
	2785	0.5572	4.69970E-001	8.75812E-009	0.00000E+000	4.70000E-001	8.00223E-005	4	..........a	-327.66
	2786	0.5574	4.60070E-001	8.62512E-009	0.00000E+000	4.60000E-001	8.00223E-005	4	..........a	-327.66
	2787	0.5576	4.50070E-001	8.49211E-009	0.00000E+000	4.50000E-001	8.00223E-005	4	..........a	-327.66
	2788	0.5578	4.39870E-001	8.35011E-009	0.00000E+000	4.40000E-001	8.00223E-005	4	..........a	-327.66
	2789	0.558	4.29870E-001	8.21010E-009	0.00000E+000	4.30000E-001	8.00223E-005	4	..........a	-327.66
	2790	0.5582	4.20070E-001	8.06410E-009	0.00000E+000	4.20000E-001	8.00223E-005	4	..........a	-327.66
	2791	0.5584	4.10070E-001	7.91209E-009	0.00000E+000	4.10000E-001	8.00223E-005	4	..........a	-327.66
	2792	0.5586	3.99970E-001	7.76509E-009	0.00000E+000	4.00000E-001	8.00223E-005	4	..........a	-327.66
	2793	0.5588	3.89970E-001	7.60908E-009	0.00000E+000	3.90000E-001	8.00223E-005	4	..........a	-327.66
	2794	0.559	3.80020E-001	7.44107E-009	0.00000E+000	3.80000E-001	8.00223E-005	4	..........a	-327.66
	2795	0.5592	3.69770E-001	7.27007E-009	0.00000E+000	3.70000E-001	8.00223E-005	4	..........a	-327.66
	2796	0.5594	3.59970E-001	7.10506E-009	0.00000E+000	3.60000E-001	8.00223E-005	4	..........a	-327.66
	2797	0.5596	3.49920E-001	6.93505E-009	0.00000E+000	3.50000E-001	8.00223E-005	4	..........a	-327.66
	2798	0.5598	3.40070E-001	6.75505E-009	0.00000E+000	3.40000E-001	8.00223E-005	4	..........a	-327.66
	2799	0.56	3.29970E-001	6.57104E-009	0.00000E+000	3.30000E-001	-2.19978E-004	4	..........a	-327.66
	2800	0.5602	3.19970E-001	6.38503E-009	0.00000E+000	3.20000E-001	8.00223E-005	4	..........a	-327.66