File: example_project/raw_outputs/20240509_ZA_GM0016_HL03_E07_CV50.DTA
EXPLAIN
TAG	CV
TITLE	LABEL	Cyclic Voltammetry	Test &Identifier
DATE	LABEL	5/9/2024	Date
TIME	LABEL	13:52:05	Time
NOTES	NOTES	1	&Notes...

PSTAT	PSTAT	REF600P-43058	Potentiostat
VINIT	POTEN	0.00000E+000	T	Initial &E (V)
VLIMIT1	POTEN	8.00000E-001	F	Scan Limit &1 (V)
VLIMIT2	POTEN	-6.00000E-001	F	Scan Limit &2 (V)
VFINAL	POTEN	0.00000E+000	T	Final &E (V)
SCANRATE	QUANT	4.99999E+001	&Scan Rate (mV/s)
STEPSIZE	QUANT	1.00000E+001	St&ep Size (mV)
CYCLES	IQUANT	4	C&ycles (#)
IMODE	SELECTOR	0	I/E Range &Mode
IRANGE	QUANT	1.00000E-005	&Max Current (mA)
AREA	QUANT	1.00000E+000	Electrode &Area (cm^2)
ELECTRODETYPE	SELECTOR	0	Electrode Type
STRIPPING	TOGGLE	F	Used for Stripping
POLARITY	TOGGLE	F	Signal Polarity
CONDIT	TWOPARAM	F	1.50000E+001	0.00000E+000	Conditionin&g	Time(s)	E(V)
DELAY	TWOPARAM	T	1.00000E+001	0.00000E+000	Init. De&lay	Time(s)	Stab.(mV/s)
EQDELAY	QUANT	1.00000E+001	Equil. &Time (s)
IRCOMP	SELECTOR	0	IRCom&p
PFCOR	QUANT	5.00000E+001	PF Corr. (ohm)
SAMPLINGMODE	SELECTOR	1	Sampling &Mode
OCVCURVE	TABLE	39
	Pt	T	Vf	Vm	Ach	Over	Temp
	#	s	V vs. Ref.	V	V	bits	deg C
	0	0.258333	-1.38075E-001	-1.38075E-001	1.92992E-004	..........a	-327.66
	1	0.516667	-1.38076E-001	-1.38133E-001	1.94859E-004	..........a	-327.66
	2	0.775	-1.38083E-001	-1.38201E-001	1.97326E-004	..........a	-327.66
	3	1.03333	-1.38104E-001	-1.38265E-001	2.07392E-004	..........a	-327.66
	4	1.29167	-1.38143E-001	-1.38343E-001	2.06192E-004	..........a	-327.66
	5	1.55	-1.38198E-001	-1.38408E-001	2.02126E-004	..........a	-327.66
	6	1.80833	-1.38263E-001	-1.38477E-001	1.96326E-004	..........a	-327.66
	7	2.06667	-1.38332E-001	-1.38546E-001	1.94592E-004	..........a	-327.66
	8	2.325	-1.38402E-001	-1.38607E-001	1.98726E-004	..........a	-327.66
	9	2.58333	-1.38471E-001	-1.38680E-001	2.01126E-004	..........a	-327.66
	10	2.84167	-1.38539E-001	-1.38744E-001	2.09326E-004	..........a	-327.66
	11	3.1	-1.38606E-001	-1.38813E-001	2.04859E-004	..........a	-327.66
	12	3.35833	-1.38673E-001	-1.38882E-001	1.95992E-004	..........a	-327.66
	13	3.61667	-1.38740E-001	-1.38936E-001	1.89659E-004	..........a	-327.66
	14	3.875	-1.38806E-001	-1.38998E-001	2.02126E-004	..........a	-327.66
	15	4.13333	-1.38871E-001	-1.39062E-001	2.11859E-004	..........a	-327.66
	16	4.39167	-1.38934E-001	-1.39132E-001	2.01126E-004	..........a	-327.66
	17	4.65	-1.38996E-001	-1.39200E-001	1.99926E-004	..........a	-327.66
	18	4.90833	-1.39060E-001	-1.39247E-001	1.95259E-004	..........a	-327.66
	19	5.16667	-1.39124E-001	-1.39307E-001	2.12659E-004	..........a	-327.66
	20	5.425	-1.39186E-001	-1.39373E-001	2.02859E-004	..........a	-327.66
	21	5.68333	-1.39247E-001	-1.39451E-001	1.95059E-004	..........a	-327.66
	22	5.94167	-1.39308E-001	-1.39509E-001	2.03059E-004	..........a	-327.66
	23	6.2	-1.39372E-001	-1.39557E-001	2.06926E-004	..........a	-327.66
	24	6.45833	-1.39437E-001	-1.39628E-001	2.07259E-004	..........a	-327.66
	25	6.71667	-1.39499E-001	-1.39688E-001	2.03659E-004	..........a	-327.66
	26	6.975	-1.39560E-001	-1.39754E-001	1.95059E-004	..........a	-327.66
	27	7.23333	-1.39622E-001	-1.39810E-001	1.90192E-004	..........a	-327.66
	28	7.49167	-1.39684E-001	-1.39866E-001	2.07992E-004	..........a	-327.66
	29	7.75	-1.39745E-001	-1.39923E-001	1.99926E-004	..........a	-327.66
	30	8.00833	-1.39804E-001	-1.39974E-001	1.97126E-004	..........a	-327.66
	31	8.26667	-1.39861E-001	-1.40025E-001	2.09792E-004	..........a	-327.66
	32	8.525	-1.39916E-001	-1.40070E-001	1.99659E-004	..........a	-327.66
	33	8.78333	-1.39968E-001	-1.40116E-001	2.00726E-004	..........a	-327.66
	34	9.04167	-1.40018E-001	-1.40168E-001	2.01126E-004	..........a	-327.66
	35	9.3	-1.40067E-001	-1.40215E-001	1.93792E-004	..........a	-327.66
	36	9.5583	-1.40115E-001	-1.40269E-001	2.09326E-004	..........a	-327.66
	37	9.8167	-1.40164E-001	-1.40328E-001	2.00459E-004	..........a	-327.66
	38	10.075	-1.40215E-001	-1.40384E-001	1.99592E-004	..........a	-327.66
EOC	QUANT	-0.1402146	Open Circuit (V)
PSTATMODEL	IQUANT	7	Pstat Model
PSTATSECTION	LABEL	REF600P-43058	Pstat Section
PSTATSERIALNO	LABEL	43058	Pstat Serial Number
CTRLMODE	IQUANT	1	Control Mode
ELECTROMETER	IQUANT	0	RE=0 or CS=1
IESTAB	IQUANT	2	I/E Stability
CASPEED	IQUANT	4	Control Amp Speed
CONVENTION	IQUANT	1	Current Convention
ICHRANGE	IQUANT	2	Ich Range
ICHRANGEMODE	TOGGLE	F	Ich Auto Range
ICHOFFSETENABLE	TOGGLE	F	Ich Offset Enable
ICHOFFSET	QUANT	0	Ich Offset (V)
ICHFILTER	IQUANT	2	Ich Filter
VCHRANGE	IQUANT	2	Vch Range
VCHRANGEMODE	TOGGLE	F	Vch Auto Range
VCHOFFSETENABLE	TOGGLE	F	Vch Offset Enable
VCHOFFSET	QUANT	0	Vch Offset (V)
VCHFILTER	IQUANT	2	Vch Filter
ACHRANGE	IQUANT	2	Ach Range
ACHOFFSETENABLE	TOGGLE	F	Ach Offset Enable
ACHOFFSET	QUANT	0	Ach Offset (V)
ACHFILTER	IQUANT	1	Ach Filter
IERANGELOWERLIMIT	IQUANT	1	I/E Range Lower Limit
IERANGEMODE	TOGGLE	T	I/E AutoRange
IERANGE	IQUANT	4	I/E Range
POSFEEDENABLE	TOGGLE	F	Positive Feedback IR Comp
POSFEEDRESISTANCE	QUANT	0	Positive Feedback Resistance (ohm)
ACHSELECT	IQUANT	4	Ach Select
SENSECABLEID	IQUANT	7	Sense Cable ID
PWRCABLEID	IQUANT	7	Power Cable ID
DCCALDATE	LABEL	3/22/2024	DC Calibration Date
ACCALDATE	LABEL	3/22/2024	AC Calibration Date
THERMOSELECT	IQUANT	1	Thermo Select
FRAMEWORKVERSION	LABEL	7.8.4	Framework Version
INSTRUMENTVERSION	LABEL	4.42	Instrument Version
CURVE1	TABLE
	Pt	T	Vf	Im	Vu	Sig	Ach	IERange	Over	Temp
	#	s	V vs. Ref.	A	V	V	V	#	bits	deg C
	0	0.2	-1.40150E-001	8.68979E-010	0.00000E+000	-1.40200E-001	9.61592E-004	5	..........a	-327.66
	1	0.4	-1.30084E-001	5.28573E-009	0.00000E+000	-1.30200E-001	9.51492E-004	5	..........a	-327.66
	2	0.6	-1.20188E-001	8.10279E-009	0.00000E+000	-1.20200E-001	9.62492E-004	5	..........a	-327.66
	3	0.8	-1.10220E-001	1.02377E-008	0.00000E+000	-1.10200E-001	9.56192E-004	5	..........a	-327.66
	4	1	-1.00153E-001	1.21515E-008	0.00000E+000	-1.00200E-001	9.57692E-004	5	..........a	-327.66
	5	1.2	-9.01277E-002	1.38061E-008	0.00000E+000	-9.02000E-002	9.54892E-004	5	..........a	-327.66
	6	1.4	-8.01496E-002	1.52984E-008	0.00000E+000	-8.02000E-002	9.58392E-004	5	..........a	-327.66
	7	1.6	-7.01770E-002	1.67303E-008	0.00000E+000	-7.02000E-002	9.67892E-004	5	..........a	-327.66
	8	1.8	-6.01788E-002	1.80767E-008	0.00000E+000	-6.02000E-002	9.47192E-004	5	..........a	-327.66
	9	2	-5.00935E-002	1.93930E-008	0.00000E+000	-5.02000E-002	9.55992E-004	5	..........a	-327.66
	10	2.2	-4.01940E-002	2.06593E-008	0.00000E+000	-4.02000E-002	9.43192E-004	5	..........a	-327.66
	11	2.4	-3.01795E-002	2.19450E-008	0.00000E+000	-3.02000E-002	9.51392E-004	5	..........a	-327.66
	12	2.6	-2.01783E-002	2.32257E-008	0.00000E+000	-2.02000E-002	9.59792E-004	5	..........a	-327.66
	13	2.8	-1.00533E-002	2.45313E-008	0.00000E+000	-1.02000E-002	9.68792E-004	5	..........a	-327.66
	14	3	-1.85758E-004	2.58310E-008	0.00000E+000	-1.99996E-004	9.59692E-004	5	..........a	-327.66
	15	3.2	9.87524E-003	2.72423E-008	0.00000E+000	9.80000E-003	9.46192E-004	5	..........a	-327.66
	16	3.4	1.98350E-002	2.86289E-008	0.00000E+000	1.98000E-002	9.66292E-004	5	..........a	-327.66
	17	3.6	2.99332E-002	3.01460E-008	0.00000E+000	2.98000E-002	9.63292E-004	5	..........a	-327.66
	18	3.8	3.98534E-002	3.16242E-008	0.00000E+000	3.98000E-002	9.67592E-004	5	..........a	-327.66
	19	4	4.98014E-002	3.32184E-008	0.00000E+000	4.98000E-002	9.60592E-004	5	..........a	-327.66
	20	4.2	5.98353E-002	3.48838E-008	0.00000E+000	5.98000E-002	9.53492E-004	5	..........a	-327.66
	21	4.4	6.99455E-002	3.66548E-008	0.00000E+000	6.98000E-002	9.64392E-004	5	..........a	-327.66
	22	4.6	7.98095E-002	3.85339E-008	0.00000E+000	7.98000E-002	9.64092E-004	5	..........a	-327.66
	23	4.8	8.98568E-002	4.05531E-008	0.00000E+000	8.98000E-002	9.64592E-004	5	..........a	-327.66
	24	5	9.98470E-002	4.27486E-008	0.00000E+000	9.98000E-002	9.54292E-004	5	..........a	-327.66
	25	5.2	1.09919E-001	4.50731E-008	0.00000E+000	1.09800E-001	9.56292E-004	5	..........a	-327.66
	26	5.4	1.19845E-001	4.75359E-008	0.00000E+000	1.19800E-001	9.58992E-004	5	..........a	-327.66
	27	5.6	1.29822E-001	5.01759E-008	0.00000E+000	1.29800E-001	9.50592E-004	5	..........a	-327.66
	28	5.8	1.39841E-001	5.29723E-008	0.00000E+000	1.39800E-001	9.43292E-004	5	..........a	-327.66
	29	6	1.49947E-001	5.59085E-008	0.00000E+000	1.49800E-001	9.57892E-004	5	..........a	-327.66
	30	6.2	1.59818E-001	5.90301E-008	0.00000E+000	1.59800E-001	9.52792E-004	5	..........a	-327.66
	31	6.4	1.69856E-001	6.22974E-008	0.00000E+000	1.69800E-001	9.64292E-004	5	..........a	-327.66
	32	6.6	1.79811E-001	6.56707E-008	0.00000E+000	1.79800E-001	9.53492E-004	5	..........a	-327.66
	33	6.8	1.89879E-001	6.91671E-008	0.00000E+000	1.89800E-001	9.49592E-004	5	..........a	-327.66
	34	7	1.99831E-001	7.28064E-008	0.00000E+000	1.99800E-001	9.53892E-004	5	..........a	-327.66
	35	7.2	2.09788E-001	7.65543E-008	0.00000E+000	2.09800E-001	9.49892E-004	5	..........a	-327.66
	36	7.4	2.19793E-001	8.03445E-008	0.00000E+000	2.19800E-001	9.46992E-004	5	..........a	-327.66
	37	7.6	2.29866E-001	8.42366E-008	0.00000E+000	2.29800E-001	9.68992E-004	5	..........a	-327.66
	38	7.8	2.39794E-001	8.81260E-008	0.00000E+000	2.39800E-001	9.48292E-004	5	..........a	-327.66
	39	8	2.49749E-001	9.20347E-008	0.00000E+000	2.49800E-001	9.51592E-004	5	..........a	-327.66
	40	8.2	2.59775E-001	9.59958E-008	0.00000E+000	2.59800E-001	9.37192E-004	5	..........a	-327.66
	41	8.4	2.69893E-001	9.98959E-008	0.00000E+000	2.69800E-001	9.59892E-004	5	..........a	-327.66
	42	8.6	2.79759E-001	1.03797E-007	0.00000E+000	2.79800E-001	9.62892E-004	5	..........a	-327.66
	43	8.8	2.89769E-001	1.07708E-007	0.00000E+000	2.89800E-001	9.49692E-004	5	..........a	-327.66
	44	9	2.99762E-001	1.11840E-007	0.00000E+000	2.99800E-001	9.53692E-004	5	..........a	-327.66
	45	9.2	3.09872E-001	1.15968E-007	0.00000E+000	3.09800E-001	9.65792E-004	5	..........a	-327.66
	46	9.4	3.19778E-001	1.20013E-007	0.00000E+000	3.19800E-001	9.49192E-004	5	..........a	-327.66
	47	9.6	3.29762E-001	1.24028E-007	0.00000E+000	3.29800E-001	9.71992E-004	5	..........a	-327.66
	48	9.8	3.39782E-001	1.27978E-007	0.00000E+000	3.39800E-001	9.49192E-004	5	..........a	-327.66
	49	10	3.49885E-001	1.31890E-007	0.00000E+000	3.49800E-001	9.53592E-004	5	..........a	-327.66
	50	10.2	3.59751E-001	1.35943E-007	0.00000E+000	3.59800E-001	9.57992E-004	5	..........a	-327.66
	51	10.4	3.69769E-001	1.39890E-007	0.00000E+000	3.69800E-001	9.52792E-004	5	..........a	-327.66
	52	10.6	3.79769E-001	1.44024E-007	0.00000E+000	3.79800E-001	9.50892E-004	5	..........a	-327.66
	53	10.8	3.89815E-001	1.48054E-007	0.00000E+000	3.89800E-001	9.42592E-004	5	..........a	-327.66
	54	11	3.99739E-001	1.52195E-007	0.00000E+000	3.99800E-001	9.56892E-004	5	..........a	-327.66
	55	11.2	4.09697E-001	1.56221E-007	0.00000E+000	4.09800E-001	9.65392E-004	5	..........a	-327.66
	56	11.4	4.19753E-001	1.60315E-007	0.00000E+000	4.19800E-001	9.69492E-004	5	..........a	-327.66
	57	11.6	4.29816E-001	1.64355E-007	0.00000E+000	4.29800E-001	9.52992E-004	5	..........a	-327.66
	58	11.8	4.39687E-001	1.68531E-007	0.00000E+000	4.39800E-001	9.62492E-004	5	..........a	-327.66
	59	12	4.49745E-001	1.72608E-007	0.00000E+000	4.49800E-001	9.59092E-004	5	..........a	-327.66
	60	12.2	4.59675E-001	1.76666E-007	0.00000E+000	4.59800E-001	9.64692E-004	5	..........a	-327.66
	61	12.4	4.69758E-001	1.80617E-007	0.00000E+000	4.69800E-001	9.51292E-004	5	..........a	-327.66
	62	12.6	4.79660E-001	1.84446E-007	0.00000E+000	4.79800E-001	9.58992E-004	5	..........a	-327.66
	63	12.8	4.89640E-001	1.88254E-007	0.00000E+000	4.89800E-001	9.64892E-004	5	..........a	-327.66
	64	13	4.99715E-001	1.91969E-007	0.00000E+000	4.99800E-001	9.51092E-004	5	..........a	-327.66
	65	13.2	5.09762E-001	1.95755E-007	0.00000E+000	5.09800E-001	9.52792E-004	5	..........a	-327.66
	66	13.4	5.19719E-001	1.99660E-007	0.00000E+000	5.19800E-001	9.60992E-004	5	..........a	-327.66
	67	13.6	5.29657E-001	2.03620E-007	0.00000E+000	5.29800E-001	9.62392E-004	5	..........a	-327.66
	68	13.8	5.39670E-001	2.07941E-007	0.00000E+000	5.39800E-001	9.68892E-004	5	..........a	-327.66
	69	14	5.49727E-001	2.12305E-007	0.00000E+000	5.49800E-001	9.54192E-004	5	..........a	-327.66
	70	14.2	5.59678E-001	2.16818E-007	0.00000E+000	5.59800E-001	9.61492E-004	5	..........a	-327.66
	71	14.4	5.69672E-001	2.21383E-007	0.00000E+000	5.69800E-001	9.55092E-004	5	..........a	-327.66
	72	14.6	5.79697E-001	2.26035E-007	0.00000E+000	5.79800E-001	9.56692E-004	5	..........a	-327.66
	73	14.8	5.89711E-001	2.32129E-007	0.00000E+000	5.89800E-001	9.40492E-004	5	..........a	-327.66
	74	15	5.99712E-001	2.37186E-007	0.00000E+000	5.99800E-001	9.51092E-004	5	..........a	-327.66
	75	15.2	6.09669E-001	2.42141E-007	0.00000E+000	6.09800E-001	9.51292E-004	5	..........a	-327.66
	76	15.4	6.19605E-001	2.48464E-007	0.00000E+000	6.19800E-001	9.52092E-004	5	..........a	-327.66
	77	15.6	6.29622E-001	2.52346E-007	0.00000E+000	6.29800E-001	9.50292E-004	5	..........a	-327.66
	78	15.8	6.39594E-001	2.57591E-007	0.00000E+000	6.39800E-001	9.55292E-004	5	..........a	-327.66
	79	16	6.49624E-001	2.63623E-007	0.00000E+000	6.49800E-001	9.65492E-004	5	..........a	-327.66
	80	16.2	6.59584E-001	2.69763E-007	0.00000E+000	6.59800E-001	9.58992E-004	5	..........a	-327.66
	81	16.4	6.69627E-001	2.76042E-007	0.00000E+000	6.69800E-001	9.45092E-004	5	..........a	-327.66
	82	16.6	6.79681E-001	2.82483E-007	0.00000E+000	6.79800E-001	9.56292E-004	5	..........a	-327.66
	83	16.8	6.89554E-001	2.89204E-007	0.00000E+000	6.89800E-001	9.56792E-004	5	..........a	-327.66
	84	17	6.99603E-001	2.96114E-007	0.00000E+000	6.99800E-001	9.49992E-004	5	..........a	-327.66
	85	17.2	7.09606E-001	3.03265E-007	0.00000E+000	7.09800E-001	9.46992E-004	5	..........a	-327.66
	86	17.4	7.19610E-001	3.10790E-007	0.00000E+000	7.19800E-001	9.63692E-004	5	..........a	-327.66
	87	17.6	7.29601E-001	3.18642E-007	0.00000E+000	7.29800E-001	9.49792E-004	5	..........a	-327.66
	88	17.8	7.39567E-001	3.27013E-007	0.00000E+000	7.39800E-001	9.56892E-004	5	..........a	-327.66
	89	18	7.49608E-001	3.35908E-007	0.00000E+000	7.49800E-001	9.37792E-004	5	..........a	-327.66
	90	18.2	7.59590E-001	3.45298E-007	0.00000E+000	7.59800E-001	9.57992E-004	5	..........a	-327.66
	91	18.4	7.69544E-001	3.55200E-007	0.00000E+000	7.69800E-001	9.51692E-004	5	..........a	-327.66
	92	18.6	7.79582E-001	3.65692E-007	0.00000E+000	7.79800E-001	9.50192E-004	5	..........a	-327.66
	93	18.8	7.89564E-001	3.76901E-007	0.00000E+000	7.89800E-001	9.49992E-004	5	..........a	-327.66
	94	19	7.99597E-001	3.88653E-007	0.00000E+000	7.99800E-001	9.51992E-004	5	..........a	-327.66
	95	19.2	7.89586E-001	3.29633E-007	0.00000E+000	7.89800E-001	9.52892E-004	5	..........a	-327.66
	96	19.4	7.79548E-001	2.89241E-007	0.00000E+000	7.79800E-001	9.45492E-004	5	..........a	-327.66
	97	19.6	7.69571E-001	2.59276E-007	0.00000E+000	7.69800E-001	9.55592E-004	5	..........a	-327.66
	98	19.8	7.59629E-001	2.37929E-007	0.00000E+000	7.59800E-001	9.61892E-004	5	..........a	-327.66
	99	20	7.49714E-001	2.16106E-007	0.00000E+000	7.49800E-001	9.43092E-004	5	..........a	-327.66
	100	20.2	7.39656E-001	2.02020E-007	0.00000E+000	7.39800E-001	9.60392E-004	5	..........a	-327.66
	101	20.4	7.29675E-001	1.84714E-007	0.00000E+000	7.29800E-001	9.47692E-004	5	..........a	-327.66
	102	20.6	7.19670E-001	1.70432E-007	0.00000E+000	7.19800E-001	9.65392E-004	5	..........a	-327.66
	103	20.8	7.09755E-001	1.57668E-007	0.00000E+000	7.09800E-001	9.53092E-004	5	..........a	-327.66
	104	21	6.99680E-001	1.46906E-007	0.00000E+000	6.99800E-001	9.62492E-004	5	..........a	-327.66
	105	21.2	6.89658E-001	1.37303E-007	0.00000E+000	6.89800E-001	9.69392E-004	5	..........a	-327.66
	106	21.4	6.79748E-001	1.27778E-007	0.00000E+000	6.79800E-001	9.47592E-004	5	..........a	-327.66
	107	21.6	6.69737E-001	1.20128E-007	0.00000E+000	6.69800E-001	9.43692E-004	5	..........a	-327.66
	108	21.8	6.59699E-001	1.12835E-007	0.00000E+000	6.59800E-001	9.53492E-004	5	..........a	-327.66
	109	22	6.49695E-001	1.09706E-007	0.00000E+000	6.49800E-001	9.58392E-004	5	..........a	-327.66
	110	22.2	6.39669E-001	1.03465E-007	0.00000E+000	6.39800E-001	9.59992E-004	5	..........a	-327.66
	111	22.4	6.29780E-001	9.66127E-008	0.00000E+000	6.29800E-001	9.48092E-004	5	..........a	-327.66
	112	22.6	6.19703E-001	9.07500E-008	0.00000E+000	6.19800E-001	9.53892E-004	5	..........a	-327.66
	113	22.8	6.09742E-001	8.82005E-008	0.00000E+000	6.09800E-001	9.59792E-004	5	..........a	-327.66
	114	23	5.99763E-001	8.42916E-008	0.00000E+000	5.99800E-001	9.47392E-004	5	..........a	-327.66
	115	23.2	5.89811E-001	8.68969E-008	0.00000E+000	5.89800E-001	9.48292E-004	5	..........a	-327.66
	116	23.4	5.79757E-001	8.16469E-008	0.00000E+000	5.79800E-001	9.36592E-004	5	..........a	-327.66
	117	23.6	5.69726E-001	9.81786E-008	0.00000E+000	5.69800E-001	9.59092E-004	5	..........a	-327.66
	118	23.8	5.59745E-001	1.03865E-007	0.00000E+000	5.59800E-001	9.54692E-004	5	..........a	-327.66
	119	24	5.49786E-001	9.94615E-008	0.00000E+000	5.49800E-001	9.47592E-004	5	..........a	-327.66
	120	24.2	5.39759E-001	8.31671E-008	0.00000E+000	5.39800E-001	9.46492E-004	5	..........a	-327.66
	121	24.4	5.29766E-001	7.63380E-008	0.00000E+000	5.29800E-001	9.65792E-004	5	..........a	-327.66
	122	24.6	5.19771E-001	7.15279E-008	0.00000E+000	5.19800E-001	9.46792E-004	5	..........a	-327.66
	123	24.8	5.09849E-001	6.55882E-008	0.00000E+000	5.09800E-001	9.49892E-004	5	..........a	-327.66
	124	25	4.99767E-001	5.97910E-008	0.00000E+000	4.99800E-001	9.46492E-004	5	..........a	-327.66
	125	25.2	4.89716E-001	5.47492E-008	0.00000E+000	4.89800E-001	9.53692E-004	5	..........a	-327.66
	126	25.4	4.79741E-001	5.11922E-008	0.00000E+000	4.79800E-001	9.68092E-004	5	..........a	-327.66
	127	25.6	4.69832E-001	4.82536E-008	0.00000E+000	4.69800E-001	9.51992E-004	5	..........a	-327.66
	128	25.8	4.59781E-001	4.56581E-008	0.00000E+000	4.59800E-001	9.56792E-004	5	..........a	-327.66
	129	26	4.49717E-001	4.28295E-008	0.00000E+000	4.49800E-001	9.58092E-004	5	..........a	-327.66
	130	26.2	4.39767E-001	3.99272E-008	0.00000E+000	4.39800E-001	9.49792E-004	5	..........a	-327.66
	131	26.4	4.29903E-001	3.70754E-008	0.00000E+000	4.29800E-001	9.54792E-004	5	..........a	-327.66
	132	26.6	4.19793E-001	3.34598E-008	0.00000E+000	4.19800E-001	9.41092E-004	5	..........a	-327.66
	133	26.8	4.09799E-001	3.07547E-008	0.00000E+000	4.09800E-001	9.53792E-004	5	..........a	-327.66
	134	27	3.99818E-001	2.76851E-008	0.00000E+000	3.99800E-001	9.44492E-004	5	..........a	-327.66
	135	27.2	3.89886E-001	2.49714E-008	0.00000E+000	3.89800E-001	9.54892E-004	5	..........a	-327.66
	136	27.4	3.79830E-001	2.19715E-008	0.00000E+000	3.79800E-001	9.53792E-004	5	..........a	-327.66
	137	27.6	3.69809E-001	1.86295E-008	0.00000E+000	3.69800E-001	9.55592E-004	5	..........a	-327.66
	138	27.8	3.59821E-001	1.65192E-008	0.00000E+000	3.59800E-001	9.46892E-004	5	..........a	-327.66
	139	28	3.49931E-001	1.42966E-008	0.00000E+000	3.49800E-001	9.55592E-004	5	..........a	-327.66
	140	28.2	3.39825E-001	1.20355E-008	0.00000E+000	3.39800E-001	9.35192E-004	5	..........a	-327.66
	141	28.4	3.29806E-001	9.71403E-009	0.00000E+000	3.29800E-001	9.60092E-004	5	..........a	-327.66
	142	28.6	3.19815E-001	7.44779E-009	0.00000E+000	3.19800E-001	9.47192E-004	5	..........a	-327.66
	143	28.8	3.09924E-001	4.89076E-009	0.00000E+000	3.09800E-001	9.54092E-004	5	..........a	-327.66
	144	29	2.99811E-001	2.23013E-009	0.00000E+000	2.99800E-001	9.53992E-004	5	..........a	-327.66
	145	29.2	2.89807E-001	-3.16805E-010	0.00000E+000	2.89800E-001	9.54492E-004	5	..........a	-327.66
	146	29.4	2.79813E-001	-2.57718E-009	0.00000E+000	2.79800E-001	9.55692E-004	5	..........a	-327.66
	147	29.6	2.69904E-001	-4.92744E-009	0.00000E+000	2.69800E-001	9.44192E-004	5	..........a	-327.66
	148	29.8	2.59822E-001	-7.18963E-009	0.00000E+000	2.59800E-001	9.48992E-004	5	..........a	-327.66
	149	30	2.49838E-001	-9.44981E-009	0.00000E+000	2.49800E-001	9.64992E-004	5	..........a	-327.66
	150	30.2	2.39831E-001	-1.19175E-008	0.00000E+000	2.39800E-001	9.61192E-004	5	..........a	-327.66
	151	30.4	2.29925E-001	-1.30600E-008	0.00000E+000	2.29800E-001	9.41892E-004	5	..........a	-327.66
	152	30.6	2.19801E-001	-1.50521E-008	0.00000E+000	2.19800E-001	9.51092E-004	5	..........a	-327.66
	153	30.8	2.09808E-001	-1.79847E-008	0.00000E+000	2.09800E-001	9.65992E-004	5	..........a	-327.66
	154	31	1.99858E-001	-2.03000E-008	0.00000E+000	1.99800E-001	9.52592E-004	5	..........a	-327.66
	155	31.2	1.89912E-001	-2.14718E-008	0.00000E+000	1.89800E-001	9.46892E-004	5	..........a	-327.66
	156	31.4	1.79865E-001	-2.28263E-008	0.00000E+000	1.79800E-001	9.55592E-004	5	..........a	-327.66
	157	31.6	1.69909E-001	-2.41413E-008	0.00000E+000	1.69800E-001	9.54292E-004	5	..........a	-327.66
	158	31.8	1.59859E-001	-2.57658E-008	0.00000E+000	1.59800E-001	9.60992E-004	5	..........a	-327.66
	159	32	1.49960E-001	-2.72344E-008	0.00000E+000	1.49800E-001	9.71692E-004	5	..........a	-327.66
	160	32.2	1.39873E-001	-2.84224E-008	0.00000E+000	1.39800E-001	9.54892E-004	5	..........a	-327.66
	161	32.4	1.29863E-001	-2.81916E-008	0.00000E+000	1.29800E-001	9.62592E-004	5	..........a	-327.66
	162	32.6	1.19891E-001	-2.91616E-008	0.00000E+000	1.19800E-001	9.67592E-004	5	..........a	-327.66
	163	32.8	1.09954E-001	-3.08279E-008	0.00000E+000	1.09800E-001	9.64692E-004	5	..........a	-327.66
	164	33	9.98976E-002	-3.24865E-008	0.00000E+000	9.98000E-002	9.60992E-004	5	..........a	-327.66
	165	33.2	8.99265E-002	-3.43807E-008	0.00000E+000	8.98000E-002	9.60792E-004	5	..........a	-327.66
	166	33.4	7.98798E-002	-3.60353E-008	0.00000E+000	7.98000E-002	9.55992E-004	5	..........a	-327.66
	167	33.6	6.99407E-002	-3.77284E-008	0.00000E+000	6.98000E-002	9.62192E-004	5	..........a	-327.66
	168	33.8	5.98767E-002	-3.92655E-008	0.00000E+000	5.98000E-002	9.46492E-004	5	..........a	-327.66
	169	34	4.98806E-002	-4.08816E-008	0.00000E+000	4.98000E-002	9.62792E-004	5	..........a	-327.66
	170	34.2	3.98983E-002	-4.24710E-008	0.00000E+000	3.98000E-002	9.45992E-004	5	..........a	-327.66
	171	34.4	2.99484E-002	-4.40355E-008	0.00000E+000	2.98000E-002	9.58392E-004	5	..........a	-327.66
	172	34.6	1.98896E-002	-4.55210E-008	0.00000E+000	1.98000E-002	9.63792E-004	5	..........a	-327.66
	173	34.8	9.90939E-003	-4.71517E-008	0.00000E+000	9.80000E-003	9.50092E-004	5	..........a	-327.66
	174	35	-1.28308E-004	-4.96180E-008	0.00000E+000	-1.99996E-004	9.49092E-004	5	..........a	-327.66
	175	35.2	-1.00462E-002	-5.05111E-008	0.00000E+000	-1.02000E-002	9.54692E-004	5	..........a	-327.66
	176	35.4	-2.01415E-002	-5.12796E-008	0.00000E+000	-2.02000E-002	9.51392E-004	5	..........a	-327.66
	177	35.6	-3.01040E-002	-5.24609E-008	0.00000E+000	-3.02000E-002	9.58592E-004	5	..........a	-327.66
	178	35.8	-4.01501E-002	-5.34951E-008	0.00000E+000	-4.02000E-002	9.43992E-004	5	..........a	-327.66
	179	36	-5.00694E-002	-5.44797E-008	0.00000E+000	-5.02000E-002	9.50092E-004	5	..........a	-327.66
	180	36.2	-6.01351E-002	-5.57741E-008	0.00000E+000	-6.02000E-002	9.48092E-004	5	..........a	-327.66
	181	36.4	-7.01083E-002	-5.67709E-008	0.00000E+000	-7.02000E-002	9.54192E-004	5	..........a	-327.66
	182	36.6	-8.01378E-002	-5.77787E-008	0.00000E+000	-8.02000E-002	9.61692E-004	5	..........a	-327.66
	183	36.8	-9.01036E-002	-5.89431E-008	0.00000E+000	-9.02000E-002	9.51692E-004	5	..........a	-327.66
	184	37	-1.00133E-001	-6.00131E-008	0.00000E+000	-1.00200E-001	9.63792E-004	5	..........a	-327.66
	185	37.2	-1.10109E-001	-6.12351E-008	0.00000E+000	-1.10200E-001	9.53792E-004	5	..........a	-327.66
	186	37.4	-1.20148E-001	-6.24531E-008	0.00000E+000	-1.20200E-001	9.70792E-004	5	..........a	-327.66
	187	37.6	-1.30058E-001	-6.36493E-008	0.00000E+000	-1.30200E-001	9.50392E-004	5	..........a	-327.66
	188	37.8	-1.40122E-001	-6.49377E-008	0.00000E+000	-1.40200E-001	9.56992E-004	5	..........a	-327.66
	189	38	-1.50136E-001	-6.62947E-008	0.00000E+000	-1.50200E-001	9.40992E-004	5	..........a	-327.66
	190	38.2	-1.60122E-001	-6.76439E-008	0.00000E+000	-1.60200E-001	9.64092E-004	5	..........a	-327.66
	191	38.4	-1.70074E-001	-6.91813E-008	0.00000E+000	-1.70200E-001	9.56892E-004	5	..........a	-327.66
	192	38.6	-1.80138E-001	-7.07385E-008	0.00000E+000	-1.80200E-001	9.62792E-004	5	..........a	-327.66
	193	38.8	-1.90132E-001	-7.21060E-008	0.00000E+000	-1.90200E-001	9.61392E-004	5	..........a	-327.66
	194	39	-2.00138E-001	-7.36080E-008	0.00000E+000	-2.00200E-001	9.53692E-004	5	..........a	-327.66
	195	39.2	-2.10016E-001	-7.51814E-008	0.00000E+000	-2.10200E-001	9.56992E-004	5	..........a	-327.66
	196	39.4	-2.20093E-001	-7.67441E-008	0.00000E+000	-2.20200E-001	9.41992E-004	5	..........a	-327.66
	197	39.6	-2.30122E-001	-7.84106E-008	0.00000E+000	-2.30200E-001	9.56092E-004	5	..........a	-327.66
	198	39.8	-2.40091E-001	-7.99205E-008	0.00000E+000	-2.40200E-001	9.61692E-004	5	..........a	-327.66
	199	40	-2.50040E-001	-8.16700E-008	0.00000E+000	-2.50200E-001	9.52092E-004	5	..........a	-327.66
	200	40.2	-2.60082E-001	-8.33451E-008	0.00000E+000	-2.60200E-001	9.60292E-004	5	..........a	-327.66
	201	40.4	-2.70047E-001	-8.47829E-008	0.00000E+000	-2.70200E-001	9.64692E-004	5	..........a	-327.66
	202	40.6	-2.80076E-001	-8.63595E-008	0.00000E+000	-2.80200E-001	9.54492E-004	5	..........a	-327.66
	203	40.8	-2.89999E-001	-8.80368E-008	0.00000E+000	-2.90200E-001	9.59192E-004	5	..........a	-327.66
	204	41	-3.00090E-001	-8.95784E-008	0.00000E+000	-3.00200E-001	9.55392E-004	5	..........a	-327.66
	205	41.2	-3.10046E-001	-9.10955E-008	0.00000E+000	-3.10200E-001	9.55392E-004	5	..........a	-327.66
	206	41.4	-3.20095E-001	-9.27848E-008	0.00000E+000	-3.20200E-001	9.49492E-004	5	..........a	-327.66
	207	41.6	-3.30028E-001	-9.42614E-008	0.00000E+000	-3.30200E-001	9.70392E-004	5	..........a	-327.66
	208	41.8	-3.40068E-001	-9.59292E-008	0.00000E+000	-3.40200E-001	9.52592E-004	5	..........a	-327.66
	209	42	-3.50053E-001	-9.73917E-008	0.00000E+000	-3.50200E-001	9.57992E-004	5	..........a	-327.66
	210	42.2	-3.60086E-001	-9.90204E-008	0.00000E+000	-3.60200E-001	9.58192E-004	5	..........a	-327.66
	211	42.4	-3.69995E-001	-1.00655E-007	0.00000E+000	-3.70200E-001	9.57892E-004	5	..........a	-327.66
	212	42.6	-3.80061E-001	-1.01943E-007	0.00000E+000	-3.80200E-001	9.45692E-004	5	..........a	-327.66
	213	42.8	-3.90088E-001	-1.03333E-007	0.00000E+000	-3.90200E-001	9.64892E-004	5	..........a	-327.66
	214	43	-4.00063E-001	-1.04759E-007	0.00000E+000	-4.00200E-001	9.53792E-004	5	..........a	-327.66
	215	43.2	-4.09983E-001	-1.06200E-007	0.00000E+000	-4.10200E-001	9.63792E-004	5	..........a	-327.66
	216	43.4	-4.20050E-001	-1.07609E-007	0.00000E+000	-4.20200E-001	9.47392E-004	5	..........a	-327.66
	217	43.6	-4.30041E-001	-1.08935E-007	0.00000E+000	-4.30200E-001	9.69892E-004	5	..........a	-327.66
	218	43.8	-4.40059E-001	-1.10489E-007	0.00000E+000	-4.40200E-001	9.57892E-004	5	..........a	-327.66
	219	44	-4.49988E-001	-1.11944E-007	0.00000E+000	-4.50200E-001	9.56092E-004	5	..........a	-327.66
	220	44.2	-4.60056E-001	-1.13493E-007	0.00000E+000	-4.60200E-001	9.47492E-004	5	..........a	-327.66
	221	44.4	-4.70015E-001	-1.15085E-007	0.00000E+000	-4.70200E-001	9.57292E-004	5	..........a	-327.66
	222	44.6	-4.80021E-001	-1.16685E-007	0.00000E+000	-4.80200E-001	9.58492E-004	5	..........a	-327.66
	223	44.8	-4.89979E-001	-1.18090E-007	0.00000E+000	-4.90200E-001	9.66692E-004	5	..........a	-327.66
	224	45	-5.00006E-001	-1.19650E-007	0.00000E+000	-5.00200E-001	9.51292E-004	5	..........a	-327.66
	225	45.2	-5.10035E-001	-1.21448E-007	0.00000E+000	-5.10200E-001	9.61392E-004	5	..........a	-327.66
	226	45.4	-5.20046E-001	-1.23147E-007	0.00000E+000	-5.20200E-001	9.57192E-004	5	..........a	-327.66
	227	45.6	-5.29987E-001	-1.24869E-007	0.00000E+000	-5.30200E-001	9.67692E-004	5	..........a	-327.66
	228	45.8	-5.40034E-001	-1.26762E-007	0.00000E+000	-5.40200E-001	9.51592E-004	5	..........a	-327.66
	229	46	-5.49963E-001	-1.28577E-007	0.00000E+000	-5.50200E-001	9.48392E-004	5	..........a	-327.66
	230	46.2	-5.60055E-001	-1.30339E-007	0.00000E+000	-5.60200E-001	9.57992E-004	5	..........a	-327.66
	231	46.4	-5.69979E-001	-1.32433E-007	0.00000E+000	-5.70200E-001	9.71092E-004	5	..........a	-327.66
	232	46.6	-5.80011E-001	-1.34713E-007	0.00000E+000	-5.80200E-001	9.52292E-004	5	..........a	-327.66
	233	46.8	-5.90029E-001	-1.37288E-007	0.00000E+000	-5.90200E-001	9.53192E-004	5	..........a	-327.66
	234	47	-6.00044E-001	-1.39484E-007	0.00000E+000	-6.00200E-001	9.58892E-004	5	..........a	-327.66
CURVE2	TABLE
	Pt	T	Vf	Im	Vu	Sig	Ach	IERange	Over	Temp
	#	s	V vs. Ref.	A	V	V	V	#	bits	deg C
	235	47.2	-5.89831E-001	-1.19599E-007	0.00000E+000	-5.90000E-001	9.62592E-004	5	..........a	-327.66
	236	47.4	-5.79785E-001	-1.06329E-007	0.00000E+000	-5.80000E-001	9.43792E-004	5	..........a	-327.66
	237	47.6	-5.69832E-001	-9.66378E-008	0.00000E+000	-5.70000E-001	9.45892E-004	5	..........a	-327.66
	238	47.8	-5.59839E-001	-8.79702E-008	0.00000E+000	-5.60000E-001	9.49492E-004	5	..........a	-327.66
	239	48	-5.49844E-001	-8.06789E-008	0.00000E+000	-5.50000E-001	9.56392E-004	5	..........a	-327.66
	240	48.2	-5.39758E-001	-7.40385E-008	0.00000E+000	-5.40000E-001	9.43292E-004	5	..........a	-327.66
	241	48.4	-5.29848E-001	-6.84916E-008	0.00000E+000	-5.30000E-001	9.58192E-004	5	..........a	-327.66
	242	48.6	-5.19865E-001	-6.34106E-008	0.00000E+000	-5.20000E-001	9.49792E-004	5	..........a	-327.66
	243	48.8	-5.09854E-001	-5.83804E-008	0.00000E+000	-5.10000E-001	9.49292E-004	5	..........a	-327.66
	244	49	-4.99819E-001	-5.39529E-008	0.00000E+000	-5.00000E-001	9.52692E-004	5	..........a	-327.66
	245	49.2	-4.89836E-001	-4.98196E-008	0.00000E+000	-4.90000E-001	9.56492E-004	5	..........a	-327.66
	246	49.4	-4.79809E-001	-4.58046E-008	0.00000E+000	-4.80000E-001	9.49792E-004	5	..........a	-327.66
	247	49.6	-4.69839E-001	-4.18782E-008	0.00000E+000	-4.70000E-001	9.56892E-004	5	..........a	-327.66
	248	49.8	-4.59811E-001	-3.85003E-008	0.00000E+000	-4.60000E-001	9.51392E-004	5	..........a	-327.66
	249	50	-4.49841E-001	-3.51497E-008	0.00000E+000	-4.50000E-001	9.60992E-004	5	..........a	-327.66
	250	50.2	-4.39842E-001	-3.19812E-008	0.00000E+000	-4.40000E-001	9.62492E-004	5	..........a	-327.66
	251	50.4	-4.29848E-001	-2.89897E-008	0.00000E+000	-4.30000E-001	9.48692E-004	5	..........a	-327.66
	252	50.6	-4.19811E-001	-2.60867E-008	0.00000E+000	-4.20000E-001	9.52392E-004	5	..........a	-327.66
	253	50.8	-4.09881E-001	-2.33283E-008	0.00000E+000	-4.10000E-001	9.58792E-004	5	..........a	-327.66
	254	51	-3.99874E-001	-2.08030E-008	0.00000E+000	-4.00000E-001	9.44892E-004	5	..........a	-327.66
	255	51.2	-3.89911E-001	-1.82884E-008	0.00000E+000	-3.90000E-001	9.62492E-004	5	..........a	-327.66
	256	51.4	-3.79850E-001	-1.58733E-008	0.00000E+000	-3.80000E-001	9.40792E-004	5	..........a	-327.66
	257	51.6	-3.69856E-001	-1.34912E-008	0.00000E+000	-3.70000E-001	9.49592E-004	5	..........a	-327.66
	258	51.8	-3.59892E-001	-1.12816E-008	0.00000E+000	-3.60000E-001	9.47292E-004	5	..........a	-327.66
	259	52	-3.49872E-001	-9.05763E-009	0.00000E+000	-3.50000E-001	9.55792E-004	5	..........a	-327.66
	260	52.2	-3.39840E-001	-6.98097E-009	0.00000E+000	-3.40000E-001	9.45492E-004	5	..........a	-327.66
	261	52.4	-3.29874E-001	-4.91324E-009	0.00000E+000	-3.30000E-001	9.51592E-004	5	..........a	-327.66
	262	52.6	-3.19890E-001	-2.97592E-009	0.00000E+000	-3.20000E-001	9.46492E-004	5	..........a	-327.66
	263	52.8	-3.09932E-001	-9.42209E-010	0.00000E+000	-3.10000E-001	9.56692E-004	5	..........a	-327.66
	264	53	-2.99870E-001	9.72233E-010	0.00000E+000	-3.00000E-001	9.48692E-004	5	..........a	-327.66
	265	53.2	-2.89988E-001	2.85589E-009	0.00000E+000	-2.90000E-001	9.51292E-004	5	..........a	-327.66
	266	53.4	-2.79937E-001	4.73091E-009	0.00000E+000	-2.80000E-001	9.38992E-004	5	..........a	-327.66
	267	53.6	-2.69881E-001	6.50762E-009	0.00000E+000	-2.70000E-001	9.51592E-004	5	..........a	-327.66
	268	53.8	-2.59844E-001	8.29470E-009	0.00000E+000	-2.60000E-001	9.43092E-004	5	..........a	-327.66
	269	54	-2.49903E-001	1.00829E-008	0.00000E+000	-2.50000E-001	9.58192E-004	5	..........a	-327.66
	270	54.2	-2.39927E-001	1.19802E-008	0.00000E+000	-2.40000E-001	9.63892E-004	5	..........a	-327.66
	271	54.4	-2.29969E-001	1.39540E-008	0.00000E+000	-2.30000E-001	9.51592E-004	5	..........a	-327.66
	272	54.6	-2.19886E-001	1.60485E-008	0.00000E+000	-2.20000E-001	9.42792E-004	5	..........a	-327.66
	273	54.8	-2.09945E-001	1.82688E-008	0.00000E+000	-2.10000E-001	9.62692E-004	5	..........a	-327.66
	274	55	-1.99980E-001	2.04320E-008	0.00000E+000	-2.00000E-001	9.64492E-004	5	..........a	-327.66
	275	55.2	-1.89970E-001	2.35065E-008	0.00000E+000	-1.90000E-001	9.57192E-004	5	..........a	-327.66
	276	55.4	-1.79946E-001	2.55822E-008	0.00000E+000	-1.80000E-001	9.47492E-004	5	..........a	-327.66
	277	55.6	-1.69924E-001	2.76610E-008	0.00000E+000	-1.70000E-001	9.61392E-004	5	..........a	-327.66
	278	55.8	-1.60013E-001	2.95838E-008	0.00000E+000	-1.60000E-001	9.62592E-004	5	..........a	-327.66
	279	56	-1.49964E-001	3.24733E-008	0.00000E+000	-1.50000E-001	9.58692E-004	5	..........a	-327.66
	280	56.2	-1.39935E-001	3.44972E-008	0.00000E+000	-1.40000E-001	9.48892E-004	5	..........a	-327.66
	281	56.4	-1.29934E-001	3.63466E-008	0.00000E+000	-1.30000E-001	9.66792E-004	5	..........a	-327.66
	282	56.6	-1.19967E-001	3.79626E-008	0.00000E+000	-1.20000E-001	9.49792E-004	5	..........a	-327.66
	283	56.8	-1.09987E-001	3.94797E-008	0.00000E+000	-1.10000E-001	9.57292E-004	5	..........a	-327.66
	284	57	-9.99371E-002	4.08196E-008	0.00000E+000	-1.00000E-001	9.52292E-004	5	..........a	-327.66
	285	57.2	-8.99294E-002	4.27455E-008	0.00000E+000	-9.00000E-002	9.60692E-004	5	..........a	-327.66
	286	57.4	-8.00049E-002	4.44997E-008	0.00000E+000	-8.00000E-002	9.54792E-004	5	..........a	-327.66
	287	57.6	-6.99458E-002	4.61031E-008	0.00000E+000	-7.00000E-002	9.53392E-004	5	..........a	-327.66
	288	57.8	-5.99262E-002	4.76711E-008	0.00000E+000	-6.00000E-002	9.39492E-004	5	..........a	-327.66
	289	58	-4.99499E-002	4.92937E-008	0.00000E+000	-5.00000E-002	9.53392E-004	5	..........a	-327.66
	290	58.2	-3.99436E-002	5.07870E-008	0.00000E+000	-4.00000E-002	9.68592E-004	5	..........a	-327.66
	291	58.4	-2.99743E-002	5.22831E-008	0.00000E+000	-3.00000E-002	9.44392E-004	5	..........a	-327.66
	292	58.6	-1.99714E-002	5.38244E-008	0.00000E+000	-2.00000E-002	9.39792E-004	5	..........a	-327.66
	293	58.8	-9.91016E-003	5.53086E-008	0.00000E+000	-1.00000E-002	9.55292E-004	5	..........a	-327.66
	294	59	-3.55834E-006	5.67042E-008	0.00000E+000	7.45058E-009	9.67992E-004	5	..........a	-327.66
	295	59.2	1.00830E-002	5.80542E-008	0.00000E+000	1.00000E-002	9.54592E-004	5	..........a	-327.66
	296	59.4	2.00739E-002	5.93259E-008	0.00000E+000	2.00000E-002	9.61292E-004	5	..........a	-327.66
	297	59.6	3.00242E-002	6.05964E-008	0.00000E+000	3.00000E-002	9.64092E-004	5	..........a	-327.66
	298	59.8	3.99946E-002	6.23924E-008	0.00000E+000	4.00000E-002	9.57992E-004	5	..........a	-327.66
	299	60	4.99995E-002	6.36556E-008	0.00000E+000	5.00000E-002	9.52692E-004	5	..........a	-327.66
	300	60.2	6.00613E-002	6.64120E-008	0.00000E+000	6.00000E-002	9.48592E-004	5	..........a	-327.66
	301	60.4	7.00036E-002	6.84750E-008	0.00000E+000	7.00000E-002	9.67392E-004	5	..........a	-327.66
	302	60.6	7.99840E-002	7.02309E-008	0.00000E+000	8.00000E-002	9.54992E-004	5	..........a	-327.66
	303	60.8	9.00574E-002	7.18277E-008	0.00000E+000	9.00000E-002	9.53392E-004	5	..........a	-327.66
	304	61	1.00063E-001	7.35770E-008	0.00000E+000	1.00000E-001	9.43192E-004	5	..........a	-327.66
	305	61.2	1.10053E-001	7.55576E-008	0.00000E+000	1.10000E-001	9.54492E-004	5	..........a	-327.66
	306	61.4	1.20028E-001	7.74305E-008	0.00000E+000	1.20000E-001	9.49592E-004	5	..........a	-327.66
	307	61.6	1.30007E-001	7.92758E-008	0.00000E+000	1.30000E-001	9.50492E-004	5	..........a	-327.66
	308	61.8	1.40059E-001	8.11267E-008	0.00000E+000	1.40000E-001	9.54392E-004	5	..........a	-327.66
	309	62	1.50023E-001	8.24303E-008	0.00000E+000	1.50000E-001	9.56892E-004	5	..........a	-327.66
	310	62.2	1.59993E-001	9.57797E-008	0.00000E+000	1.60000E-001	9.51492E-004	5	..........a	-327.66
	311	62.4	1.70024E-001	9.62183E-008	0.00000E+000	1.70000E-001	9.53492E-004	5	..........a	-327.66
	312	62.6	1.80011E-001	1.02328E-007	0.00000E+000	1.80000E-001	9.45592E-004	5	..........a	-327.66
	313	62.8	1.90058E-001	1.00254E-007	0.00000E+000	1.90000E-001	9.52192E-004	5	..........a	-327.66
	314	63	1.99978E-001	1.00274E-007	0.00000E+000	2.00000E-001	9.57392E-004	5	..........a	-327.66
	315	63.2	2.09951E-001	1.00536E-007	0.00000E+000	2.10000E-001	9.57092E-004	5	..........a	-327.66
	316	63.4	2.19994E-001	1.00920E-007	0.00000E+000	2.20000E-001	9.39392E-004	5	..........a	-327.66
	317	63.6	2.29967E-001	1.00367E-007	0.00000E+000	2.30000E-001	9.59692E-004	5	..........a	-327.66
	318	63.8	2.39969E-001	1.00561E-007	0.00000E+000	2.40000E-001	9.53392E-004	5	..........a	-327.66
	319	64	2.49947E-001	1.04081E-007	0.00000E+000	2.50000E-001	9.63192E-004	5	..........a	-327.66
	320	64.2	2.59994E-001	1.04366E-007	0.00000E+000	2.60000E-001	9.52992E-004	5	..........a	-327.66
	321	64.4	2.70032E-001	1.13834E-007	0.00000E+000	2.70000E-001	9.53692E-004	5	..........a	-327.66
	322	64.6	2.79936E-001	1.14525E-007	0.00000E+000	2.80000E-001	9.57892E-004	5	..........a	-327.66
	323	64.8	2.89982E-001	1.17992E-007	0.00000E+000	2.90000E-001	9.62892E-004	5	..........a	-327.66
	324	65	2.99988E-001	1.25346E-007	0.00000E+000	3.00000E-001	9.49492E-004	5	..........a	-327.66
	325	65.2	3.09989E-001	1.31702E-007	0.00000E+000	3.10000E-001	9.69392E-004	5	..........a	-327.66
	326	65.4	3.19961E-001	1.29900E-007	0.00000E+000	3.20000E-001	9.47792E-004	5	..........a	-327.66
	327	65.6	3.29944E-001	1.30295E-007	0.00000E+000	3.30000E-001	9.56392E-004	5	..........a	-327.66
	328	65.8	3.39976E-001	1.31086E-007	0.00000E+000	3.40000E-001	9.44592E-004	5	..........a	-327.66
	329	66	3.49994E-001	1.32192E-007	0.00000E+000	3.50000E-001	9.54292E-004	5	..........a	-327.66
	330	66.2	3.59954E-001	1.33374E-007	0.00000E+000	3.60000E-001	9.53392E-004	5	..........a	-327.66
	331	66.4	3.69964E-001	1.47350E-007	0.00000E+000	3.70000E-001	9.50292E-004	5	..........a	-327.66
	332	66.6	3.79939E-001	1.60659E-007	0.00000E+000	3.80000E-001	9.62592E-004	5	..........a	-327.66
	333	66.8	3.89983E-001	1.62024E-007	0.00000E+000	3.90000E-001	9.59692E-004	5	..........a	-327.66
	334	67	3.99949E-001	1.61711E-007	0.00000E+000	4.00000E-001	9.59892E-004	5	..........a	-327.66
	335	67.2	4.09901E-001	1.65257E-007	0.00000E+000	4.10000E-001	9.54192E-004	5	..........a	-327.66
	336	67.4	4.19924E-001	1.64535E-007	0.00000E+000	4.20000E-001	9.47792E-004	5	..........a	-327.66
	337	67.6	4.29956E-001	1.65514E-007	0.00000E+000	4.30000E-001	9.69692E-004	5	..........a	-327.66
	338	67.8	4.39891E-001	1.67597E-007	0.00000E+000	4.40000E-001	9.59792E-004	5	..........a	-327.66
	339	68	4.49864E-001	1.68912E-007	0.00000E+000	4.50000E-001	9.50192E-004	5	..........a	-327.66
	340	68.2	4.59918E-001	1.70474E-007	0.00000E+000	4.60000E-001	9.57092E-004	5	..........a	-327.66
	341	68.4	4.69966E-001	1.71689E-007	0.00000E+000	4.70000E-001	9.67392E-004	5	..........a	-327.66
	342	68.6	4.79870E-001	1.72452E-007	0.00000E+000	4.80000E-001	9.65492E-004	5	..........a	-327.66
	343	68.8	4.89882E-001	1.74663E-007	0.00000E+000	4.90000E-001	9.57992E-004	5	..........a	-327.66
	344	69	4.99952E-001	1.76016E-007	0.00000E+000	5.00000E-001	9.53492E-004	5	..........a	-327.66
	345	69.2	5.09949E-001	1.77726E-007	0.00000E+000	5.10000E-001	9.53192E-004	5	..........a	-327.66
	346	69.4	5.19901E-001	1.79018E-007	0.00000E+000	5.20000E-001	9.55292E-004	5	..........a	-327.66
	347	69.6	5.29899E-001	1.80661E-007	0.00000E+000	5.30000E-001	9.60492E-004	5	..........a	-327.66
	348	69.8	5.39919E-001	1.85865E-007	0.00000E+000	5.40000E-001	9.49992E-004	5	..........a	-327.66
	349	70	5.49945E-001	1.87373E-007	0.00000E+000	5.50000E-001	9.47392E-004	5	..........a	-327.66
	350	70.2	5.59894E-001	1.90098E-007	0.00000E+000	5.60000E-001	9.57392E-004	5	..........a	-327.66
	351	70.4	5.69879E-001	1.95891E-007	0.00000E+000	5.70000E-001	9.58892E-004	5	..........a	-327.66
	352	70.6	5.79890E-001	2.07345E-007	0.00000E+000	5.80000E-001	9.42592E-004	5	..........a	-327.66
	353	70.8	5.89956E-001	2.07871E-007	0.00000E+000	5.90000E-001	9.62892E-004	5	..........a	-327.66
	354	71	5.99868E-001	2.09017E-007	0.00000E+000	6.00000E-001	9.49192E-004	5	..........a	-327.66
[...]
	922	184.6	6.79906E-001	2.00118E-007	0.00000E+000	6.80000E-001	9.50792E-004	5	..........a	-327.66
	923	184.8	6.89852E-001	2.06163E-007	0.00000E+000	6.90000E-001	9.72392E-004	5	..........a	-327.66
	924	185	6.99852E-001	2.12610E-007	0.00000E+000	7.00000E-001	9.48392E-004	5	..........a	-327.66
	925	185.2	7.09942E-001	2.21096E-007	0.00000E+000	7.10000E-001	9.59392E-004	5	..........a	-327.66
	926	185.4	7.19858E-001	2.28323E-007	0.00000E+000	7.20000E-001	9.57492E-004	5	..........a	-327.66
	927	185.6	7.29869E-001	2.36392E-007	0.00000E+000	7.30000E-001	9.61092E-004	5	..........a	-327.66
	928	185.8	7.39839E-001	2.45575E-007	0.00000E+000	7.40000E-001	9.51592E-004	5	..........a	-327.66
	929	186	7.49898E-001	2.55823E-007	0.00000E+000	7.50000E-001	9.39792E-004	5	..........a	-327.66
	930	186.2	7.59841E-001	2.66861E-007	0.00000E+000	7.60000E-001	9.63992E-004	5	..........a	-327.66
	931	186.4	7.69835E-001	2.77841E-007	0.00000E+000	7.70000E-001	9.56292E-004	5	..........a	-327.66
	932	186.6	7.79812E-001	2.89151E-007	0.00000E+000	7.80000E-001	9.53092E-004	5	..........a	-327.66
	933	186.8	7.89909E-001	3.00749E-007	0.00000E+000	7.90000E-001	9.51892E-004	5	..........a	-327.66
	934	187	7.99802E-001	3.12749E-007	0.00000E+000	8.00000E-001	9.58992E-004	5	..........a	-327.66
	935	187.2	7.89940E-001	2.60042E-007	0.00000E+000	7.90000E-001	9.79692E-004	5	..........a	-327.66
	936	187.4	7.79829E-001	2.25608E-007	0.00000E+000	7.80000E-001	9.56692E-004	5	..........a	-327.66
	937	187.6	7.69875E-001	1.99950E-007	0.00000E+000	7.70000E-001	9.56692E-004	5	..........a	-327.66
	938	187.8	7.59887E-001	1.79655E-007	0.00000E+000	7.60000E-001	9.62492E-004	5	..........a	-327.66
	939	188	7.49946E-001	1.62861E-007	0.00000E+000	7.50000E-001	9.55892E-004	5	..........a	-327.66
	940	188.2	7.39893E-001	1.48635E-007	0.00000E+000	7.40000E-001	9.48692E-004	5	..........a	-327.66
	941	188.4	7.29875E-001	1.36391E-007	0.00000E+000	7.30000E-001	9.60892E-004	5	..........a	-327.66
	942	188.6	7.19892E-001	1.25610E-007	0.00000E+000	7.20000E-001	9.69192E-004	5	..........a	-327.66
	943	188.8	7.09970E-001	1.15995E-007	0.00000E+000	7.10000E-001	9.65692E-004	5	..........a	-327.66
	944	189	6.99901E-001	1.07399E-007	0.00000E+000	7.00000E-001	9.60492E-004	5	..........a	-327.66
	945	189.2	6.89889E-001	9.96213E-008	0.00000E+000	6.90000E-001	9.64292E-004	5	..........a	-327.66
	946	189.4	6.79931E-001	9.25493E-008	0.00000E+000	6.80000E-001	9.56192E-004	5	..........a	-327.66
	947	189.6	6.69968E-001	8.60902E-008	0.00000E+000	6.70000E-001	9.57192E-004	5	..........a	-327.66
	948	189.8	6.59924E-001	8.00937E-008	0.00000E+000	6.60000E-001	9.62592E-004	5	..........a	-327.66
	949	190	6.49921E-001	7.46017E-008	0.00000E+000	6.50000E-001	9.53592E-004	5	..........a	-327.66
	950	190.2	6.39883E-001	6.94658E-008	0.00000E+000	6.40000E-001	9.61192E-004	5	..........a	-327.66
	951	190.4	6.30003E-001	6.47276E-008	0.00000E+000	6.30000E-001	9.51392E-004	5	..........a	-327.66
	952	190.6	6.19923E-001	6.02099E-008	0.00000E+000	6.20000E-001	9.55192E-004	5	..........a	-327.66
	953	190.8	6.09969E-001	5.60115E-008	0.00000E+000	6.10000E-001	9.53992E-004	5	..........a	-327.66
	954	191	5.99972E-001	5.20244E-008	0.00000E+000	6.00000E-001	9.51592E-004	5	..........a	-327.66
	955	191.2	5.90004E-001	4.82396E-008	0.00000E+000	5.90000E-001	9.60392E-004	5	..........a	-327.66
	956	191.4	5.79993E-001	4.46390E-008	0.00000E+000	5.80000E-001	9.45992E-004	5	..........a	-327.66
	957	191.6	5.69960E-001	4.11916E-008	0.00000E+000	5.70000E-001	9.65492E-004	5	..........a	-327.66
	958	191.8	5.59955E-001	3.78676E-008	0.00000E+000	5.60000E-001	9.67492E-004	5	..........a	-327.66
	959	192	5.50035E-001	3.47207E-008	0.00000E+000	5.50000E-001	9.58492E-004	5	..........a	-327.66
	960	192.2	5.40033E-001	3.16631E-008	0.00000E+000	5.40000E-001	9.38692E-004	5	..........a	-327.66
	961	192.4	5.29964E-001	2.86699E-008	0.00000E+000	5.30000E-001	9.56692E-004	5	..........a	-327.66
	962	192.6	5.19986E-001	2.58079E-008	0.00000E+000	5.20000E-001	9.42492E-004	5	..........a	-327.66
	963	192.8	5.09976E-001	2.30985E-008	0.00000E+000	5.10000E-001	9.71892E-004	5	..........a	-327.66
	964	193	5.00027E-001	2.04628E-008	0.00000E+000	5.00000E-001	9.47092E-004	5	..........a	-327.66
	965	193.2	4.89958E-001	1.79363E-008	0.00000E+000	4.90000E-001	9.56992E-004	5	..........a	-327.66
	966	193.4	4.79948E-001	1.54787E-008	0.00000E+000	4.80000E-001	9.81892E-004	5	..........a	-327.66
	967	193.6	4.70020E-001	1.30443E-008	0.00000E+000	4.70000E-001	9.60192E-004	5	..........a	-327.66
	968	193.8	4.60012E-001	1.06391E-008	0.00000E+000	4.60000E-001	9.43092E-004	5	..........a	-327.66
	969	194	4.49963E-001	8.22969E-009	0.00000E+000	4.50000E-001	9.40492E-004	5	..........a	-327.66
	970	194.2	4.39965E-001	5.86698E-009	0.00000E+000	4.40000E-001	9.62892E-004	5	..........a	-327.66
	971	194.4	4.29964E-001	3.46853E-009	0.00000E+000	4.30000E-001	9.53692E-004	5	..........a	-327.66
	972	194.6	4.20022E-001	1.09729E-009	0.00000E+000	4.20000E-001	9.61792E-004	5	..........a	-327.66
	973	194.8	4.09966E-001	-1.09331E-009	0.00000E+000	4.10000E-001	9.51692E-004	5	..........a	-327.66
	974	195	4.00061E-001	-3.03248E-009	0.00000E+000	4.00000E-001	9.39892E-004	5	..........a	-327.66
	975	195.2	3.90081E-001	-4.74175E-009	0.00000E+000	3.90000E-001	9.52292E-004	5	..........a	-327.66
	976	195.4	3.80083E-001	-6.44012E-009	0.00000E+000	3.80000E-001	9.33592E-004	5	..........a	-327.66
	977	195.6	3.70062E-001	-8.04193E-009	0.00000E+000	3.70000E-001	9.48592E-004	5	..........a	-327.66
	978	195.8	3.60051E-001	-9.64558E-009	0.00000E+000	3.60000E-001	9.43892E-004	5	..........a	-327.66
	979	196	3.50056E-001	-1.12509E-008	0.00000E+000	3.50000E-001	9.62692E-004	5	..........a	-327.66
	980	196.2	3.40097E-001	-1.27580E-008	0.00000E+000	3.40000E-001	9.60692E-004	5	..........a	-327.66
	981	196.4	3.30056E-001	-1.42846E-008	0.00000E+000	3.30000E-001	9.44492E-004	5	..........a	-327.66
	982	196.6	3.20071E-001	-1.57776E-008	0.00000E+000	3.20000E-001	9.60992E-004	5	..........a	-327.66
	983	196.8	3.10049E-001	-1.71864E-008	0.00000E+000	3.10000E-001	9.48392E-004	5	..........a	-327.66
	984	197	3.00091E-001	-1.85033E-008	0.00000E+000	3.00000E-001	9.43992E-004	5	..........a	-327.66
	985	197.2	2.90071E-001	-1.98037E-008	0.00000E+000	2.90000E-001	9.40992E-004	5	..........a	-327.66
	986	197.4	2.80010E-001	-2.10984E-008	0.00000E+000	2.80000E-001	9.55692E-004	5	..........a	-327.66
	987	197.6	2.70102E-001	-2.22741E-008	0.00000E+000	2.70000E-001	9.56392E-004	5	..........a	-327.66
	988	197.8	2.60074E-001	-2.33805E-008	0.00000E+000	2.60000E-001	9.48592E-004	5	..........a	-327.66
	989	198	2.50043E-001	-2.43855E-008	0.00000E+000	2.50000E-001	9.53392E-004	5	..........a	-327.66
	990	198.2	2.40081E-001	-2.52696E-008	0.00000E+000	2.40000E-001	9.64492E-004	5	..........a	-327.66
	991	198.4	2.30046E-001	-2.61660E-008	0.00000E+000	2.30000E-001	9.67992E-004	5	..........a	-327.66
	992	198.6	2.20101E-001	-2.70553E-008	0.00000E+000	2.20000E-001	9.39792E-004	5	..........a	-327.66
	993	198.8	2.10031E-001	-2.78755E-008	0.00000E+000	2.10000E-001	9.53892E-004	5	..........a	-327.66
	994	199	2.00070E-001	-2.86287E-008	0.00000E+000	2.00000E-001	9.38992E-004	5	..........a	-327.66
	995	199.2	1.90117E-001	-2.67532E-008	0.00000E+000	1.90000E-001	9.38792E-004	5	..........a	-327.66
	996	199.4	1.80131E-001	-2.98574E-008	0.00000E+000	1.80000E-001	9.48892E-004	5	..........a	-327.66
	997	199.6	1.70090E-001	-3.09485E-008	0.00000E+000	1.70000E-001	9.43292E-004	5	..........a	-327.66
	998	199.8	1.60072E-001	-3.19819E-008	0.00000E+000	1.60000E-001	9.60092E-004	5	..........a	-327.66
	999	200	1.50083E-001	-3.27615E-008	0.00000E+000	1.50000E-001	9.54092E-004	5	..........a	-327.66
	1000	200.2	1.40129E-001	-3.37735E-008	0.00000E+000	1.40000E-001	9.48492E-004	5	..........a	-327.66
	1001	200.4	1.30102E-001	-3.48444E-008	0.00000E+000	1.30000E-001	9.48792E-004	5	..........a	-327.66
	1002	200.6	1.20087E-001	-3.59572E-008	0.00000E+000	1.20000E-001	9.37092E-004	5	..........a	-327.66
	1003	200.8	1.10123E-001	-3.70110E-008	0.00000E+000	1.10000E-001	9.49392E-004	5	..........a	-327.66
	1004	201	1.00144E-001	-3.79398E-008	0.00000E+000	1.00000E-001	9.53092E-004	5	..........a	-327.66
	1005	201.2	9.01199E-002	-3.88055E-008	0.00000E+000	9.00000E-002	9.63192E-004	5	..........a	-327.66
	1006	201.4	8.00762E-002	-3.94102E-008	0.00000E+000	8.00000E-002	9.64092E-004	5	..........a	-327.66
	1007	201.6	7.00803E-002	-4.00747E-008	0.00000E+000	7.00000E-002	9.58692E-004	5	..........a	-327.66
	1008	201.8	6.01404E-002	-4.10699E-008	0.00000E+000	6.00000E-002	9.38592E-004	5	..........a	-327.66
	1009	202	5.00784E-002	-4.22611E-008	0.00000E+000	5.00000E-002	9.55692E-004	5	..........a	-327.66
	1010	202.2	4.01416E-002	-4.32086E-008	0.00000E+000	4.00000E-002	9.59992E-004	5	..........a	-327.66
	1011	202.4	3.01064E-002	-4.41843E-008	0.00000E+000	3.00000E-002	9.52392E-004	5	..........a	-327.66
	1012	202.6	2.02029E-002	-4.52680E-008	0.00000E+000	2.00000E-002	9.48292E-004	5	..........a	-327.66
	1013	202.8	1.01353E-002	-4.63317E-008	0.00000E+000	1.00000E-002	9.48192E-004	5	..........a	-327.66
	1014	203	8.18417E-005	-4.71620E-008	0.00000E+000	7.45058E-009	9.50792E-004	5	..........a	-327.66
	1015	203.2	-9.87756E-003	-4.81083E-008	0.00000E+000	-1.00000E-002	9.52992E-004	5	..........a	-327.66
	1016	203.4	-1.98729E-002	-4.92836E-008	0.00000E+000	-2.00000E-002	9.45692E-004	5	..........a	-327.66
	1017	203.6	-2.98806E-002	-5.01661E-008	0.00000E+000	-3.00000E-002	9.57392E-004	5	..........a	-327.66
	1018	203.8	-3.98681E-002	-5.13109E-008	0.00000E+000	-4.00000E-002	9.50992E-004	5	..........a	-327.66
	1019	204	-4.98930E-002	-5.24569E-008	0.00000E+000	-5.00000E-002	9.53592E-004	5	..........a	-327.66
	1020	204.2	-5.98549E-002	-5.35619E-008	0.00000E+000	-6.00000E-002	9.43892E-004	5	..........a	-327.66
	1021	204.4	-6.98762E-002	-5.46890E-008	0.00000E+000	-7.00000E-002	9.40692E-004	5	..........a	-327.66
	1022	204.6	-7.98882E-002	-5.58833E-008	0.00000E+000	-8.00000E-002	9.50792E-004	5	..........a	-327.66
	1023	204.8	-8.98736E-002	-5.70827E-008	0.00000E+000	-9.00000E-002	9.55792E-004	5	..........a	-327.66
	1024	205	-9.98685E-002	-5.83856E-008	0.00000E+000	-1.00000E-001	9.37292E-004	5	..........a	-327.66
	1025	205.2	-1.09930E-001	-5.97486E-008	0.00000E+000	-1.10000E-001	9.50892E-004	5	..........a	-327.66
	1026	205.4	-1.19886E-001	-6.10411E-008	0.00000E+000	-1.20000E-001	9.54292E-004	5	..........a	-327.66
	1027	205.6	-1.29904E-001	-6.25341E-008	0.00000E+000	-1.30000E-001	9.44792E-004	5	..........a	-327.66
	1028	205.8	-1.39850E-001	-6.38690E-008	0.00000E+000	-1.40000E-001	9.48292E-004	5	..........a	-327.66
	1029	206	-1.49896E-001	-6.54703E-008	0.00000E+000	-1.50000E-001	9.54792E-004	5	..........a	-327.66
	1030	206.2	-1.59907E-001	-6.69754E-008	0.00000E+000	-1.60000E-001	9.44992E-004	5	..........a	-327.66
	1031	206.4	-1.69870E-001	-6.86078E-008	0.00000E+000	-1.70000E-001	9.45792E-004	5	..........a	-327.66
	1032	206.6	-1.79850E-001	-7.02796E-008	0.00000E+000	-1.80000E-001	9.44792E-004	5	..........a	-327.66
	1033	206.8	-1.89902E-001	-7.19761E-008	0.00000E+000	-1.90000E-001	9.37392E-004	5	..........a	-327.66
	1034	207	-1.99926E-001	-7.37533E-008	0.00000E+000	-2.00000E-001	9.51392E-004	5	..........a	-327.66
	1035	207.2	-2.09855E-001	-7.54436E-008	0.00000E+000	-2.10000E-001	9.55992E-004	5	..........a	-327.66
	1036	207.4	-2.19836E-001	-7.72024E-008	0.00000E+000	-2.20000E-001	9.41392E-004	5	..........a	-327.66
	1037	207.6	-2.29899E-001	-7.91254E-008	0.00000E+000	-2.30000E-001	9.51692E-004	5	..........a	-327.66
	1038	207.8	-2.39844E-001	-8.08923E-008	0.00000E+000	-2.40000E-001	9.54992E-004	5	..........a	-327.66
	1039	208	-2.49856E-001	-8.26824E-008	0.00000E+000	-2.50000E-001	9.54892E-004	5	..........a	-327.66
	1040	208.2	-2.59788E-001	-8.44597E-008	0.00000E+000	-2.60000E-001	9.35192E-004	5	..........a	-327.66
	1041	208.4	-2.69838E-001	-8.63268E-008	0.00000E+000	-2.70000E-001	9.47792E-004	5	..........a	-327.66
	1042	208.6	-2.79842E-001	-8.80603E-008	0.00000E+000	-2.80000E-001	9.67792E-004	5	..........a	-327.66
	1043	208.8	-2.89862E-001	-8.98985E-008	0.00000E+000	-2.90000E-001	9.50692E-004	5	..........a	-327.66
	1044	209	-2.99820E-001	-9.18887E-008	0.00000E+000	-3.00000E-001	9.47192E-004	5	..........a	-327.66
	1045	209.2	-3.09858E-001	-9.36070E-008	0.00000E+000	-3.10000E-001	9.44092E-004	5	..........a	-327.66
	1046	209.4	-3.19835E-001	-9.54949E-008	0.00000E+000	-3.20000E-001	9.45292E-004	5	..........a	-327.66
	1047	209.6	-3.29844E-001	-9.73227E-008	0.00000E+000	-3.30000E-001	9.52092E-004	5	..........a	-327.66
	1048	209.8	-3.39765E-001	-9.91341E-008	0.00000E+000	-3.40000E-001	9.41792E-004	5	..........a	-327.66
	1049	210	-3.49840E-001	-1.00887E-007	0.00000E+000	-3.50000E-001	9.52892E-004	5	..........a	-327.66
	1050	210.2	-3.59829E-001	-1.02558E-007	0.00000E+000	-3.60000E-001	9.40992E-004	5	..........a	-327.66
	1051	210.4	-3.69824E-001	-1.04148E-007	0.00000E+000	-3.70000E-001	9.53792E-004	5	..........a	-327.66
	1052	210.6	-3.79798E-001	-1.05593E-007	0.00000E+000	-3.80000E-001	9.45492E-004	5	..........a	-327.66
	1053	210.8	-3.89852E-001	-1.07011E-007	0.00000E+000	-3.90000E-001	9.48592E-004	5	..........a	-327.66
	1054	211	-3.99834E-001	-1.08423E-007	0.00000E+000	-4.00000E-001	9.56892E-004	5	..........a	-327.66
	1055	211.2	-4.09843E-001	-1.09800E-007	0.00000E+000	-4.10000E-001	9.59792E-004	5	..........a	-327.66
	1056	211.4	-4.19776E-001	-1.11104E-007	0.00000E+000	-4.20000E-001	9.43892E-004	5	..........a	-327.66
	1057	211.6	-4.29824E-001	-1.12457E-007	0.00000E+000	-4.30000E-001	9.49692E-004	5	..........a	-327.66
	1058	211.8	-4.39801E-001	-1.13773E-007	0.00000E+000	-4.40000E-001	9.61392E-004	5	..........a	-327.66
	1059	212	-4.49826E-001	-1.15072E-007	0.00000E+000	-4.50000E-001	9.43792E-004	5	..........a	-327.66
	1060	212.2	-4.59765E-001	-1.16401E-007	0.00000E+000	-4.60000E-001	9.39192E-004	5	..........a	-327.66
	1061	212.4	-4.69816E-001	-1.17719E-007	0.00000E+000	-4.70000E-001	9.37692E-004	5	..........a	-327.66
	1062	212.6	-4.79814E-001	-1.19006E-007	0.00000E+000	-4.80000E-001	9.51092E-004	5	..........a	-327.66
	1063	212.8	-4.89820E-001	-1.20316E-007	0.00000E+000	-4.90000E-001	9.45192E-004	5	..........a	-327.66
	1064	213	-4.99801E-001	-1.21635E-007	0.00000E+000	-5.00000E-001	9.37092E-004	5	..........a	-327.66
	1065	213.2	-5.09820E-001	-1.23116E-007	0.00000E+000	-5.10000E-001	9.41092E-004	5	..........a	-327.66
	1066	213.4	-5.19814E-001	-1.24537E-007	0.00000E+000	-5.20000E-001	9.57492E-004	5	..........a	-327.66
	1067	213.6	-5.29823E-001	-1.25999E-007	0.00000E+000	-5.30000E-001	9.40892E-004	5	..........a	-327.66
	1068	213.8	-5.39759E-001	-1.27598E-007	0.00000E+000	-5.40000E-001	9.45892E-004	5	..........a	-327.66
	1069	214	-5.49838E-001	-1.29339E-007	0.00000E+000	-5.50000E-001	9.47392E-004	5	..........a	-327.66
	1070	214.2	-5.59839E-001	-1.30986E-007	0.00000E+000	-5.60000E-001	9.63992E-004	5	..........a	-327.66
	1071	214.4	-5.69820E-001	-1.32846E-007	0.00000E+000	-5.70000E-001	9.44092E-004	5	..........a	-327.66
	1072	214.6	-5.79784E-001	-1.34801E-007	0.00000E+000	-5.80000E-001	9.41892E-004	5	..........a	-327.66
	1073	214.8	-5.89808E-001	-1.36831E-007	0.00000E+000	-5.90000E-001	9.44192E-004	5	..........a	-327.66
	1074	215	-5.99771E-001	-1.38865E-007	0.00000E+000	-6.00000E-001	9.49092E-004	5	..........a	-327.66
CURVE5	TABLE
	Pt	T	Vf	Im	Vu	Sig	Ach	IERange	Over	Temp
	#	s	V vs. Ref.	A	V	V	V	#	bits	deg C
	1075	215.2	-5.89829E-001	-1.19341E-007	0.00000E+000	-5.90000E-001	9.52192E-004	5	..........a	-327.66
	1076	215.4	-5.79790E-001	-1.06457E-007	0.00000E+000	-5.80000E-001	9.37992E-004	5	..........a	-327.66
	1077	215.6	-5.69819E-001	-9.63906E-008	0.00000E+000	-5.70000E-001	9.34892E-004	5	..........a	-327.66
	1078	215.8	-5.59821E-001	-8.80325E-008	0.00000E+000	-5.60000E-001	9.61292E-004	5	..........a	-327.66
	1079	216	-5.49841E-001	-8.08155E-008	0.00000E+000	-5.50000E-001	9.40892E-004	5	..........a	-327.66
	1080	216.2	-5.39779E-001	-7.44711E-008	0.00000E+000	-5.40000E-001	9.52092E-004	5	..........a	-327.66
	1081	216.4	-5.29852E-001	-6.87747E-008	0.00000E+000	-5.30000E-001	9.50992E-004	5	..........a	-327.66
	1082	216.6	-5.19866E-001	-6.36266E-008	0.00000E+000	-5.20000E-001	9.55392E-004	5	..........a	-327.66
	1083	216.8	-5.09890E-001	-5.88359E-008	0.00000E+000	-5.10000E-001	9.46192E-004	5	..........a	-327.66
	1084	217	-4.99823E-001	-5.43670E-008	0.00000E+000	-5.00000E-001	9.53092E-004	5	..........a	-327.66
	1085	217.2	-4.89842E-001	-5.02681E-008	0.00000E+000	-4.90000E-001	9.55292E-004	5	..........a	-327.66
	1086	217.4	-4.79824E-001	-4.64021E-008	0.00000E+000	-4.80000E-001	9.50092E-004	5	..........a	-327.66
	1087	217.6	-4.69846E-001	-4.28288E-008	0.00000E+000	-4.70000E-001	9.57892E-004	5	..........a	-327.66
	1088	217.8	-4.59805E-001	-3.92981E-008	0.00000E+000	-4.60000E-001	9.42092E-004	5	..........a	-327.66
	1089	218	-4.49844E-001	-3.61018E-008	0.00000E+000	-4.50000E-001	9.54292E-004	5	..........a	-327.66
	1090	218.2	-4.39897E-001	-3.30329E-008	0.00000E+000	-4.40000E-001	9.51092E-004	5	..........a	-327.66
	1091	218.4	-4.29850E-001	-3.00555E-008	0.00000E+000	-4.30000E-001	9.54192E-004	5	..........a	-327.66
	1092	218.6	-4.19805E-001	-2.72662E-008	0.00000E+000	-4.20000E-001	9.50092E-004	5	..........a	-327.66
	1093	218.8	-4.09851E-001	-2.45938E-008	0.00000E+000	-4.10000E-001	9.55092E-004	5	..........a	-327.66
	1094	219	-3.99867E-001	-2.20254E-008	0.00000E+000	-4.00000E-001	9.51592E-004	5	..........a	-327.66
	1095	219.2	-3.89895E-001	-1.95295E-008	0.00000E+000	-3.90000E-001	9.44192E-004	5	..........a	-327.66
	1096	219.4	-3.79842E-001	-1.71197E-008	0.00000E+000	-3.80000E-001	9.38992E-004	5	..........a	-327.66
	1097	219.6	-3.69847E-001	-1.48238E-008	0.00000E+000	-3.70000E-001	9.45892E-004	5	..........a	-327.66
	1098	219.8	-3.59932E-001	-1.26367E-008	0.00000E+000	-3.60000E-001	9.55592E-004	5	..........a	-327.66
	1099	220	-3.49870E-001	-1.04847E-008	0.00000E+000	-3.50000E-001	9.57392E-004	5	..........a	-327.66
	1100	220.2	-3.39842E-001	-8.38355E-009	0.00000E+000	-3.40000E-001	9.45692E-004	5	..........a	-327.66
	1101	220.4	-3.29883E-001	-6.33644E-009	0.00000E+000	-3.30000E-001	9.54592E-004	5	..........a	-327.66
	1102	220.6	-3.19863E-001	-4.41008E-009	0.00000E+000	-3.20000E-001	9.50692E-004	5	..........a	-327.66
	1103	220.8	-3.09898E-001	-2.51454E-009	0.00000E+000	-3.10000E-001	9.45792E-004	5	..........a	-327.66
	1104	221	-2.99867E-001	-7.00800E-010	0.00000E+000	-3.00000E-001	9.51592E-004	5	..........a	-327.66
	1105	221.2	-2.89917E-001	1.18270E-009	0.00000E+000	-2.90000E-001	9.63792E-004	5	..........a	-327.66
	1106	221.4	-2.79953E-001	2.98268E-009	0.00000E+000	-2.80000E-001	9.62192E-004	5	..........a	-327.66
	1107	221.6	-2.69869E-001	4.75296E-009	0.00000E+000	-2.70000E-001	9.47292E-004	5	..........a	-327.66
	1108	221.8	-2.59841E-001	6.48977E-009	0.00000E+000	-2.60000E-001	9.58192E-004	5	..........a	-327.66
	1109	222	-2.49914E-001	8.15396E-009	0.00000E+000	-2.50000E-001	9.48292E-004	5	..........a	-327.66
	1110	222.2	-2.39910E-001	9.83573E-009	0.00000E+000	-2.40000E-001	9.56492E-004	5	..........a	-327.66
	1111	222.4	-2.29938E-001	1.14439E-008	0.00000E+000	-2.30000E-001	9.41792E-004	5	..........a	-327.66
	1112	222.6	-2.19892E-001	1.30293E-008	0.00000E+000	-2.20000E-001	9.35392E-004	5	..........a	-327.66
	1113	222.8	-2.09914E-001	1.45884E-008	0.00000E+000	-2.10000E-001	9.62492E-004	5	..........a	-327.66
	1114	223	-1.99951E-001	1.61181E-008	0.00000E+000	-2.00000E-001	9.55292E-004	5	..........a	-327.66
	1115	223.2	-1.90151E-001	1.76167E-008	0.00000E+000	-1.90000E-001	9.47292E-004	5	..........a	-327.66
	1116	223.4	-1.79928E-001	1.90836E-008	0.00000E+000	-1.80000E-001	9.43292E-004	5	..........a	-327.66
	1117	223.6	-1.69903E-001	2.04930E-008	0.00000E+000	-1.70000E-001	9.54292E-004	5	..........a	-327.66
	1118	223.8	-1.59965E-001	2.19197E-008	0.00000E+000	-1.60000E-001	9.54992E-004	5	..........a	-327.66
	1119	224	-1.50019E-001	2.33013E-008	0.00000E+000	-1.50000E-001	9.52492E-004	5	..........a	-327.66
	1120	224.2	-1.39974E-001	2.46430E-008	0.00000E+000	-1.40000E-001	9.47792E-004	5	..........a	-327.66