File: example_project/raw_outputs/20240321_ZV_GM0016_HL03_E12_CV50k.DTA
EXPLAIN
TAG	CV
TITLE	LABEL	Cyclic Voltammetry	Test &Identifier
DATE	LABEL	3/21/2024	Date
TIME	LABEL	19:15:17	Time
NOTES	NOTES	1	&Notes...

PSTAT	PSTAT	REF600P-43058	Potentiostat
VINIT	POTEN	0.00000E+000	T	Initial &E (V)
VLIMIT1	POTEN	-6.00000E-001	F	Scan Limit &1 (V)
VLIMIT2	POTEN	8.00000E-001	F	Scan Limit &2 (V)
VFINAL	POTEN	0.00000E+000	T	Final &E (V)
SCANRATE	QUANT	4.99999E+004	&Scan Rate (mV/s)
STEPSIZE	QUANT	1.00000E+001	St&ep Size (mV)
CYCLES	IQUANT	10	C&ycles (#)
IMODE	SELECTOR	1	I/E Range &Mode
IRANGE	QUANT	1.00000E-005	&Max Current (mA)
AREA	QUANT	1.00000E+000	Electrode &Area (cm^2)
ELECTRODETYPE	SELECTOR	0	Electrode Type
STRIPPING	TOGGLE	F	Used for Stripping
POLARITY	TOGGLE	F	Signal Polarity
CONDIT	TWOPARAM	F	1.50000E+001	0.00000E+000	Conditionin&g	Time(s)	E(V)
DELAY	TWOPARAM	T	1.00000E+001	0.00000E+000	Init. De&lay	Time(s)	Stab.(mV/s)
EQDELAY	QUANT	1.00000E+001	Equil. &Time (s)
IRCOMP	SELECTOR	0	IRCom&p
PFCOR	QUANT	5.00000E+001	PF Corr. (ohm)
SAMPLINGMODE	SELECTOR	1	Sampling &Mode
OCVCURVE	TABLE	39
	Pt	T	Vf	Vm	Ach	Over	Temp
	#	s	V vs. Ref.	V	V	bits	deg C
	0	0.258333	3.23997E-001	3.23997E-001	2.48089E-004	..........a	-327.66
	1	0.516667	3.23997E-001	3.24014E-001	2.41089E-004	..........a	-327.66
	2	0.775	3.24000E-001	3.24077E-001	2.52356E-004	..........a	-327.66
	3	1.03333	3.24013E-001	3.24202E-001	2.45556E-004	..........a	-327.66
	4	1.29167	3.24046E-001	3.24299E-001	2.37022E-004	..........a	-327.66
	5	1.55	3.24106E-001	3.24383E-001	2.45556E-004	..........a	-327.66
	6	1.80833	3.24189E-001	3.24517E-001	2.26422E-004	..........a	-327.66
	7	2.06667	3.24286E-001	3.24644E-001	2.41489E-004	..........a	-327.66
	8	2.325	3.24394E-001	3.24750E-001	2.36489E-004	..........a	-327.66
	9	2.58333	3.24508E-001	3.24857E-001	2.37822E-004	..........a	-327.66
	10	2.84167	3.24624E-001	3.24951E-001	2.45489E-004	..........a	-327.66
	11	3.1	3.24736E-001	3.25044E-001	2.47156E-004	..........a	-327.66
	12	3.35833	3.24842E-001	3.25140E-001	2.34022E-004	..........a	-327.66
	13	3.61667	3.24944E-001	3.25337E-001	2.42622E-004	..........a	-327.66
	14	3.875	3.25053E-001	3.25547E-001	2.43289E-004	..........a	-327.66
	15	4.13333	3.25181E-001	3.25617E-001	2.38422E-004	..........a	-327.66
	16	4.39167	3.25325E-001	3.25635E-001	2.39489E-004	..........a	-327.66
	17	4.65	3.25461E-001	3.25686E-001	2.40222E-004	..........a	-327.66
	18	4.90833	3.25566E-001	3.25780E-001	2.42556E-004	..........a	-327.66
	19	5.16667	3.25643E-001	3.25889E-001	2.33156E-004	..........a	-327.66
	20	5.425	3.25711E-001	3.25954E-001	2.36422E-004	..........a	-327.66
	21	5.68333	3.25787E-001	3.26068E-001	2.41356E-004	..........a	-327.66
	22	5.94167	3.25872E-001	3.26212E-001	2.42689E-004	..........a	-327.66
	23	6.2	3.25968E-001	3.26329E-001	2.49156E-004	..........a	-327.66
	24	6.45833	3.26076E-001	3.26447E-001	2.58022E-004	..........a	-327.66
	25	6.71667	3.26194E-001	3.26561E-001	2.32156E-004	..........a	-327.66
	26	6.975	3.26315E-001	3.26666E-001	2.39956E-004	..........a	-327.66
	27	7.23333	3.26434E-001	3.26808E-001	2.37889E-004	..........a	-327.66
	28	7.49167	3.26554E-001	3.27039E-001	2.28689E-004	..........a	-327.66
	29	7.75	3.26685E-001	3.27178E-001	2.42689E-004	..........a	-327.66
	30	8.00833	3.26832E-001	3.27219E-001	2.45089E-004	..........a	-327.66
	31	8.26667	3.26980E-001	3.27244E-001	2.49422E-004	..........a	-327.66
	32	8.525	3.27104E-001	3.27314E-001	2.44422E-004	..........a	-327.66
	33	8.78333	3.27194E-001	3.27418E-001	2.46556E-004	..........a	-327.66
	34	9.04167	3.27264E-001	3.27494E-001	2.32556E-004	..........a	-327.66
	35	9.3	3.27333E-001	3.27608E-001	2.37756E-004	..........a	-327.66
	36	9.5583	3.27412E-001	3.27736E-001	2.35956E-004	..........a	-327.66
	37	9.8167	3.27504E-001	3.27875E-001	2.40289E-004	..........a	-327.66
	38	10.075	3.27612E-001	3.27980E-001	2.43889E-004	..........a	-327.66
EOC	QUANT	0.3276116	Open Circuit (V)
PSTATMODEL	IQUANT	7	Pstat Model
PSTATSECTION	LABEL	REF600P-43058	Pstat Section
PSTATSERIALNO	LABEL	43058	Pstat Serial Number
CTRLMODE	IQUANT	1	Control Mode
ELECTROMETER	IQUANT	0	RE=0 or CS=1
IESTAB	IQUANT	2	I/E Stability
CASPEED	IQUANT	4	Control Amp Speed
CONVENTION	IQUANT	1	Current Convention
ICHRANGE	IQUANT	2	Ich Range
ICHRANGEMODE	TOGGLE	F	Ich Auto Range
ICHOFFSETENABLE	TOGGLE	F	Ich Offset Enable
ICHOFFSET	QUANT	0	Ich Offset (V)
ICHFILTER	IQUANT	1	Ich Filter
VCHRANGE	IQUANT	2	Vch Range
VCHRANGEMODE	TOGGLE	F	Vch Auto Range
VCHOFFSETENABLE	TOGGLE	F	Vch Offset Enable
VCHOFFSET	QUANT	0	Vch Offset (V)
VCHFILTER	IQUANT	1	Vch Filter
ACHRANGE	IQUANT	2	Ach Range
ACHOFFSETENABLE	TOGGLE	F	Ach Offset Enable
ACHOFFSET	QUANT	0	Ach Offset (V)
ACHFILTER	IQUANT	1	Ach Filter
IERANGELOWERLIMIT	IQUANT	1	I/E Range Lower Limit
IERANGEMODE	TOGGLE	F	I/E AutoRange
IERANGE	IQUANT	4	I/E Range
POSFEEDENABLE	TOGGLE	F	Positive Feedback IR Comp
POSFEEDRESISTANCE	QUANT	0	Positive Feedback Resistance (ohm)
ACHSELECT	IQUANT	4	Ach Select
SENSECABLEID	IQUANT	7	Sense Cable ID
PWRCABLEID	IQUANT	7	Power Cable ID
DCCALDATE	LABEL	12/18/2023	DC Calibration Date
ACCALDATE	LABEL	12/18/2023	AC Calibration Date
THERMOSELECT	IQUANT	1	Thermo Select
FRAMEWORKVERSION	LABEL	7.8.4	Framework Version
INSTRUMENTVERSION	LABEL	4.42	Instrument Version
CURVE1	TABLE
	Pt	T	Vf	Im	Vu	Sig	Ach	IERange	Over	Temp
	#	s	V vs. Ref.	A	V	V	V	#	bits	deg C
	0	0.0002	3.27570E-001	3.87891E-011	0.00000E+000	3.27600E-001	8.00223E-005	4	..........a	-327.66
	1	0.0004	3.17470E-001	-1.21241E-012	0.00000E+000	3.17600E-001	8.00223E-005	4	..........a	-327.66
	2	0.0006	3.07470E-001	-4.22140E-011	0.00000E+000	3.07600E-001	-2.19978E-004	4	..........a	-327.66
	3	0.0008	2.97670E-001	-8.82158E-011	0.00000E+000	2.97600E-001	8.00223E-005	4	..........a	-327.66
	4	0.001	2.87470E-001	-1.44218E-010	0.00000E+000	2.87600E-001	8.00223E-005	4	..........a	-327.66
	5	0.0012	2.77670E-001	-2.01220E-010	0.00000E+000	2.77600E-001	8.00223E-005	4	..........a	-327.66
	6	0.0014	2.67670E-001	-2.62222E-010	0.00000E+000	2.67600E-001	8.00223E-005	4	..........a	-327.66
	7	0.0016	2.57570E-001	-3.21225E-010	0.00000E+000	2.57600E-001	-3.19978E-004	4	..........a	-327.66
	8	0.0018	2.47570E-001	-3.88227E-010	0.00000E+000	2.47600E-001	8.00223E-005	4	..........a	-327.66
	9	0.002	2.37670E-001	-4.58230E-010	0.00000E+000	2.37600E-001	8.00223E-005	4	..........a	-327.66
	10	0.0022	2.27670E-001	-5.30233E-010	0.00000E+000	2.27600E-001	-2.19978E-004	4	..........a	-327.66
	11	0.0024	2.17670E-001	-6.02235E-010	0.00000E+000	2.17600E-001	8.00223E-005	4	..........a	-327.66
	12	0.0026	2.07570E-001	-6.80238E-010	0.00000E+000	2.07600E-001	8.00223E-005	4	..........a	-327.66
	13	0.0028	1.97770E-001	-7.60242E-010	0.00000E+000	1.97600E-001	8.00223E-005	4	..........a	-327.66
	14	0.003	1.87670E-001	-8.43245E-010	0.00000E+000	1.87600E-001	8.00223E-005	4	..........a	-327.66
	15	0.0032	1.77570E-001	-9.35248E-010	0.00000E+000	1.77600E-001	8.00223E-005	4	..........a	-327.66
	16	0.0034	1.67670E-001	-1.02625E-009	0.00000E+000	1.67600E-001	8.00223E-005	4	..........a	-327.66
	17	0.0036	1.57570E-001	-1.11326E-009	0.00000E+000	1.57600E-001	8.00223E-005	4	..........a	-327.66
	18	0.0038	1.47370E-001	-1.20326E-009	0.00000E+000	1.47600E-001	8.00223E-005	4	..........a	-327.66
	19	0.004	1.37570E-001	-1.31426E-009	0.00000E+000	1.37600E-001	8.00223E-005	4	..........a	-327.66
	20	0.0042	1.27670E-001	-1.40327E-009	0.00000E+000	1.27600E-001	8.00223E-005	4	..........a	-327.66
	21	0.0044	1.17870E-001	-1.50227E-009	0.00000E+000	1.17600E-001	8.00223E-005	4	..........a	-327.66
	22	0.0046	1.07670E-001	-1.61027E-009	0.00000E+000	1.07600E-001	8.00223E-005	4	..........a	-327.66
	23	0.0048	9.76695E-002	-1.71528E-009	0.00000E+000	9.76000E-002	-2.19978E-004	4	..........a	-327.66
	24	0.005	8.75695E-002	-1.82828E-009	0.00000E+000	8.76000E-002	8.00223E-005	4	..........a	-327.66
	25	0.0052	7.76195E-002	-1.94029E-009	0.00000E+000	7.76000E-002	8.00223E-005	4	..........a	-327.66
	26	0.0054	6.76695E-002	-2.05529E-009	0.00000E+000	6.76000E-002	8.00223E-005	4	..........a	-327.66
	27	0.0056	5.77695E-002	-2.17530E-009	0.00000E+000	5.76000E-002	8.00223E-005	4	..........a	-327.66
	28	0.0058	4.77195E-002	-2.29230E-009	0.00000E+000	4.76000E-002	8.00223E-005	4	..........a	-327.66
	29	0.006	3.75695E-002	-2.42231E-009	0.00000E+000	3.76000E-002	-3.19978E-004	4	..........a	-327.66
	30	0.0062	2.76695E-002	-2.54431E-009	0.00000E+000	2.76000E-002	8.00223E-005	4	..........a	-327.66
	31	0.0064	1.74695E-002	-2.67131E-009	0.00000E+000	1.76000E-002	8.00223E-005	4	..........a	-327.66
	32	0.0066	7.46952E-003	-2.80832E-009	0.00000E+000	7.60000E-003	8.00223E-005	4	..........a	-327.66
	33	0.0068	-2.33048E-003	-2.93933E-009	0.00000E+000	-2.40000E-003	8.00223E-005	4	..........a	-327.66
	34	0.007	-1.23305E-002	-3.08233E-009	0.00000E+000	-1.24000E-002	8.00223E-005	4	..........a	-327.66
	35	0.0072	-2.25305E-002	-3.22234E-009	0.00000E+000	-2.24000E-002	8.00223E-005	4	..........a	-327.66
	36	0.0074	-3.23305E-002	-3.36634E-009	0.00000E+000	-3.24000E-002	8.00223E-005	4	..........a	-327.66
	37	0.0076	-4.24305E-002	-3.51435E-009	0.00000E+000	-4.24000E-002	8.00223E-005	4	..........a	-327.66
	38	0.0078	-5.23305E-002	-3.65835E-009	0.00000E+000	-5.24000E-002	8.00223E-005	4	..........a	-327.66
	39	0.008	-6.25305E-002	-3.80936E-009	0.00000E+000	-6.24000E-002	8.00223E-005	4	..........a	-327.66
	40	0.0082	-7.23305E-002	-3.96336E-009	0.00000E+000	-7.24000E-002	8.00223E-005	4	..........a	-327.66
	41	0.0084	-8.22305E-002	-4.12637E-009	0.00000E+000	-8.24000E-002	8.00223E-005	4	..........a	-327.66
	42	0.0086	-9.21305E-002	-4.28538E-009	0.00000E+000	-9.24000E-002	8.00223E-005	4	..........a	-327.66
	43	0.0088	-1.02330E-001	-4.44238E-009	0.00000E+000	-1.02400E-001	8.00223E-005	4	..........a	-327.66
	44	0.009	-1.12330E-001	-4.61039E-009	0.00000E+000	-1.12400E-001	8.00223E-005	4	..........a	-327.66
	45	0.0092	-1.22330E-001	-4.78140E-009	0.00000E+000	-1.22400E-001	8.00223E-005	4	..........a	-327.66
	46	0.0094	-1.32430E-001	-4.95240E-009	0.00000E+000	-1.32400E-001	8.00223E-005	4	..........a	-327.66
	47	0.0096	-1.42330E-001	-5.11841E-009	0.00000E+000	-1.42400E-001	8.00223E-005	4	..........a	-327.66
	48	0.0098	-1.52330E-001	-5.29442E-009	0.00000E+000	-1.52400E-001	8.00223E-005	4	..........a	-327.66
	49	0.01	-1.62230E-001	-5.47042E-009	0.00000E+000	-1.62400E-001	8.00223E-005	4	..........a	-327.66
	50	0.0102	-1.72230E-001	-5.65143E-009	0.00000E+000	-1.72400E-001	8.00223E-005	4	..........a	-327.66
	51	0.0104	-1.82430E-001	-5.83044E-009	0.00000E+000	-1.82400E-001	-3.19978E-004	4	..........a	-327.66
	52	0.0106	-1.92330E-001	-6.01244E-009	0.00000E+000	-1.92400E-001	8.00223E-005	4	..........a	-327.66
	53	0.0108	-2.02330E-001	-6.20045E-009	0.00000E+000	-2.02400E-001	8.00223E-005	4	..........a	-327.66
	54	0.011	-2.12430E-001	-6.38646E-009	0.00000E+000	-2.12400E-001	8.00223E-005	4	..........a	-327.66
	55	0.0112	-2.22230E-001	-6.57647E-009	0.00000E+000	-2.22400E-001	8.00223E-005	4	..........a	-327.66
	56	0.0114	-2.32330E-001	-6.76747E-009	0.00000E+000	-2.32400E-001	8.00223E-005	4	..........a	-327.66
	57	0.0116	-2.42430E-001	-6.96048E-009	0.00000E+000	-2.42400E-001	8.00223E-005	4	..........a	-327.66
	58	0.0118	-2.52130E-001	-7.15649E-009	0.00000E+000	-2.52400E-001	8.00223E-005	4	..........a	-327.66
	59	0.012	-2.62330E-001	-7.35349E-009	0.00000E+000	-2.62400E-001	8.00223E-005	4	..........a	-327.66
	60	0.0122	-2.72330E-001	-7.54750E-009	0.00000E+000	-2.72400E-001	8.00223E-005	4	..........a	-327.66
	61	0.0124	-2.82130E-001	-7.75251E-009	0.00000E+000	-2.82400E-001	8.00223E-005	4	..........a	-327.66
	62	0.0126	-2.92330E-001	-7.94852E-009	0.00000E+000	-2.92400E-001	8.00223E-005	4	..........a	-327.66
	63	0.0128	-3.02430E-001	-8.15353E-009	0.00000E+000	-3.02400E-001	8.00223E-005	4	..........a	-327.66
	64	0.013	-3.12230E-001	-8.36353E-009	0.00000E+000	-3.12400E-001	8.00223E-005	4	..........a	-327.66
	65	0.0132	-3.22330E-001	-8.55754E-009	0.00000E+000	-3.22400E-001	8.00223E-005	4	..........a	-327.66
	66	0.0134	-3.32330E-001	-8.77855E-009	0.00000E+000	-3.32400E-001	8.00223E-005	4	..........a	-327.66
	67	0.0136	-3.42430E-001	-8.98656E-009	0.00000E+000	-3.42400E-001	8.00223E-005	4	..........a	-327.66
	68	0.0138	-3.52230E-001	-9.19457E-009	0.00000E+000	-3.52400E-001	8.00223E-005	4	..........a	-327.66
	69	0.014	-3.62130E-001	-9.40857E-009	0.00000E+000	-3.62400E-001	8.00223E-005	4	..........a	-327.66
	70	0.0142	-3.72230E-001	-9.62458E-009	0.00000E+000	-3.72400E-001	8.00223E-005	4	..........a	-327.66
	71	0.0144	-3.82230E-001	-9.83659E-009	0.00000E+000	-3.82400E-001	8.00223E-005	4	..........a	-327.66
	72	0.0146	-3.92330E-001	-1.00566E-008	0.00000E+000	-3.92400E-001	8.00223E-005	4	..........a	-327.66
	73	0.0148	-4.02330E-001	-1.02706E-008	0.00000E+000	-4.02400E-001	8.00223E-005	4	..........a	-327.66
	74	0.015	-4.12330E-001	-1.04906E-008	0.00000E+000	-4.12400E-001	8.00223E-005	4	..........a	-327.66
	75	0.0152	-4.22030E-001	-1.07146E-008	0.00000E+000	-4.22400E-001	8.00223E-005	4	..........a	-327.66
	76	0.0154	-4.32330E-001	-1.09356E-008	0.00000E+000	-4.32400E-001	8.00223E-005	4	..........a	-327.66
	77	0.0156	-4.42230E-001	-1.11576E-008	0.00000E+000	-4.42400E-001	8.00223E-005	4	..........a	-327.66
	78	0.0158	-4.52230E-001	-1.13806E-008	0.00000E+000	-4.52400E-001	8.00223E-005	4	..........a	-327.66
	79	0.016	-4.62330E-001	-1.16057E-008	0.00000E+000	-4.62400E-001	8.00223E-005	4	..........a	-327.66
	80	0.0162	-4.72330E-001	-1.18347E-008	0.00000E+000	-4.72400E-001	-2.19978E-004	4	..........a	-327.66
	81	0.0164	-4.82130E-001	-1.20687E-008	0.00000E+000	-4.82400E-001	8.00223E-005	4	..........a	-327.66
	82	0.0166	-4.92230E-001	-1.22987E-008	0.00000E+000	-4.92400E-001	8.00223E-005	4	..........a	-327.66
	83	0.0168	-5.02330E-001	-1.25317E-008	0.00000E+000	-5.02400E-001	8.00223E-005	4	..........a	-327.66
	84	0.017	-5.12330E-001	-1.27637E-008	0.00000E+000	-5.12400E-001	8.00223E-005	4	..........a	-327.66
	85	0.0172	-5.22330E-001	-1.30007E-008	0.00000E+000	-5.22400E-001	8.00223E-005	4	..........a	-327.66
	86	0.0174	-5.32230E-001	-1.32427E-008	0.00000E+000	-5.32400E-001	8.00223E-005	4	..........a	-327.66
	87	0.0176	-5.42130E-001	-1.34847E-008	0.00000E+000	-5.42400E-001	8.00223E-005	4	..........a	-327.66
	88	0.0178	-5.52330E-001	-1.37287E-008	0.00000E+000	-5.52400E-001	8.00223E-005	4	..........a	-327.66
	89	0.018	-5.62230E-001	-1.39727E-008	0.00000E+000	-5.62400E-001	-3.19978E-004	4	..........a	-327.66
	90	0.0182	-5.72230E-001	-1.42288E-008	0.00000E+000	-5.72400E-001	8.00223E-005	4	..........a	-327.66
	91	0.0184	-5.82330E-001	-1.44748E-008	0.00000E+000	-5.82400E-001	8.00223E-005	4	..........a	-327.66
	92	0.0186	-5.92430E-001	-1.47318E-008	0.00000E+000	-5.92400E-001	8.00223E-005	4	..........a	-327.66
	93	0.0188	-6.02331E-001	-1.49838E-008	0.00000E+000	-6.02400E-001	8.00223E-005	4	..........a	-327.66
	94	0.019	-5.92130E-001	-1.51408E-008	0.00000E+000	-5.92400E-001	8.00223E-005	4	..........a	-327.66
	95	0.0192	-5.82231E-001	-1.52578E-008	0.00000E+000	-5.82400E-001	8.00223E-005	4	..........a	-327.66
	96	0.0194	-5.72330E-001	-1.53548E-008	0.00000E+000	-5.72400E-001	8.00223E-005	4	..........a	-327.66
	97	0.0196	-5.62230E-001	-1.54338E-008	0.00000E+000	-5.62400E-001	8.00223E-005	4	..........a	-327.66
	98	0.0198	-5.52230E-001	-1.54928E-008	0.00000E+000	-5.52400E-001	8.00223E-005	4	..........a	-327.66
	99	0.02	-5.42331E-001	-1.55498E-008	0.00000E+000	-5.42400E-001	8.00223E-005	4	..........a	-327.66
	100	0.0202	-5.32230E-001	-1.55908E-008	0.00000E+000	-5.32400E-001	8.00223E-005	4	..........a	-327.66
	101	0.0204	-5.22130E-001	-1.56268E-008	0.00000E+000	-5.22400E-001	8.00223E-005	4	..........a	-327.66
	102	0.0206	-5.12330E-001	-1.56508E-008	0.00000E+000	-5.12400E-001	8.00223E-005	4	..........a	-327.66
	103	0.0208	-5.02230E-001	-1.56668E-008	0.00000E+000	-5.02400E-001	-1.19978E-004	4	..........a	-327.66
	104	0.021	-4.92130E-001	-1.56748E-008	0.00000E+000	-4.92400E-001	8.00223E-005	4	..........a	-327.66
	105	0.0212	-4.82230E-001	-1.56638E-008	0.00000E+000	-4.82400E-001	8.00223E-005	4	..........a	-327.66
	106	0.0214	-4.72330E-001	-1.56648E-008	0.00000E+000	-4.72400E-001	8.00223E-005	4	..........a	-327.66
	107	0.0216	-4.62030E-001	-1.56548E-008	0.00000E+000	-4.62400E-001	8.00223E-005	4	..........a	-327.66
	108	0.0218	-4.52230E-001	-1.56318E-008	0.00000E+000	-4.52400E-001	8.00223E-005	4	..........a	-327.66
	109	0.022	-4.42180E-001	-1.56098E-008	0.00000E+000	-4.42400E-001	8.00223E-005	4	..........a	-327.66
	110	0.0222	-4.32280E-001	-1.55808E-008	0.00000E+000	-4.32400E-001	8.00223E-005	4	..........a	-327.66
	111	0.0224	-4.22330E-001	-1.55458E-008	0.00000E+000	-4.22400E-001	8.00223E-005	4	..........a	-327.66
	112	0.0226	-4.12330E-001	-1.55058E-008	0.00000E+000	-4.12400E-001	8.00223E-005	4	..........a	-327.66
	113	0.0228	-4.02230E-001	-1.54638E-008	0.00000E+000	-4.02400E-001	8.00223E-005	4	..........a	-327.66
	114	0.023	-3.92330E-001	-1.54218E-008	0.00000E+000	-3.92400E-001	8.00223E-005	4	..........a	-327.66
	115	0.0232	-3.82330E-001	-1.53668E-008	0.00000E+000	-3.82400E-001	8.00223E-005	4	..........a	-327.66
	116	0.0234	-3.72330E-001	-1.53148E-008	0.00000E+000	-3.72400E-001	8.00223E-005	4	..........a	-327.66
	117	0.0236	-3.62130E-001	-1.52548E-008	0.00000E+000	-3.62400E-001	8.00223E-005	4	..........a	-327.66
	118	0.0238	-3.52330E-001	-1.51888E-008	0.00000E+000	-3.52400E-001	8.00223E-005	4	..........a	-327.66
	119	0.024	-3.42430E-001	-1.51248E-008	0.00000E+000	-3.42400E-001	8.00223E-005	4	..........a	-327.66
	120	0.0242	-3.32230E-001	-1.50478E-008	0.00000E+000	-3.32400E-001	8.00223E-005	4	..........a	-327.66
	121	0.0244	-3.22130E-001	-1.49768E-008	0.00000E+000	-3.22400E-001	8.00223E-005	4	..........a	-327.66
	122	0.0246	-3.12230E-001	-1.49018E-008	0.00000E+000	-3.12400E-001	8.00223E-005	4	..........a	-327.66
	123	0.0248	-3.02230E-001	-1.48228E-008	0.00000E+000	-3.02400E-001	8.00223E-005	4	..........a	-327.66
	124	0.025	-2.92530E-001	-1.47368E-008	0.00000E+000	-2.92400E-001	8.00223E-005	4	..........a	-327.66
	125	0.0252	-2.82130E-001	-1.46468E-008	0.00000E+000	-2.82400E-001	8.00223E-005	4	..........a	-327.66
	126	0.0254	-2.72330E-001	-1.45648E-008	0.00000E+000	-2.72400E-001	8.00223E-005	4	..........a	-327.66
	127	0.0256	-2.62430E-001	-1.44688E-008	0.00000E+000	-2.62400E-001	8.00223E-005	4	..........a	-327.66
	128	0.0258	-2.52330E-001	-1.43748E-008	0.00000E+000	-2.52400E-001	8.00223E-005	4	..........a	-327.66
	129	0.026	-2.42130E-001	-1.42768E-008	0.00000E+000	-2.42400E-001	8.00223E-005	4	..........a	-327.66
	130	0.0262	-2.32330E-001	-1.41758E-008	0.00000E+000	-2.32400E-001	8.00223E-005	4	..........a	-327.66
	131	0.0264	-2.22580E-001	-1.40758E-008	0.00000E+000	-2.22400E-001	8.00223E-005	4	..........a	-327.66
	132	0.0266	-2.12330E-001	-1.39707E-008	0.00000E+000	-2.12400E-001	8.00223E-005	4	..........a	-327.66
	133	0.0268	-2.02130E-001	-1.38667E-008	0.00000E+000	-2.02400E-001	8.00223E-005	4	..........a	-327.66
	134	0.027	-1.92330E-001	-1.37547E-008	0.00000E+000	-1.92400E-001	8.00223E-005	4	..........a	-327.66
	135	0.0272	-1.82230E-001	-1.36447E-008	0.00000E+000	-1.82400E-001	8.00223E-005	4	..........a	-327.66
	136	0.0274	-1.72330E-001	-1.35327E-008	0.00000E+000	-1.72400E-001	8.00223E-005	4	..........a	-327.66
	137	0.0276	-1.62230E-001	-1.34147E-008	0.00000E+000	-1.62400E-001	8.00223E-005	4	..........a	-327.66
	138	0.0278	-1.52330E-001	-1.32927E-008	0.00000E+000	-1.52400E-001	8.00223E-005	4	..........a	-327.66
	139	0.028	-1.42330E-001	-1.31747E-008	0.00000E+000	-1.42400E-001	8.00223E-005	4	..........a	-327.66
	140	0.0282	-1.32330E-001	-1.30517E-008	0.00000E+000	-1.32400E-001	8.00223E-005	4	..........a	-327.66
	141	0.0284	-1.22430E-001	-1.29287E-008	0.00000E+000	-1.22400E-001	8.00223E-005	4	..........a	-327.66
	142	0.0286	-1.12330E-001	-1.27987E-008	0.00000E+000	-1.12400E-001	8.00223E-005	4	..........a	-327.66
	143	0.0288	-1.02330E-001	-1.26707E-008	0.00000E+000	-1.02400E-001	8.00223E-005	4	..........a	-327.66
	144	0.029	-9.23305E-002	-1.25437E-008	0.00000E+000	-9.24000E-002	8.00223E-005	4	..........a	-327.66
	145	0.0292	-8.21305E-002	-1.24117E-008	0.00000E+000	-8.24000E-002	8.00223E-005	4	..........a	-327.66
	146	0.0294	-7.23305E-002	-1.22747E-008	0.00000E+000	-7.24000E-002	8.00223E-005	4	..........a	-327.66
	147	0.0296	-6.23305E-002	-1.21397E-008	0.00000E+000	-6.24000E-002	8.00223E-005	4	..........a	-327.66
	148	0.0298	-5.25305E-002	-1.20037E-008	0.00000E+000	-5.24000E-002	8.00223E-005	4	..........a	-327.66
	149	0.03	-4.23805E-002	-1.18607E-008	0.00000E+000	-4.24000E-002	8.00223E-005	4	..........a	-327.66
	150	0.0302	-3.23305E-002	-1.17207E-008	0.00000E+000	-3.24000E-002	8.00223E-005	4	..........a	-327.66
	151	0.0304	-2.23305E-002	-1.15787E-008	0.00000E+000	-2.24000E-002	8.00223E-005	4	..........a	-327.66
	152	0.0306	-1.23305E-002	-1.14317E-008	0.00000E+000	-1.24000E-002	8.00223E-005	4	..........a	-327.66
	153	0.0308	-2.23048E-003	-1.12926E-008	0.00000E+000	-2.40000E-003	8.00223E-005	4	..........a	-327.66
	154	0.031	7.66952E-003	-1.11406E-008	0.00000E+000	7.60000E-003	8.00223E-005	4	..........a	-327.66
	155	0.0312	1.74195E-002	-1.09936E-008	0.00000E+000	1.76000E-002	8.00223E-005	4	..........a	-327.66
	156	0.0314	2.76695E-002	-1.08426E-008	0.00000E+000	2.76000E-002	8.00223E-005	4	..........a	-327.66
	157	0.0316	3.77695E-002	-1.06926E-008	0.00000E+000	3.76000E-002	8.00223E-005	4	..........a	-327.66
	158	0.0318	4.76695E-002	-1.05396E-008	0.00000E+000	4.76000E-002	8.00223E-005	4	..........a	-327.66
	159	0.032	5.77695E-002	-1.03856E-008	0.00000E+000	5.76000E-002	8.00223E-005	4	..........a	-327.66
	160	0.0322	6.75695E-002	-1.02256E-008	0.00000E+000	6.76000E-002	8.00223E-005	4	..........a	-327.66
	161	0.0324	7.77695E-002	-1.00746E-008	0.00000E+000	7.76000E-002	8.00223E-005	4	..........a	-327.66
	162	0.0326	8.76695E-002	-9.90859E-009	0.00000E+000	8.76000E-002	8.00223E-005	4	..........a	-327.66
	163	0.0328	9.76695E-002	-9.75659E-009	0.00000E+000	9.76000E-002	8.00223E-005	4	..........a	-327.66
	164	0.033	1.07970E-001	-9.58858E-009	0.00000E+000	1.07600E-001	8.00223E-005	4	..........a	-327.66
	165	0.0332	1.17820E-001	-9.42757E-009	0.00000E+000	1.17600E-001	8.00223E-005	4	..........a	-327.66
	166	0.0334	1.27670E-001	-9.26257E-009	0.00000E+000	1.27600E-001	8.00223E-005	4	..........a	-327.66
	167	0.0336	1.37670E-001	-9.09156E-009	0.00000E+000	1.37600E-001	8.00223E-005	4	..........a	-327.66
	168	0.0338	1.47570E-001	-8.92756E-009	0.00000E+000	1.47600E-001	8.00223E-005	4	..........a	-327.66
	169	0.034	1.57870E-001	-8.75755E-009	0.00000E+000	1.57600E-001	8.00223E-005	4	..........a	-327.66
	170	0.0342	1.67670E-001	-8.58854E-009	0.00000E+000	1.67600E-001	8.00223E-005	4	..........a	-327.66
	171	0.0344	1.77470E-001	-8.42054E-009	0.00000E+000	1.77600E-001	8.00223E-005	4	..........a	-327.66
	172	0.0346	1.87670E-001	-8.24953E-009	0.00000E+000	1.87600E-001	8.00223E-005	4	..........a	-327.66
	173	0.0348	1.97870E-001	-8.06452E-009	0.00000E+000	1.97600E-001	8.00223E-005	4	..........a	-327.66
	174	0.035	2.07470E-001	-7.89752E-009	0.00000E+000	2.07600E-001	8.00223E-005	4	..........a	-327.66
	175	0.0352	2.17770E-001	-7.72251E-009	0.00000E+000	2.17600E-001	8.00223E-005	4	..........a	-327.66
	176	0.0354	2.27670E-001	-7.54650E-009	0.00000E+000	2.27600E-001	8.00223E-005	4	..........a	-327.66
	177	0.0356	2.37670E-001	-7.36950E-009	0.00000E+000	2.37600E-001	8.00223E-005	4	..........a	-327.66
	178	0.0358	2.47470E-001	-7.19349E-009	0.00000E+000	2.47600E-001	8.00223E-005	4	..........a	-327.66
	179	0.036	2.57670E-001	-7.00748E-009	0.00000E+000	2.57600E-001	8.00223E-005	4	..........a	-327.66
	180	0.0362	2.67670E-001	-6.82747E-009	0.00000E+000	2.67600E-001	8.00223E-005	4	..........a	-327.66
	181	0.0364	2.77670E-001	-6.64347E-009	0.00000E+000	2.77600E-001	8.00223E-005	4	..........a	-327.66
	182	0.0366	2.87670E-001	-6.45946E-009	0.00000E+000	2.87600E-001	8.00223E-005	4	..........a	-327.66
	183	0.0368	2.97670E-001	-6.27245E-009	0.00000E+000	2.97600E-001	-3.19978E-004	4	..........a	-327.66
	184	0.037	3.07370E-001	-6.08745E-009	0.00000E+000	3.07600E-001	8.00223E-005	4	..........a	-327.66
	185	0.0372	3.17570E-001	-5.90944E-009	0.00000E+000	3.17600E-001	8.00223E-005	4	..........a	-327.66
	186	0.0374	3.27670E-001	-5.71543E-009	0.00000E+000	3.27600E-001	8.00223E-005	4	..........a	-327.66
	187	0.0376	3.37470E-001	-5.52142E-009	0.00000E+000	3.37600E-001	8.00223E-005	4	..........a	-327.66
	188	0.0378	3.47570E-001	-5.33942E-009	0.00000E+000	3.47600E-001	8.00223E-005	4	..........a	-327.66
	189	0.038	3.57570E-001	-5.14841E-009	0.00000E+000	3.57600E-001	8.00223E-005	4	..........a	-327.66
	190	0.0382	3.67670E-001	-4.95340E-009	0.00000E+000	3.67600E-001	8.00223E-005	4	..........a	-327.66
	191	0.0384	3.77570E-001	-4.76340E-009	0.00000E+000	3.77600E-001	8.00223E-005	4	..........a	-327.66
	192	0.0386	3.87570E-001	-4.57239E-009	0.00000E+000	3.87600E-001	8.00223E-005	4	..........a	-327.66
	193	0.0388	3.97870E-001	-4.37838E-009	0.00000E+000	3.97600E-001	8.00223E-005	4	..........a	-327.66
	194	0.039	4.07670E-001	-4.18337E-009	0.00000E+000	4.07600E-001	8.00223E-005	4	..........a	-327.66
	195	0.0392	4.17470E-001	-3.98937E-009	0.00000E+000	4.17600E-001	8.00223E-005	4	..........a	-327.66
	196	0.0394	4.27570E-001	-3.78936E-009	0.00000E+000	4.27600E-001	8.00223E-005	4	..........a	-327.66
	197	0.0396	4.37770E-001	-3.59335E-009	0.00000E+000	4.37600E-001	8.00223E-005	4	..........a	-327.66
	198	0.0398	4.47570E-001	-3.39434E-009	0.00000E+000	4.47600E-001	8.00223E-005	4	..........a	-327.66
	199	0.04	4.57570E-001	-3.19834E-009	0.00000E+000	4.57600E-001	8.00223E-005	4	..........a	-327.66
	200	0.0402	4.67670E-001	-3.00033E-009	0.00000E+000	4.67600E-001	8.00223E-005	4	..........a	-327.66
	201	0.0404	4.77670E-001	-2.79432E-009	0.00000E+000	4.77600E-001	8.00223E-005	4	..........a	-327.66
	202	0.0406	4.87570E-001	-2.59631E-009	0.00000E+000	4.87600E-001	8.00223E-005	4	..........a	-327.66
	203	0.0408	4.97570E-001	-2.39430E-009	0.00000E+000	4.97600E-001	8.00223E-005	4	..........a	-327.66
	204	0.041	5.07369E-001	-2.18930E-009	0.00000E+000	5.07600E-001	8.00223E-005	4	..........a	-327.66
	205	0.0412	5.17669E-001	-1.98229E-009	0.00000E+000	5.17600E-001	8.00223E-005	4	..........a	-327.66
	206	0.0414	5.27420E-001	-1.78028E-009	0.00000E+000	5.27600E-001	8.00223E-005	4	..........a	-327.66
	207	0.0416	5.37569E-001	-1.57627E-009	0.00000E+000	5.37600E-001	8.00223E-005	4	..........a	-327.66
	208	0.0418	5.47570E-001	-1.36626E-009	0.00000E+000	5.47600E-001	8.00223E-005	4	..........a	-327.66
	209	0.042	5.57769E-001	-1.15426E-009	0.00000E+000	5.57600E-001	8.00223E-005	4	..........a	-327.66
	210	0.0422	5.67569E-001	-9.43249E-010	0.00000E+000	5.67600E-001	8.00223E-005	4	..........a	-327.66
	211	0.0424	5.77769E-001	-7.35241E-010	0.00000E+000	5.77600E-001	8.00223E-005	4	..........a	-327.66
	212	0.0426	5.87469E-001	-5.22232E-010	0.00000E+000	5.87600E-001	8.00223E-005	4	..........a	-327.66
	213	0.0428	5.97369E-001	-3.08224E-010	0.00000E+000	5.97600E-001	8.00223E-005	4	..........a	-327.66
	214	0.043	6.07569E-001	-9.02158E-011	0.00000E+000	6.07600E-001	8.00223E-005	4	..........a	-327.66
	215	0.0432	6.17469E-001	1.30793E-010	0.00000E+000	6.17600E-001	8.00223E-005	4	..........a	-327.66
	216	0.0434	6.27469E-001	3.43801E-010	0.00000E+000	6.27600E-001	8.00223E-005	4	..........a	-327.66
	217	0.0436	6.37469E-001	5.65809E-010	0.00000E+000	6.37600E-001	8.00223E-005	4	..........a	-327.66
	218	0.0438	6.47420E-001	7.90818E-010	0.00000E+000	6.47600E-001	8.00223E-005	4	..........a	-327.66
	219	0.044	6.57269E-001	1.01483E-009	0.00000E+000	6.57600E-001	-3.19978E-004	4	..........a	-327.66
	220	0.0442	6.67569E-001	1.24084E-009	0.00000E+000	6.67600E-001	8.00223E-005	4	..........a	-327.66
	221	0.0444	6.77469E-001	1.47084E-009	0.00000E+000	6.77600E-001	8.00223E-005	4	..........a	-327.66
	222	0.0446	6.87469E-001	1.70185E-009	0.00000E+000	6.87600E-001	8.00223E-005	4	..........a	-327.66
	223	0.0448	6.97369E-001	1.93686E-009	0.00000E+000	6.97600E-001	8.00223E-005	4	..........a	-327.66
	224	0.045	7.07569E-001	2.17187E-009	0.00000E+000	7.07600E-001	8.00223E-005	4	..........a	-327.66
	225	0.0452	7.17469E-001	2.41288E-009	0.00000E+000	7.17600E-001	8.00223E-005	4	..........a	-327.66
	226	0.0454	7.27419E-001	2.64789E-009	0.00000E+000	7.27600E-001	8.00223E-005	4	..........a	-327.66
	227	0.0456	7.37419E-001	2.89890E-009	0.00000E+000	7.37600E-001	8.00223E-005	4	..........a	-327.66
	228	0.0458	7.47469E-001	3.14591E-009	0.00000E+000	7.47600E-001	8.00223E-005	4	..........a	-327.66
	229	0.046	7.57270E-001	3.39692E-009	0.00000E+000	7.57600E-001	-4.19978E-004	4	..........a	-327.66
	230	0.0462	7.67419E-001	3.65393E-009	0.00000E+000	7.67600E-001	8.00223E-005	4	..........a	-327.66
	231	0.0464	7.77569E-001	3.90994E-009	0.00000E+000	7.77600E-001	8.00223E-005	4	..........a	-327.66
	232	0.0466	7.87569E-001	4.16995E-009	0.00000E+000	7.87600E-001	8.00223E-005	4	..........a	-327.66
	233	0.0468	7.97469E-001	4.43596E-009	0.00000E+000	7.97600E-001	8.00223E-005	4	..........a	-327.66
CURVE2	TABLE
	Pt	T	Vf	Im	Vu	Sig	Ach	IERange	Over	Temp
	#	s	V vs. Ref.	A	V	V	V	#	bits	deg C
	234	0.047	7.89970E-001	4.61796E-009	0.00000E+000	7.90000E-001	8.00223E-005	4	..........a	-327.66
	235	0.0472	7.79969E-001	4.76097E-009	0.00000E+000	7.80000E-001	8.00223E-005	4	..........a	-327.66
	236	0.0474	7.69870E-001	4.87497E-009	0.00000E+000	7.70000E-001	8.00223E-005	4	..........a	-327.66
	237	0.0476	7.60019E-001	4.97198E-009	0.00000E+000	7.60000E-001	8.00223E-005	4	..........a	-327.66
	238	0.0478	7.49869E-001	5.05098E-009	0.00000E+000	7.50000E-001	8.00223E-005	4	..........a	-327.66
	239	0.048	7.39969E-001	5.11598E-009	0.00000E+000	7.40000E-001	8.00223E-005	4	..........a	-327.66
	240	0.0482	7.29970E-001	5.16999E-009	0.00000E+000	7.30000E-001	8.00223E-005	4	..........a	-327.66
	241	0.0484	7.19869E-001	5.21199E-009	0.00000E+000	7.20000E-001	8.00223E-005	4	..........a	-327.66
	242	0.0486	7.09870E-001	5.24599E-009	0.00000E+000	7.10000E-001	8.00223E-005	4	..........a	-327.66
	243	0.0488	6.99969E-001	5.27299E-009	0.00000E+000	7.00000E-001	8.00223E-005	4	..........a	-327.66
	244	0.049	6.89969E-001	5.28599E-009	0.00000E+000	6.90000E-001	8.00223E-005	4	..........a	-327.66
	245	0.0492	6.79969E-001	5.29399E-009	0.00000E+000	6.80000E-001	8.00223E-005	4	..........a	-327.66
	246	0.0494	6.70069E-001	5.28999E-009	0.00000E+000	6.70000E-001	8.00223E-005	4	..........a	-327.66
	247	0.0496	6.59970E-001	5.28999E-009	0.00000E+000	6.60000E-001	8.00223E-005	4	..........a	-327.66
	248	0.0498	6.49969E-001	5.28099E-009	0.00000E+000	6.50000E-001	8.00223E-005	4	..........a	-327.66
	249	0.05	6.39820E-001	5.26299E-009	0.00000E+000	6.40000E-001	8.00223E-005	4	..........a	-327.66
	250	0.0502	6.30069E-001	5.24199E-009	0.00000E+000	6.30000E-001	8.00223E-005	4	..........a	-327.66
	251	0.0504	6.19869E-001	5.21399E-009	0.00000E+000	6.20000E-001	8.00223E-005	4	..........a	-327.66
	252	0.0506	6.09969E-001	5.18399E-009	0.00000E+000	6.10000E-001	8.00223E-005	4	..........a	-327.66
	253	0.0508	6.00069E-001	5.15399E-009	0.00000E+000	6.00000E-001	8.00223E-005	4	..........a	-327.66
	254	0.051	5.89969E-001	5.11398E-009	0.00000E+000	5.90000E-001	8.00223E-005	4	..........a	-327.66
	255	0.0512	5.79969E-001	5.07198E-009	0.00000E+000	5.80000E-001	8.00223E-005	4	..........a	-327.66
	256	0.0514	5.69869E-001	5.02398E-009	0.00000E+000	5.70000E-001	8.00223E-005	4	..........a	-327.66
	257	0.0516	5.59819E-001	4.97698E-009	0.00000E+000	5.60000E-001	8.00223E-005	4	..........a	-327.66
	258	0.0518	5.50070E-001	4.92398E-009	0.00000E+000	5.50000E-001	8.00223E-005	4	..........a	-327.66
	259	0.052	5.40020E-001	4.86697E-009	0.00000E+000	5.40000E-001	8.00223E-005	4	..........a	-327.66
	260	0.0522	5.29970E-001	4.80497E-009	0.00000E+000	5.30000E-001	8.00223E-005	4	..........a	-327.66
	261	0.0524	5.19870E-001	4.74997E-009	0.00000E+000	5.20000E-001	8.00223E-005	4	..........a	-327.66
	262	0.0526	5.09969E-001	4.67997E-009	0.00000E+000	5.10000E-001	8.00223E-005	4	..........a	-327.66
	263	0.0528	4.99920E-001	4.60996E-009	0.00000E+000	5.00000E-001	8.00223E-005	4	..........a	-327.66
	264	0.053	4.90070E-001	4.53696E-009	0.00000E+000	4.90000E-001	8.00223E-005	4	..........a	-327.66
	265	0.0532	4.80020E-001	4.46396E-009	0.00000E+000	4.80000E-001	8.00223E-005	4	..........a	-327.66
	266	0.0534	4.70070E-001	4.38296E-009	0.00000E+000	4.70000E-001	8.00223E-005	4	..........a	-327.66
	267	0.0536	4.59770E-001	4.30495E-009	0.00000E+000	4.60000E-001	-2.19978E-004	4	..........a	-327.66
	268	0.0538	4.49670E-001	4.22295E-009	0.00000E+000	4.50000E-001	8.00223E-005	4	..........a	-327.66
	269	0.054	4.39870E-001	4.13895E-009	0.00000E+000	4.40000E-001	8.00223E-005	4	..........a	-327.66
	270	0.0542	4.29870E-001	4.04794E-009	0.00000E+000	4.30000E-001	8.00223E-005	4	..........a	-327.66
	271	0.0544	4.20170E-001	3.95294E-009	0.00000E+000	4.20000E-001	8.00223E-005	4	..........a	-327.66
	272	0.0546	4.09870E-001	3.86294E-009	0.00000E+000	4.10000E-001	8.00223E-005	4	..........a	-327.66
	273	0.0548	4.00070E-001	3.76993E-009	0.00000E+000	4.00000E-001	8.00223E-005	4	..........a	-327.66
	274	0.055	3.89870E-001	3.66793E-009	0.00000E+000	3.90000E-001	8.00223E-005	4	..........a	-327.66
	275	0.0552	3.80170E-001	3.56992E-009	0.00000E+000	3.80000E-001	8.00223E-005	4	..........a	-327.66
	276	0.0554	3.70070E-001	3.46692E-009	0.00000E+000	3.70000E-001	8.00223E-005	4	..........a	-327.66
	277	0.0556	3.59870E-001	3.36292E-009	0.00000E+000	3.60000E-001	8.00223E-005	4	..........a	-327.66
	278	0.0558	3.50070E-001	3.25291E-009	0.00000E+000	3.50000E-001	8.00223E-005	4	..........a	-327.66
	279	0.056	3.40070E-001	3.14491E-009	0.00000E+000	3.40000E-001	8.00223E-005	4	..........a	-327.66
	280	0.0562	3.29970E-001	3.02990E-009	0.00000E+000	3.30000E-001	8.00223E-005	4	..........a	-327.66
	281	0.0564	3.19870E-001	2.91290E-009	0.00000E+000	3.20000E-001	8.00223E-005	4	..........a	-327.66
	282	0.0566	3.09920E-001	2.79389E-009	0.00000E+000	3.10000E-001	8.00223E-005	4	..........a	-327.66
	283	0.0568	2.99870E-001	2.68189E-009	0.00000E+000	3.00000E-001	8.00223E-005	4	..........a	-327.66
	284	0.057	2.89870E-001	2.55789E-009	0.00000E+000	2.90000E-001	8.00223E-005	4	..........a	-327.66
	285	0.0572	2.79870E-001	2.43688E-009	0.00000E+000	2.80000E-001	8.00223E-005	4	..........a	-327.66
	286	0.0574	2.69770E-001	2.30988E-009	0.00000E+000	2.70000E-001	8.00223E-005	4	..........a	-327.66
	287	0.0576	2.60170E-001	2.18187E-009	0.00000E+000	2.60000E-001	8.00223E-005	4	..........a	-327.66
	288	0.0578	2.49870E-001	2.04987E-009	0.00000E+000	2.50000E-001	8.00223E-005	4	..........a	-327.66
	289	0.058	2.40020E-001	1.91786E-009	0.00000E+000	2.40000E-001	8.00223E-005	4	..........a	-327.66
	290	0.0582	2.29970E-001	1.78086E-009	0.00000E+000	2.30000E-001	8.00223E-005	4	..........a	-327.66
	291	0.0584	2.20070E-001	1.64585E-009	0.00000E+000	2.20000E-001	8.00223E-005	4	..........a	-327.66
	292	0.0586	2.09970E-001	1.50685E-009	0.00000E+000	2.10000E-001	8.00223E-005	4	..........a	-327.66
	293	0.0588	2.00070E-001	1.36484E-009	0.00000E+000	2.00000E-001	8.00223E-005	4	..........a	-327.66
	294	0.059	1.90070E-001	1.22383E-009	0.00000E+000	1.90000E-001	8.00223E-005	4	..........a	-327.66
	295	0.0592	1.79870E-001	1.07783E-009	0.00000E+000	1.80000E-001	8.00223E-005	4	..........a	-327.66
	296	0.0594	1.69970E-001	9.31823E-010	0.00000E+000	1.70000E-001	8.00223E-005	4	..........a	-327.66
	297	0.0596	1.59920E-001	7.85818E-010	0.00000E+000	1.60000E-001	8.00223E-005	4	..........a	-327.66
	298	0.0598	1.49970E-001	6.31812E-010	0.00000E+000	1.50000E-001	8.00223E-005	4	..........a	-327.66
	299	0.06	1.40170E-001	4.81806E-010	0.00000E+000	1.40000E-001	8.00223E-005	4	..........a	-327.66
	300	0.0602	1.29970E-001	3.22800E-010	0.00000E+000	1.30000E-001	8.00223E-005	4	..........a	-327.66
	301	0.0604	1.19970E-001	1.66794E-010	0.00000E+000	1.20000E-001	8.00223E-005	4	..........a	-327.66
	302	0.0606	1.10070E-001	1.27881E-011	0.00000E+000	1.10000E-001	8.00223E-005	4	..........a	-327.66
	303	0.0608	1.00220E-001	-1.49218E-010	0.00000E+000	1.00000E-001	8.00223E-005	4	..........a	-327.66
	304	0.061	8.99695E-002	-3.12224E-010	0.00000E+000	9.00000E-002	8.00223E-005	4	..........a	-327.66
	305	0.0612	8.00695E-002	-4.69230E-010	0.00000E+000	8.00000E-002	8.00223E-005	4	..........a	-327.66
	306	0.0614	7.01695E-002	-6.30237E-010	0.00000E+000	7.00000E-002	8.00223E-005	4	..........a	-327.66
	307	0.0616	6.00695E-002	-8.04243E-010	0.00000E+000	6.00000E-002	8.00223E-005	4	..........a	-327.66
	308	0.0618	5.00695E-002	-9.59249E-010	0.00000E+000	5.00000E-002	8.00223E-005	4	..........a	-327.66
	309	0.062	4.02695E-002	-1.12626E-009	0.00000E+000	4.00000E-002	8.00223E-005	4	..........a	-327.66
	310	0.0622	3.00695E-002	-1.30126E-009	0.00000E+000	3.00000E-002	8.00223E-005	4	..........a	-327.66
	311	0.0624	1.99695E-002	-1.46227E-009	0.00000E+000	2.00000E-002	8.00223E-005	4	..........a	-327.66
	312	0.0626	1.00695E-002	-1.63128E-009	0.00000E+000	1.00000E-002	8.00223E-005	4	..........a	-327.66
	313	0.0628	-3.04808E-005	-1.80228E-009	0.00000E+000	7.45058E-009	8.00223E-005	4	..........a	-327.66
	314	0.063	-1.01305E-002	-1.97629E-009	0.00000E+000	-1.00000E-002	8.00223E-005	4	..........a	-327.66
	315	0.0632	-1.99305E-002	-2.14429E-009	0.00000E+000	-2.00000E-002	8.00223E-005	4	..........a	-327.66
	316	0.0634	-3.00305E-002	-2.31830E-009	0.00000E+000	-3.00000E-002	8.00223E-005	4	..........a	-327.66
	317	0.0636	-3.99305E-002	-2.49231E-009	0.00000E+000	-4.00000E-002	8.00223E-005	4	..........a	-327.66
	318	0.0638	-4.99305E-002	-2.66831E-009	0.00000E+000	-5.00000E-002	8.00223E-005	4	..........a	-327.66
	319	0.064	-5.98305E-002	-2.85032E-009	0.00000E+000	-6.00000E-002	8.00223E-005	4	..........a	-327.66
	320	0.0642	-6.99305E-002	-3.01833E-009	0.00000E+000	-7.00000E-002	-3.19978E-004	4	..........a	-327.66
	321	0.0644	-7.99305E-002	-3.19434E-009	0.00000E+000	-8.00000E-002	8.00223E-005	4	..........a	-327.66
	322	0.0646	-8.99305E-002	-3.37434E-009	0.00000E+000	-9.00000E-002	8.00223E-005	4	..........a	-327.66
	323	0.0648	-9.99305E-002	-3.55035E-009	0.00000E+000	-1.00000E-001	8.00223E-005	4	..........a	-327.66
	324	0.065	-1.10030E-001	-3.72536E-009	0.00000E+000	-1.10000E-001	8.00223E-005	4	..........a	-327.66
	325	0.0652	-1.19930E-001	-3.90236E-009	0.00000E+000	-1.20000E-001	8.00223E-005	4	..........a	-327.66
	326	0.0654	-1.29830E-001	-4.07537E-009	0.00000E+000	-1.30000E-001	8.00223E-005	4	..........a	-327.66
	327	0.0656	-1.40330E-001	-4.26238E-009	0.00000E+000	-1.40000E-001	8.00223E-005	4	..........a	-327.66
	328	0.0658	-1.50030E-001	-4.44638E-009	0.00000E+000	-1.50000E-001	8.00223E-005	4	..........a	-327.66
	329	0.066	-1.59930E-001	-4.62239E-009	0.00000E+000	-1.60000E-001	8.00223E-005	4	..........a	-327.66
	330	0.0662	-1.69930E-001	-4.80240E-009	0.00000E+000	-1.70000E-001	-3.19978E-004	4	..........a	-327.66
	331	0.0664	-1.79930E-001	-4.97940E-009	0.00000E+000	-1.80000E-001	8.00223E-005	4	..........a	-327.66
	332	0.0666	-1.89930E-001	-5.16241E-009	0.00000E+000	-1.90000E-001	8.00223E-005	4	..........a	-327.66
	333	0.0668	-2.00030E-001	-5.34342E-009	0.00000E+000	-2.00000E-001	-1.19978E-004	4	..........a	-327.66
	334	0.067	-2.10030E-001	-5.53043E-009	0.00000E+000	-2.10000E-001	8.00223E-005	4	..........a	-327.66
	335	0.0672	-2.19930E-001	-5.70843E-009	0.00000E+000	-2.20000E-001	-4.19978E-004	4	..........a	-327.66
	336	0.0674	-2.29980E-001	-5.89044E-009	0.00000E+000	-2.30000E-001	8.00223E-005	4	..........a	-327.66
	337	0.0676	-2.39830E-001	-6.07145E-009	0.00000E+000	-2.40000E-001	8.00223E-005	4	..........a	-327.66
	338	0.0678	-2.49930E-001	-6.25345E-009	0.00000E+000	-2.50000E-001	8.00223E-005	4	..........a	-327.66
	339	0.068	-2.59830E-001	-6.43646E-009	0.00000E+000	-2.60000E-001	8.00223E-005	4	..........a	-327.66
	340	0.0682	-2.69930E-001	-6.62047E-009	0.00000E+000	-2.70000E-001	8.00223E-005	4	..........a	-327.66
	341	0.0684	-2.79930E-001	-6.80147E-009	0.00000E+000	-2.80000E-001	8.00223E-005	4	..........a	-327.66
	342	0.0686	-2.89930E-001	-6.98848E-009	0.00000E+000	-2.90000E-001	8.00223E-005	4	..........a	-327.66
	343	0.0688	-2.99830E-001	-7.17049E-009	0.00000E+000	-3.00000E-001	8.00223E-005	4	..........a	-327.66
	344	0.069	-3.10030E-001	-7.35649E-009	0.00000E+000	-3.10000E-001	8.00223E-005	4	..........a	-327.66
	345	0.0692	-3.19830E-001	-7.53550E-009	0.00000E+000	-3.20000E-001	8.00223E-005	4	..........a	-327.66
[...]
	2605	0.5212	-5.19930E-001	-7.79851E-009	0.00000E+000	-5.20000E-001	8.00223E-005	4	..........a	-327.66
	2606	0.5214	-5.29930E-001	-7.99952E-009	0.00000E+000	-5.30000E-001	8.00223E-005	4	..........a	-327.66
	2607	0.5216	-5.39730E-001	-8.20453E-009	0.00000E+000	-5.40000E-001	8.00223E-005	4	..........a	-327.66
	2608	0.5218	-5.49931E-001	-8.40754E-009	0.00000E+000	-5.50000E-001	8.00223E-005	4	..........a	-327.66
	2609	0.522	-5.59830E-001	-8.61654E-009	0.00000E+000	-5.60000E-001	-3.19978E-004	4	..........a	-327.66
	2610	0.5222	-5.69930E-001	-8.81955E-009	0.00000E+000	-5.70000E-001	8.00223E-005	4	..........a	-327.66
	2611	0.5224	-5.79731E-001	-9.03056E-009	0.00000E+000	-5.80000E-001	8.00223E-005	4	..........a	-327.66
	2612	0.5226	-5.89830E-001	-9.24557E-009	0.00000E+000	-5.90000E-001	8.00223E-005	4	..........a	-327.66
	2613	0.5228	-6.00181E-001	-9.45958E-009	0.00000E+000	-6.00000E-001	8.00223E-005	4	..........a	-327.66
	2614	0.523	-5.89930E-001	-9.56758E-009	0.00000E+000	-5.90000E-001	8.00223E-005	4	..........a	-327.66
	2615	0.5232	-5.79830E-001	-9.66058E-009	0.00000E+000	-5.80000E-001	8.00223E-005	4	..........a	-327.66
	2616	0.5234	-5.69930E-001	-9.72759E-009	0.00000E+000	-5.70000E-001	8.00223E-005	4	..........a	-327.66
	2617	0.5236	-5.59730E-001	-9.78659E-009	0.00000E+000	-5.60000E-001	8.00223E-005	4	..........a	-327.66
	2618	0.5238	-5.50030E-001	-9.83259E-009	0.00000E+000	-5.50000E-001	8.00223E-005	4	..........a	-327.66
	2619	0.524	-5.39730E-001	-9.86459E-009	0.00000E+000	-5.40000E-001	8.00223E-005	4	..........a	-327.66
	2620	0.5242	-5.29831E-001	-9.89359E-009	0.00000E+000	-5.30000E-001	8.00223E-005	4	..........a	-327.66
	2621	0.5244	-5.19930E-001	-9.91059E-009	0.00000E+000	-5.20000E-001	8.00223E-005	4	..........a	-327.66
	2622	0.5246	-5.10031E-001	-9.92259E-009	0.00000E+000	-5.10000E-001	8.00223E-005	4	..........a	-327.66
	2623	0.5248	-4.99930E-001	-9.92459E-009	0.00000E+000	-5.00000E-001	8.00223E-005	4	..........a	-327.66
	2624	0.525	-4.89980E-001	-9.92159E-009	0.00000E+000	-4.90000E-001	8.00223E-005	4	..........a	-327.66
	2625	0.5252	-4.79930E-001	-9.91459E-009	0.00000E+000	-4.80000E-001	8.00223E-005	4	..........a	-327.66
	2626	0.5254	-4.69930E-001	-9.89959E-009	0.00000E+000	-4.70000E-001	8.00223E-005	4	..........a	-327.66
	2627	0.5256	-4.59730E-001	-9.87859E-009	0.00000E+000	-4.60000E-001	8.00223E-005	4	..........a	-327.66
	2628	0.5258	-4.49930E-001	-9.85659E-009	0.00000E+000	-4.50000E-001	8.00223E-005	4	..........a	-327.66
	2629	0.526	-4.39830E-001	-9.82759E-009	0.00000E+000	-4.40000E-001	8.00223E-005	4	..........a	-327.66
	2630	0.5262	-4.29830E-001	-9.79459E-009	0.00000E+000	-4.30000E-001	8.00223E-005	4	..........a	-327.66
	2631	0.5264	-4.19830E-001	-9.75659E-009	0.00000E+000	-4.20000E-001	8.00223E-005	4	..........a	-327.66
	2632	0.5266	-4.09930E-001	-9.71459E-009	0.00000E+000	-4.10000E-001	8.00223E-005	4	..........a	-327.66
	2633	0.5268	-3.99930E-001	-9.66658E-009	0.00000E+000	-4.00000E-001	8.00223E-005	4	..........a	-327.66
	2634	0.527	-3.89830E-001	-9.61858E-009	0.00000E+000	-3.90000E-001	8.00223E-005	4	..........a	-327.66
	2635	0.5272	-3.79830E-001	-9.56658E-009	0.00000E+000	-3.80000E-001	8.00223E-005	4	..........a	-327.66
	2636	0.5274	-3.69930E-001	-9.50858E-009	0.00000E+000	-3.70000E-001	8.00223E-005	4	..........a	-327.66
	2637	0.5276	-3.59830E-001	-9.44658E-009	0.00000E+000	-3.60000E-001	8.00223E-005	4	..........a	-327.66
	2638	0.5278	-3.49830E-001	-9.38257E-009	0.00000E+000	-3.50000E-001	8.00223E-005	4	..........a	-327.66
	2639	0.528	-3.39830E-001	-9.31457E-009	0.00000E+000	-3.40000E-001	8.00223E-005	4	..........a	-327.66
	2640	0.5282	-3.29930E-001	-9.25057E-009	0.00000E+000	-3.30000E-001	8.00223E-005	4	..........a	-327.66
	2641	0.5284	-3.19830E-001	-9.17056E-009	0.00000E+000	-3.20000E-001	8.00223E-005	4	..........a	-327.66
	2642	0.5286	-3.09930E-001	-9.08856E-009	0.00000E+000	-3.10000E-001	8.00223E-005	4	..........a	-327.66
	2643	0.5288	-2.99930E-001	-9.01656E-009	0.00000E+000	-3.00000E-001	8.00223E-005	4	..........a	-327.66
	2644	0.529	-2.89830E-001	-8.93556E-009	0.00000E+000	-2.90000E-001	8.00223E-005	4	..........a	-327.66
	2645	0.5292	-2.79780E-001	-8.85155E-009	0.00000E+000	-2.80000E-001	8.00223E-005	4	..........a	-327.66
	2646	0.5294	-2.69930E-001	-8.76355E-009	0.00000E+000	-2.70000E-001	8.00223E-005	4	..........a	-327.66
	2647	0.5296	-2.59830E-001	-8.66755E-009	0.00000E+000	-2.60000E-001	8.00223E-005	4	..........a	-327.66
	2648	0.5298	-2.49930E-001	-8.58054E-009	0.00000E+000	-2.50000E-001	8.00223E-005	4	..........a	-327.66
	2649	0.53	-2.39730E-001	-8.48854E-009	0.00000E+000	-2.40000E-001	8.00223E-005	4	..........a	-327.66
	2650	0.5302	-2.30030E-001	-8.39053E-009	0.00000E+000	-2.30000E-001	8.00223E-005	4	..........a	-327.66
	2651	0.5304	-2.19930E-001	-8.29453E-009	0.00000E+000	-2.20000E-001	8.00223E-005	4	..........a	-327.66
	2652	0.5306	-2.10030E-001	-8.18953E-009	0.00000E+000	-2.10000E-001	8.00223E-005	4	..........a	-327.66
	2653	0.5308	-1.99830E-001	-8.09252E-009	0.00000E+000	-2.00000E-001	8.00223E-005	4	..........a	-327.66
	2654	0.531	-1.90330E-001	-7.98652E-009	0.00000E+000	-1.90000E-001	8.00223E-005	4	..........a	-327.66
	2655	0.5312	-1.79730E-001	-7.87651E-009	0.00000E+000	-1.80000E-001	8.00223E-005	4	..........a	-327.66
	2656	0.5314	-1.69930E-001	-7.76751E-009	0.00000E+000	-1.70000E-001	8.00223E-005	4	..........a	-327.66
	2657	0.5316	-1.59830E-001	-7.65851E-009	0.00000E+000	-1.60000E-001	8.00223E-005	4	..........a	-327.66
	2658	0.5318	-1.49930E-001	-7.54050E-009	0.00000E+000	-1.50000E-001	8.00223E-005	4	..........a	-327.66
	2659	0.532	-1.39830E-001	-7.42950E-009	0.00000E+000	-1.40000E-001	8.00223E-005	4	..........a	-327.66
	2660	0.5322	-1.29930E-001	-7.31549E-009	0.00000E+000	-1.30000E-001	8.00223E-005	4	..........a	-327.66
	2661	0.5324	-1.19830E-001	-7.20249E-009	0.00000E+000	-1.20000E-001	8.00223E-005	4	..........a	-327.66
	2662	0.5326	-1.10030E-001	-7.08248E-009	0.00000E+000	-1.10000E-001	8.00223E-005	4	..........a	-327.66
	2663	0.5328	-9.99305E-002	-6.96248E-009	0.00000E+000	-1.00000E-001	8.00223E-005	4	..........a	-327.66
	2664	0.533	-9.00305E-002	-6.83848E-009	0.00000E+000	-9.00000E-002	8.00223E-005	4	..........a	-327.66
	2665	0.5332	-7.99305E-002	-6.71647E-009	0.00000E+000	-8.00000E-002	8.00223E-005	4	..........a	-327.66
	2666	0.5334	-6.99305E-002	-6.59447E-009	0.00000E+000	-7.00000E-002	8.00223E-005	4	..........a	-327.66
	2667	0.5336	-5.98305E-002	-6.46646E-009	0.00000E+000	-6.00000E-002	8.00223E-005	4	..........a	-327.66
	2668	0.5338	-4.99305E-002	-6.33446E-009	0.00000E+000	-5.00000E-002	8.00223E-005	4	..........a	-327.66
	2669	0.534	-3.99305E-002	-6.20445E-009	0.00000E+000	-4.00000E-002	8.00223E-005	4	..........a	-327.66
	2670	0.5342	-3.00305E-002	-6.07445E-009	0.00000E+000	-3.00000E-002	8.00223E-005	4	..........a	-327.66
	2671	0.5344	-1.99305E-002	-5.94244E-009	0.00000E+000	-2.00000E-002	8.00223E-005	4	..........a	-327.66
	2672	0.5346	-1.00305E-002	-5.80844E-009	0.00000E+000	-1.00000E-002	-1.19978E-004	4	..........a	-327.66
	2673	0.5348	-1.30481E-004	-5.67443E-009	0.00000E+000	7.45058E-009	8.00223E-005	4	..........a	-327.66
	2674	0.535	1.01695E-002	-5.54043E-009	0.00000E+000	1.00000E-002	8.00223E-005	4	..........a	-327.66
	2675	0.5352	2.02195E-002	-5.40342E-009	0.00000E+000	2.00000E-002	8.00223E-005	4	..........a	-327.66
	2676	0.5354	3.00695E-002	-5.25241E-009	0.00000E+000	3.00000E-002	8.00223E-005	4	..........a	-327.66
	2677	0.5356	4.00695E-002	-5.12441E-009	0.00000E+000	4.00000E-002	-4.19978E-004	4	..........a	-327.66
	2678	0.5358	5.00695E-002	-4.97140E-009	0.00000E+000	5.00000E-002	8.00223E-005	4	..........a	-327.66
	2679	0.536	5.99695E-002	-4.83540E-009	0.00000E+000	6.00000E-002	8.00223E-005	4	..........a	-327.66
	2680	0.5362	6.99695E-002	-4.69239E-009	0.00000E+000	7.00000E-002	8.00223E-005	4	..........a	-327.66
	2681	0.5364	8.01695E-002	-4.54639E-009	0.00000E+000	8.00000E-002	8.00223E-005	4	..........a	-327.66
	2682	0.5366	8.98695E-002	-4.40438E-009	0.00000E+000	9.00000E-002	8.00223E-005	4	..........a	-327.66
	2683	0.5368	1.00270E-001	-4.25038E-009	0.00000E+000	1.00000E-001	8.00223E-005	4	..........a	-327.66
	2684	0.537	1.10070E-001	-4.10337E-009	0.00000E+000	1.10000E-001	8.00223E-005	4	..........a	-327.66
	2685	0.5372	1.20170E-001	-3.95136E-009	0.00000E+000	1.20000E-001	8.00223E-005	4	..........a	-327.66
	2686	0.5374	1.30070E-001	-3.80036E-009	0.00000E+000	1.30000E-001	8.00223E-005	4	..........a	-327.66
	2687	0.5376	1.40170E-001	-3.64635E-009	0.00000E+000	1.40000E-001	8.00223E-005	4	..........a	-327.66
	2688	0.5378	1.50070E-001	-3.49235E-009	0.00000E+000	1.50000E-001	-1.19978E-004	4	..........a	-327.66
	2689	0.538	1.59970E-001	-3.33834E-009	0.00000E+000	1.60000E-001	8.00223E-005	4	..........a	-327.66
	2690	0.5382	1.69870E-001	-3.17833E-009	0.00000E+000	1.70000E-001	8.00223E-005	4	..........a	-327.66
	2691	0.5384	1.80270E-001	-3.02433E-009	0.00000E+000	1.80000E-001	8.00223E-005	4	..........a	-327.66
	2692	0.5386	1.90070E-001	-2.86632E-009	0.00000E+000	1.90000E-001	8.00223E-005	4	..........a	-327.66
	2693	0.5388	1.99970E-001	-2.70732E-009	0.00000E+000	2.00000E-001	8.00223E-005	4	..........a	-327.66
	2694	0.539	2.10070E-001	-2.54631E-009	0.00000E+000	2.10000E-001	-2.19978E-004	4	..........a	-327.66
	2695	0.5392	2.19770E-001	-2.38230E-009	0.00000E+000	2.20000E-001	8.00223E-005	4	..........a	-327.66
	2696	0.5394	2.29870E-001	-2.21830E-009	0.00000E+000	2.30000E-001	8.00223E-005	4	..........a	-327.66
	2697	0.5396	2.40070E-001	-2.05329E-009	0.00000E+000	2.40000E-001	8.00223E-005	4	..........a	-327.66
	2698	0.5398	2.50070E-001	-1.88728E-009	0.00000E+000	2.50000E-001	8.00223E-005	4	..........a	-327.66
	2699	0.54	2.60070E-001	-1.72028E-009	0.00000E+000	2.60000E-001	8.00223E-005	4	..........a	-327.66
	2700	0.5402	2.70070E-001	-1.54827E-009	0.00000E+000	2.70000E-001	8.00223E-005	4	..........a	-327.66
	2701	0.5404	2.80070E-001	-1.37627E-009	0.00000E+000	2.80000E-001	8.00223E-005	4	..........a	-327.66
	2702	0.5406	2.89870E-001	-1.21026E-009	0.00000E+000	2.90000E-001	8.00223E-005	4	..........a	-327.66
	2703	0.5408	3.00170E-001	-1.04225E-009	0.00000E+000	3.00000E-001	8.00223E-005	4	..........a	-327.66
	2704	0.541	3.09870E-001	-8.66246E-010	0.00000E+000	3.10000E-001	8.00223E-005	4	..........a	-327.66
	2705	0.5412	3.19970E-001	-6.88239E-010	0.00000E+000	3.20000E-001	8.00223E-005	4	..........a	-327.66
	2706	0.5414	3.29970E-001	-5.12232E-010	0.00000E+000	3.30000E-001	8.00223E-005	4	..........a	-327.66
	2707	0.5416	3.40070E-001	-3.38225E-010	0.00000E+000	3.40000E-001	8.00223E-005	4	..........a	-327.66
	2708	0.5418	3.50070E-001	-1.58218E-010	0.00000E+000	3.50000E-001	8.00223E-005	4	..........a	-327.66
	2709	0.542	3.59970E-001	2.07884E-011	0.00000E+000	3.60000E-001	8.00223E-005	4	..........a	-327.66
	2710	0.5422	3.69970E-001	2.02795E-010	0.00000E+000	3.70000E-001	8.00223E-005	4	..........a	-327.66
	2711	0.5424	3.80120E-001	3.80802E-010	0.00000E+000	3.80000E-001	-3.19978E-004	4	..........a	-327.66
	2712	0.5426	3.90070E-001	5.64809E-010	0.00000E+000	3.90000E-001	8.00223E-005	4	..........a	-327.66
	2713	0.5428	3.99770E-001	7.42816E-010	0.00000E+000	4.00000E-001	8.00223E-005	4	..........a	-327.66
	2714	0.543	4.09770E-001	9.29823E-010	0.00000E+000	4.10000E-001	8.00223E-005	4	..........a	-327.66
	2715	0.5432	4.20070E-001	1.11183E-009	0.00000E+000	4.20000E-001	-2.19978E-004	4	..........a	-327.66
	2716	0.5434	4.29820E-001	1.30184E-009	0.00000E+000	4.30000E-001	8.00223E-005	4	..........a	-327.66
	2717	0.5436	4.39870E-001	1.48984E-009	0.00000E+000	4.40000E-001	8.00223E-005	4	..........a	-327.66
	2718	0.5438	4.49620E-001	1.67585E-009	0.00000E+000	4.50000E-001	-1.19978E-004	4	..........a	-327.66
	2719	0.544	4.60170E-001	1.86086E-009	0.00000E+000	4.60000E-001	8.00223E-005	4	..........a	-327.66
	2720	0.5442	4.69970E-001	2.05187E-009	0.00000E+000	4.70000E-001	8.00223E-005	4	..........a	-327.66
	2721	0.5444	4.80070E-001	2.24587E-009	0.00000E+000	4.80000E-001	8.00223E-005	4	..........a	-327.66
	2722	0.5446	4.89870E-001	2.43388E-009	0.00000E+000	4.90000E-001	8.00223E-005	4	..........a	-327.66
	2723	0.5448	4.99970E-001	2.62789E-009	0.00000E+000	5.00000E-001	8.00223E-005	4	..........a	-327.66
	2724	0.545	5.09820E-001	2.82390E-009	0.00000E+000	5.10000E-001	8.00223E-005	4	..........a	-327.66
	2725	0.5452	5.19969E-001	3.01690E-009	0.00000E+000	5.20000E-001	8.00223E-005	4	..........a	-327.66
	2726	0.5454	5.29920E-001	3.21391E-009	0.00000E+000	5.30000E-001	8.00223E-005	4	..........a	-327.66
	2727	0.5456	5.39970E-001	3.41192E-009	0.00000E+000	5.40000E-001	8.00223E-005	4	..........a	-327.66
	2728	0.5458	5.50020E-001	3.61093E-009	0.00000E+000	5.50000E-001	8.00223E-005	4	..........a	-327.66
	2729	0.546	5.60019E-001	3.81093E-009	0.00000E+000	5.60000E-001	8.00223E-005	4	..........a	-327.66
	2730	0.5462	5.70069E-001	4.01294E-009	0.00000E+000	5.70000E-001	8.00223E-005	4	..........a	-327.66
	2731	0.5464	5.79669E-001	4.21695E-009	0.00000E+000	5.80000E-001	8.00223E-005	4	..........a	-327.66
	2732	0.5466	5.89869E-001	4.41996E-009	0.00000E+000	5.90000E-001	8.00223E-005	4	..........a	-327.66
	2733	0.5468	5.99970E-001	4.62897E-009	0.00000E+000	6.00000E-001	8.00223E-005	4	..........a	-327.66
	2734	0.547	6.09769E-001	4.83597E-009	0.00000E+000	6.10000E-001	8.00223E-005	4	..........a	-327.66
	2735	0.5472	6.20169E-001	5.04398E-009	0.00000E+000	6.20000E-001	8.00223E-005	4	..........a	-327.66
	2736	0.5474	6.29770E-001	5.25599E-009	0.00000E+000	6.30000E-001	8.00223E-005	4	..........a	-327.66
	2737	0.5476	6.39769E-001	5.47300E-009	0.00000E+000	6.40000E-001	8.00223E-005	4	..........a	-327.66
	2738	0.5478	6.49870E-001	5.68401E-009	0.00000E+000	6.50000E-001	8.00223E-005	4	..........a	-327.66
	2739	0.548	6.60119E-001	5.90501E-009	0.00000E+000	6.60000E-001	8.00223E-005	4	..........a	-327.66
	2740	0.5482	6.69869E-001	6.11802E-009	0.00000E+000	6.70000E-001	8.00223E-005	4	..........a	-327.66
	2741	0.5484	6.79769E-001	6.34003E-009	0.00000E+000	6.80000E-001	8.00223E-005	4	..........a	-327.66
	2742	0.5486	6.89969E-001	6.56404E-009	0.00000E+000	6.90000E-001	8.00223E-005	4	..........a	-327.66
	2743	0.5488	7.00069E-001	6.79205E-009	0.00000E+000	7.00000E-001	8.00223E-005	4	..........a	-327.66
	2744	0.549	7.09870E-001	7.02306E-009	0.00000E+000	7.10000E-001	8.00223E-005	4	..........a	-327.66
	2745	0.5492	7.19869E-001	7.25507E-009	0.00000E+000	7.20000E-001	8.00223E-005	4	..........a	-327.66
	2746	0.5494	7.29769E-001	7.48808E-009	0.00000E+000	7.30000E-001	8.00223E-005	4	..........a	-327.66
	2747	0.5496	7.39769E-001	7.72608E-009	0.00000E+000	7.40000E-001	8.00223E-005	4	..........a	-327.66
	2748	0.5498	7.49969E-001	7.96909E-009	0.00000E+000	7.50000E-001	8.00223E-005	4	..........a	-327.66
	2749	0.55	7.59869E-001	8.21210E-009	0.00000E+000	7.60000E-001	8.00223E-005	4	..........a	-327.66
	2750	0.5502	7.69919E-001	8.46211E-009	0.00000E+000	7.70000E-001	8.00223E-005	4	..........a	-327.66
	2751	0.5504	7.79969E-001	8.71212E-009	0.00000E+000	7.80000E-001	8.00223E-005	4	..........a	-327.66
	2752	0.5506	7.89869E-001	8.96913E-009	0.00000E+000	7.90000E-001	8.00223E-005	4	..........a	-327.66
	2753	0.5508	7.99769E-001	9.22914E-009	0.00000E+000	8.00000E-001	8.00223E-005	4	..........a	-327.66
CURVE11	TABLE
	Pt	T	Vf	Im	Vu	Sig	Ach	IERange	Over	Temp
	#	s	V vs. Ref.	A	V	V	V	#	bits	deg C
	2754	0.551	7.89970E-001	9.39415E-009	0.00000E+000	7.90000E-001	8.00223E-005	4	..........a	-327.66
	2755	0.5512	7.79769E-001	9.52115E-009	0.00000E+000	7.80000E-001	8.00223E-005	4	..........a	-327.66
	2756	0.5514	7.69769E-001	9.62416E-009	0.00000E+000	7.70000E-001	-3.19978E-004	4	..........a	-327.66
	2757	0.5516	7.59969E-001	9.71516E-009	0.00000E+000	7.60000E-001	8.00223E-005	4	..........a	-327.66
	2758	0.5518	7.49869E-001	9.78216E-009	0.00000E+000	7.50000E-001	8.00223E-005	4	..........a	-327.66
	2759	0.552	7.39969E-001	9.83617E-009	0.00000E+000	7.40000E-001	8.00223E-005	4	..........a	-327.66
	2760	0.5522	7.29869E-001	9.88917E-009	0.00000E+000	7.30000E-001	8.00223E-005	4	..........a	-327.66
	2761	0.5524	7.20069E-001	9.91717E-009	0.00000E+000	7.20000E-001	8.00223E-005	4	..........a	-327.66
	2762	0.5526	7.09870E-001	9.93717E-009	0.00000E+000	7.10000E-001	8.00223E-005	4	..........a	-327.66
	2763	0.5528	6.99769E-001	9.95017E-009	0.00000E+000	7.00000E-001	8.00223E-005	4	..........a	-327.66
	2764	0.553	6.89869E-001	9.94817E-009	0.00000E+000	6.90000E-001	8.00223E-005	4	..........a	-327.66
	2765	0.5532	6.79869E-001	9.95017E-009	0.00000E+000	6.80000E-001	8.00223E-005	4	..........a	-327.66
	2766	0.5534	6.69869E-001	9.94617E-009	0.00000E+000	6.70000E-001	8.00223E-005	4	..........a	-327.66
	2767	0.5536	6.59869E-001	9.93217E-009	0.00000E+000	6.60000E-001	8.00223E-005	4	..........a	-327.66
	2768	0.5538	6.50069E-001	9.91017E-009	0.00000E+000	6.50000E-001	8.00223E-005	4	..........a	-327.66
	2769	0.554	6.39669E-001	9.88817E-009	0.00000E+000	6.40000E-001	8.00223E-005	4	..........a	-327.66
	2770	0.5542	6.29969E-001	9.85517E-009	0.00000E+000	6.30000E-001	8.00223E-005	4	..........a	-327.66
	2771	0.5544	6.20070E-001	9.81816E-009	0.00000E+000	6.20000E-001	8.00223E-005	4	..........a	-327.66
	2772	0.5546	6.09869E-001	9.77416E-009	0.00000E+000	6.10000E-001	8.00223E-005	4	..........a	-327.66
	2773	0.5548	5.99970E-001	9.72616E-009	0.00000E+000	6.00000E-001	-2.19978E-004	4	..........a	-327.66
	2774	0.555	5.89969E-001	9.67816E-009	0.00000E+000	5.90000E-001	8.00223E-005	4	..........a	-327.66
	2775	0.5552	5.80069E-001	9.62616E-009	0.00000E+000	5.80000E-001	8.00223E-005	4	..........a	-327.66
	2776	0.5554	5.69969E-001	9.56615E-009	0.00000E+000	5.70000E-001	8.00223E-005	4	..........a	-327.66
	2777	0.5556	5.59770E-001	9.50415E-009	0.00000E+000	5.60000E-001	8.00223E-005	4	..........a	-327.66
	2778	0.5558	5.49969E-001	9.43815E-009	0.00000E+000	5.50000E-001	8.00223E-005	4	..........a	-327.66
	2779	0.556	5.40069E-001	9.37215E-009	0.00000E+000	5.40000E-001	8.00223E-005	4	..........a	-327.66
	2780	0.5562	5.29970E-001	9.29914E-009	0.00000E+000	5.30000E-001	8.00223E-005	4	..........a	-327.66
	2781	0.5564	5.19969E-001	9.22414E-009	0.00000E+000	5.20000E-001	8.00223E-005	4	..........a	-327.66
	2782	0.5566	5.09969E-001	9.14614E-009	0.00000E+000	5.10000E-001	8.00223E-005	4	..........a	-327.66
	2783	0.5568	4.99970E-001	9.06814E-009	0.00000E+000	5.00000E-001	8.00223E-005	4	..........a	-327.66
	2784	0.557	4.89970E-001	8.98413E-009	0.00000E+000	4.90000E-001	8.00223E-005	4	..........a	-327.66
	2785	0.5572	4.79720E-001	8.88913E-009	0.00000E+000	4.80000E-001	8.00223E-005	4	..........a	-327.66
	2786	0.5574	4.69970E-001	8.79613E-009	0.00000E+000	4.70000E-001	-1.19978E-004	4	..........a	-327.66
	2787	0.5576	4.60070E-001	8.70812E-009	0.00000E+000	4.60000E-001	8.00223E-005	4	..........a	-327.66
	2788	0.5578	4.49870E-001	8.61112E-009	0.00000E+000	4.50000E-001	8.00223E-005	4	..........a	-327.66
	2789	0.558	4.39820E-001	8.51311E-009	0.00000E+000	4.40000E-001	8.00223E-005	4	..........a	-327.66
	2790	0.5582	4.29870E-001	8.41211E-009	0.00000E+000	4.30000E-001	8.00223E-005	4	..........a	-327.66
	2791	0.5584	4.19970E-001	8.30711E-009	0.00000E+000	4.20000E-001	8.00223E-005	4	..........a	-327.66
	2792	0.5586	4.09970E-001	8.19810E-009	0.00000E+000	4.10000E-001	8.00223E-005	4	..........a	-327.66
	2793	0.5588	3.99970E-001	8.09210E-009	0.00000E+000	4.00000E-001	8.00223E-005	4	..........a	-327.66
	2794	0.559	3.90070E-001	7.97309E-009	0.00000E+000	3.90000E-001	8.00223E-005	4	..........a	-327.66
	2795	0.5592	3.79970E-001	7.86209E-009	0.00000E+000	3.80000E-001	8.00223E-005	4	..........a	-327.66
	2796	0.5594	3.69970E-001	7.74009E-009	0.00000E+000	3.70000E-001	8.00223E-005	4	..........a	-327.66
	2797	0.5596	3.59970E-001	7.62008E-009	0.00000E+000	3.60000E-001	8.00223E-005	4	..........a	-327.66
	2798	0.5598	3.49870E-001	7.50008E-009	0.00000E+000	3.50000E-001	8.00223E-005	4	..........a	-327.66
	2799	0.56	3.40070E-001	7.37307E-009	0.00000E+000	3.40000E-001	8.00223E-005	4	..........a	-327.66
	2800	0.5602	3.29970E-001	7.24207E-009	0.00000E+000	3.30000E-001	8.00223E-005	4	..........a	-327.66