File: example_project/raw_outputs/20240509_C_GM0016_HL03_E01_CV50.DTA
EXPLAIN
TAG	CV
TITLE	LABEL	Cyclic Voltammetry	Test &Identifier
DATE	LABEL	5/9/2024	Date
TIME	LABEL	12:30:22	Time
NOTES	NOTES	1	&Notes...

PSTAT	PSTAT	REF600P-43058	Potentiostat
VINIT	POTEN	0.00000E+000	T	Initial &E (V)
VLIMIT1	POTEN	8.00000E-001	F	Scan Limit &1 (V)
VLIMIT2	POTEN	-6.00000E-001	F	Scan Limit &2 (V)
VFINAL	POTEN	0.00000E+000	T	Final &E (V)
SCANRATE	QUANT	4.99999E+001	&Scan Rate (mV/s)
STEPSIZE	QUANT	1.00000E+001	St&ep Size (mV)
CYCLES	IQUANT	4	C&ycles (#)
IMODE	SELECTOR	0	I/E Range &Mode
IRANGE	QUANT	1.00000E-005	&Max Current (mA)
AREA	QUANT	1.00000E+000	Electrode &Area (cm^2)
ELECTRODETYPE	SELECTOR	0	Electrode Type
STRIPPING	TOGGLE	F	Used for Stripping
POLARITY	TOGGLE	F	Signal Polarity
CONDIT	TWOPARAM	F	1.50000E+001	0.00000E+000	Conditionin&g	Time(s)	E(V)
DELAY	TWOPARAM	T	1.00000E+001	0.00000E+000	Init. De&lay	Time(s)	Stab.(mV/s)
EQDELAY	QUANT	1.00000E+001	Equil. &Time (s)
IRCOMP	SELECTOR	0	IRCom&p
PFCOR	QUANT	5.00000E+001	PF Corr. (ohm)
SAMPLINGMODE	SELECTOR	1	Sampling &Mode
OCVCURVE	TABLE	39
	Pt	T	Vf	Vm	Ach	Over	Temp
	#	s	V vs. Ref.	V	V	bits	deg C
	0	0.258333	1.71403E-001	1.71403E-001	2.51992E-004	..........a	-327.66
	1	0.516667	1.71352E-001	1.68750E-001	2.44192E-004	..........a	-327.66
	2	0.775	1.71040E-001	1.66184E-001	2.48859E-004	..........a	-327.66
	3	1.03333	1.70154E-001	1.63709E-001	2.41326E-004	..........a	-327.66
	4	1.29167	1.68559E-001	1.61312E-001	2.60659E-004	..........a	-327.66
	5	1.55	1.66426E-001	1.58992E-001	2.52592E-004	..........a	-327.66
	6	1.80833	1.64040E-001	1.56749E-001	2.40659E-004	..........a	-327.66
	7	2.06667	1.61616E-001	1.54572E-001	2.41192E-004	..........a	-327.66
	8	2.325	1.59255E-001	1.52460E-001	2.49592E-004	..........a	-327.66
	9	2.58333	1.56981E-001	1.50416E-001	2.42259E-004	..........a	-327.66
	10	2.84167	1.54790E-001	1.48426E-001	2.46859E-004	..........a	-327.66
	11	3.1	1.52671E-001	1.46497E-001	2.35192E-004	..........a	-327.66
	12	3.35833	1.50617E-001	1.44616E-001	2.44659E-004	..........a	-327.66
	13	3.61667	1.48623E-001	1.42793E-001	2.43792E-004	..........a	-327.66
	14	3.875	1.46685E-001	1.41011E-001	2.44926E-004	..........a	-327.66
	15	4.13333	1.44801E-001	1.39266E-001	2.30792E-004	..........a	-327.66
	16	4.39167	1.42967E-001	1.37572E-001	2.37392E-004	..........a	-327.66
	17	4.65	1.41180E-001	1.35937E-001	2.33126E-004	..........a	-327.66
	18	4.90833	1.39438E-001	1.34326E-001	2.34659E-004	..........a	-327.66
	19	5.16667	1.37742E-001	1.32767E-001	2.45326E-004	..........a	-327.66
	20	5.425	1.36091E-001	1.31241E-001	2.29992E-004	..........a	-327.66
	21	5.68333	1.34483E-001	1.29746E-001	2.28326E-004	..........a	-327.66
	22	5.94167	1.32915E-001	1.28283E-001	2.34259E-004	..........a	-327.66
	23	6.2	1.31383E-001	1.26845E-001	2.30059E-004	..........a	-327.66
	24	6.45833	1.29885E-001	1.25445E-001	2.35126E-004	..........a	-327.66
	25	6.71667	1.28418E-001	1.24078E-001	2.40726E-004	..........a	-327.66
	26	6.975	1.26982E-001	1.22741E-001	2.36926E-004	..........a	-327.66
	27	7.23333	1.25579E-001	1.21430E-001	2.41126E-004	..........a	-327.66
	28	7.49167	1.24207E-001	1.20139E-001	2.41392E-004	..........a	-327.66
	29	7.75	1.22864E-001	1.18872E-001	2.39859E-004	..........a	-327.66
	30	8.00833	1.21548E-001	1.17636E-001	2.32926E-004	..........a	-327.66
	31	8.26667	1.20257E-001	1.16418E-001	2.35859E-004	..........a	-327.66
	32	8.525	1.18991E-001	1.15237E-001	2.35259E-004	..........a	-327.66
	33	8.78333	1.17752E-001	1.14145E-001	2.42792E-004	..........a	-327.66
	34	9.04167	1.16545E-001	1.13083E-001	2.41726E-004	..........a	-327.66
	35	9.3	1.15380E-001	1.12043E-001	2.46526E-004	..........a	-327.66
	36	9.5583	1.14261E-001	1.11007E-001	2.43259E-004	..........a	-327.66
	37	9.8167	1.13180E-001	1.09956E-001	2.46726E-004	..........a	-327.66
	38	10.075	1.12124E-001	1.08915E-001	2.28592E-004	..........a	-327.66
EOC	QUANT	0.1121244	Open Circuit (V)
PSTATMODEL	IQUANT	7	Pstat Model
PSTATSECTION	LABEL	REF600P-43058	Pstat Section
PSTATSERIALNO	LABEL	43058	Pstat Serial Number
CTRLMODE	IQUANT	1	Control Mode
ELECTROMETER	IQUANT	0	RE=0 or CS=1
IESTAB	IQUANT	2	I/E Stability
CASPEED	IQUANT	4	Control Amp Speed
CONVENTION	IQUANT	1	Current Convention
ICHRANGE	IQUANT	2	Ich Range
ICHRANGEMODE	TOGGLE	F	Ich Auto Range
ICHOFFSETENABLE	TOGGLE	F	Ich Offset Enable
ICHOFFSET	QUANT	0	Ich Offset (V)
ICHFILTER	IQUANT	2	Ich Filter
VCHRANGE	IQUANT	2	Vch Range
VCHRANGEMODE	TOGGLE	F	Vch Auto Range
VCHOFFSETENABLE	TOGGLE	F	Vch Offset Enable
VCHOFFSET	QUANT	0	Vch Offset (V)
VCHFILTER	IQUANT	2	Vch Filter
ACHRANGE	IQUANT	2	Ach Range
ACHOFFSETENABLE	TOGGLE	F	Ach Offset Enable
ACHOFFSET	QUANT	0	Ach Offset (V)
ACHFILTER	IQUANT	1	Ach Filter
IERANGELOWERLIMIT	IQUANT	1	I/E Range Lower Limit
IERANGEMODE	TOGGLE	T	I/E AutoRange
IERANGE	IQUANT	4	I/E Range
POSFEEDENABLE	TOGGLE	F	Positive Feedback IR Comp
POSFEEDRESISTANCE	QUANT	0	Positive Feedback Resistance (ohm)
ACHSELECT	IQUANT	4	Ach Select
SENSECABLEID	IQUANT	7	Sense Cable ID
PWRCABLEID	IQUANT	7	Power Cable ID
DCCALDATE	LABEL	3/22/2024	DC Calibration Date
ACCALDATE	LABEL	3/22/2024	AC Calibration Date
THERMOSELECT	IQUANT	1	Thermo Select
FRAMEWORKVERSION	LABEL	7.8.4	Framework Version
INSTRUMENTVERSION	LABEL	4.42	Instrument Version
CURVE1	TABLE
	Pt	T	Vf	Im	Vu	Sig	Ach	IERange	Over	Temp
	#	s	V vs. Ref.	A	V	V	V	#	bits	deg C
	0	0.2	1.12168E-001	6.96096E-009	0.00000E+000	1.12100E-001	1.00449E-003	5	..........a	-327.66
	1	0.4	1.22200E-001	1.21931E-008	0.00000E+000	1.22100E-001	1.01339E-003	5	..........a	-327.66
	2	0.6	1.32258E-001	1.58651E-008	0.00000E+000	1.32100E-001	9.77892E-004	5	..........a	-327.66
	3	0.8	1.42179E-001	1.90145E-008	0.00000E+000	1.42100E-001	1.00789E-003	5	..........a	-327.66
	4	1	1.52145E-001	2.20102E-008	0.00000E+000	1.52100E-001	1.00089E-003	5	..........a	-327.66
	5	1.2	1.62182E-001	2.49573E-008	0.00000E+000	1.62100E-001	1.01539E-003	5	..........a	-327.66
	6	1.4	1.72259E-001	2.78858E-008	0.00000E+000	1.72100E-001	1.00469E-003	5	..........a	-327.66
	7	1.6	1.82151E-001	3.08274E-008	0.00000E+000	1.82100E-001	9.93792E-004	5	..........a	-327.66
	8	1.8	1.92168E-001	3.37689E-008	0.00000E+000	1.92100E-001	1.00239E-003	5	..........a	-327.66
	9	2	2.02161E-001	3.66640E-008	0.00000E+000	2.02100E-001	1.00679E-003	5	..........a	-327.66
	10	2.2	2.12172E-001	3.94065E-008	0.00000E+000	2.12100E-001	9.85092E-004	5	..........a	-327.66
	11	2.4	2.22057E-001	4.20305E-008	0.00000E+000	2.22100E-001	1.01349E-003	5	..........a	-327.66
	12	2.6	2.32066E-001	4.44155E-008	0.00000E+000	2.32100E-001	1.01439E-003	5	..........a	-327.66
	13	2.8	2.42145E-001	4.65217E-008	0.00000E+000	2.42100E-001	9.88892E-004	5	..........a	-327.66
	14	3	2.52219E-001	4.84158E-008	0.00000E+000	2.52100E-001	1.01069E-003	5	..........a	-327.66
	15	3.2	2.62100E-001	5.00409E-008	0.00000E+000	2.62100E-001	1.01439E-003	5	..........a	-327.66
	16	3.4	2.72086E-001	5.15034E-008	0.00000E+000	2.72100E-001	9.99192E-004	5	..........a	-327.66
	17	3.6	2.82082E-001	5.28853E-008	0.00000E+000	2.82100E-001	9.99992E-004	5	..........a	-327.66
	18	3.8	2.92148E-001	5.42012E-008	0.00000E+000	2.92100E-001	9.83292E-004	5	..........a	-327.66
	19	4	3.02088E-001	5.55200E-008	0.00000E+000	3.02100E-001	1.00689E-003	5	..........a	-327.66
	20	4.2	3.12099E-001	5.68960E-008	0.00000E+000	3.12100E-001	9.96992E-004	5	..........a	-327.66
	21	4.4	3.21874E-001	5.83459E-008	0.00000E+000	3.22100E-001	1.00269E-003	5	..........a	-327.66
	22	4.6	3.32213E-001	5.99224E-008	0.00000E+000	3.32100E-001	1.01879E-003	5	..........a	-327.66
	23	4.8	3.42146E-001	6.15255E-008	0.00000E+000	3.42100E-001	9.89792E-004	5	..........a	-327.66
	24	5	3.52068E-001	6.33129E-008	0.00000E+000	3.52100E-001	1.01779E-003	5	..........a	-327.66
	25	5.2	3.62094E-001	6.51810E-008	0.00000E+000	3.62100E-001	1.01099E-003	5	..........a	-327.66
	26	5.4	3.72211E-001	6.71812E-008	0.00000E+000	3.72100E-001	1.00219E-003	5	..........a	-327.66
	27	5.6	3.82043E-001	6.93233E-008	0.00000E+000	3.82100E-001	1.02589E-003	5	..........a	-327.66
	28	5.8	3.92111E-001	7.16768E-008	0.00000E+000	3.92100E-001	1.00699E-003	5	..........a	-327.66
	29	6	4.02050E-001	7.42080E-008	0.00000E+000	4.02100E-001	1.02159E-003	5	..........a	-327.66
	30	6.2	4.12135E-001	7.68964E-008	0.00000E+000	4.12100E-001	9.87892E-004	5	..........a	-327.66
	31	6.4	4.22100E-001	7.98093E-008	0.00000E+000	4.22100E-001	9.99692E-004	5	..........a	-327.66
	32	6.6	4.31986E-001	8.29425E-008	0.00000E+000	4.32100E-001	1.01099E-003	5	..........a	-327.66
	33	6.8	4.42047E-001	8.62359E-008	0.00000E+000	4.42100E-001	9.97992E-004	5	..........a	-327.66
	34	7	4.52166E-001	8.97734E-008	0.00000E+000	4.52100E-001	9.92892E-004	5	..........a	-327.66
	35	7.2	4.62066E-001	9.34966E-008	0.00000E+000	4.62100E-001	1.01429E-003	5	..........a	-327.66
	36	7.4	4.72077E-001	9.74045E-008	0.00000E+000	4.72100E-001	1.00169E-003	5	..........a	-327.66
	37	7.6	4.82036E-001	1.01476E-007	0.00000E+000	4.82100E-001	1.00249E-003	5	..........a	-327.66
	38	7.8	4.92063E-001	1.05752E-007	0.00000E+000	4.92100E-001	9.92692E-004	5	..........a	-327.66
	39	8	5.02037E-001	1.10125E-007	0.00000E+000	5.02100E-001	1.00379E-003	5	..........a	-327.66
	40	8.2	5.11973E-001	1.14558E-007	0.00000E+000	5.12100E-001	1.01479E-003	5	..........a	-327.66
	41	8.4	5.22084E-001	1.19041E-007	0.00000E+000	5.22100E-001	1.00619E-003	5	..........a	-327.66
	42	8.6	5.32131E-001	1.23511E-007	0.00000E+000	5.32100E-001	1.00139E-003	5	..........a	-327.66
	43	8.8	5.42037E-001	1.27946E-007	0.00000E+000	5.42100E-001	1.01389E-003	5	..........a	-327.66
	44	9	5.52100E-001	1.32351E-007	0.00000E+000	5.52100E-001	9.84792E-004	5	..........a	-327.66
	45	9.2	5.62003E-001	1.36701E-007	0.00000E+000	5.62100E-001	1.00579E-003	5	..........a	-327.66
	46	9.4	5.72062E-001	1.41053E-007	0.00000E+000	5.72100E-001	1.01199E-003	5	..........a	-327.66
	47	9.6	5.81977E-001	1.45379E-007	0.00000E+000	5.82100E-001	1.01539E-003	5	..........a	-327.66
	48	9.8	5.91992E-001	1.49735E-007	0.00000E+000	5.92100E-001	1.01799E-003	5	..........a	-327.66
	49	10	6.02052E-001	1.54109E-007	0.00000E+000	6.02100E-001	9.90692E-004	5	..........a	-327.66
	50	10.2	6.12050E-001	1.58533E-007	0.00000E+000	6.12100E-001	9.92592E-004	5	..........a	-327.66
	51	10.4	6.22006E-001	1.63021E-007	0.00000E+000	6.22100E-001	1.01499E-003	5	..........a	-327.66
	52	10.6	6.31917E-001	1.67639E-007	0.00000E+000	6.32100E-001	1.01689E-003	5	..........a	-327.66
	53	10.8	6.41922E-001	1.72281E-007	0.00000E+000	6.42100E-001	1.02599E-003	5	..........a	-327.66
	54	11	6.51991E-001	1.77054E-007	0.00000E+000	6.52100E-001	1.02129E-003	5	..........a	-327.66
	55	11.2	6.61964E-001	1.81902E-007	0.00000E+000	6.62100E-001	1.02429E-003	5	..........a	-327.66
	56	11.4	6.71930E-001	1.86851E-007	0.00000E+000	6.72100E-001	1.02709E-003	5	..........a	-327.66
	57	11.6	6.81951E-001	1.91914E-007	0.00000E+000	6.82100E-001	1.01559E-003	5	..........a	-327.66
	58	11.8	6.91948E-001	1.97041E-007	0.00000E+000	6.92100E-001	1.01239E-003	5	..........a	-327.66
	59	12	7.02004E-001	2.02290E-007	0.00000E+000	7.02100E-001	9.97892E-004	5	..........a	-327.66
	60	12.2	7.11924E-001	2.07728E-007	0.00000E+000	7.12100E-001	1.02109E-003	5	..........a	-327.66
	61	12.4	7.21931E-001	2.13236E-007	0.00000E+000	7.22100E-001	1.01769E-003	5	..........a	-327.66
	62	12.6	7.31956E-001	2.18916E-007	0.00000E+000	7.32100E-001	1.00399E-003	5	..........a	-327.66
	63	12.8	7.41984E-001	2.24719E-007	0.00000E+000	7.42100E-001	1.01059E-003	5	..........a	-327.66
	64	13	7.51967E-001	2.30654E-007	0.00000E+000	7.52100E-001	1.00969E-003	5	..........a	-327.66
	65	13.2	7.61943E-001	2.36684E-007	0.00000E+000	7.62100E-001	1.01619E-003	5	..........a	-327.66
	66	13.4	7.71938E-001	2.42875E-007	0.00000E+000	7.72100E-001	9.92592E-004	5	..........a	-327.66
	67	13.6	7.82012E-001	2.49254E-007	0.00000E+000	7.82100E-001	1.00679E-003	5	..........a	-327.66
	68	13.8	7.91908E-001	2.55747E-007	0.00000E+000	7.92100E-001	1.00599E-003	5	..........a	-327.66
	69	14	8.01933E-001	2.62477E-007	0.00000E+000	8.02100E-001	1.02379E-003	5	..........a	-327.66
	70	14.2	7.91943E-001	2.21886E-007	0.00000E+000	7.92100E-001	1.01139E-003	5	..........a	-327.66
	71	14.4	7.82024E-001	1.94607E-007	0.00000E+000	7.82100E-001	1.00289E-003	5	..........a	-327.66
	72	14.6	7.71986E-001	1.74103E-007	0.00000E+000	7.72100E-001	1.00339E-003	5	..........a	-327.66
	73	14.8	7.61981E-001	1.57622E-007	0.00000E+000	7.62100E-001	1.00509E-003	5	..........a	-327.66
	74	15	7.52018E-001	1.43938E-007	0.00000E+000	7.52100E-001	9.99192E-004	5	..........a	-327.66
	75	15.2	7.41988E-001	1.32188E-007	0.00000E+000	7.42100E-001	1.02599E-003	5	..........a	-327.66
	76	15.4	7.32035E-001	1.21967E-007	0.00000E+000	7.32100E-001	1.00139E-003	5	..........a	-327.66
	77	15.6	7.22002E-001	1.12942E-007	0.00000E+000	7.22100E-001	1.00629E-003	5	..........a	-327.66
	78	15.8	7.11948E-001	1.04856E-007	0.00000E+000	7.12100E-001	1.02169E-003	5	..........a	-327.66
	79	16	7.02065E-001	9.75244E-008	0.00000E+000	7.02100E-001	1.01099E-003	5	..........a	-327.66
	80	16.2	6.92016E-001	9.08863E-008	0.00000E+000	6.92100E-001	9.82192E-004	5	..........a	-327.66
	81	16.4	6.81955E-001	8.47606E-008	0.00000E+000	6.82100E-001	1.02209E-003	5	..........a	-327.66
	82	16.6	6.72001E-001	7.91134E-008	0.00000E+000	6.72100E-001	1.00599E-003	5	..........a	-327.66
	83	16.8	6.62011E-001	7.38820E-008	0.00000E+000	6.62100E-001	1.03059E-003	5	..........a	-327.66
	84	17	6.52060E-001	6.90166E-008	0.00000E+000	6.52100E-001	1.00429E-003	5	..........a	-327.66
	85	17.2	6.41971E-001	6.44573E-008	0.00000E+000	6.42100E-001	9.92592E-004	5	..........a	-327.66
	86	17.4	6.31990E-001	6.01495E-008	0.00000E+000	6.32100E-001	1.00149E-003	5	..........a	-327.66
	87	17.6	6.22066E-001	5.60644E-008	0.00000E+000	6.22100E-001	1.01779E-003	5	..........a	-327.66
	88	17.8	6.12150E-001	5.22730E-008	0.00000E+000	6.12100E-001	1.00209E-003	5	..........a	-327.66
	89	18	6.02054E-001	4.86906E-008	0.00000E+000	6.02100E-001	1.02159E-003	5	..........a	-327.66
	90	18.2	5.92039E-001	4.52998E-008	0.00000E+000	5.92100E-001	1.00519E-003	5	..........a	-327.66
	91	18.4	5.82028E-001	4.20536E-008	0.00000E+000	5.82100E-001	1.01509E-003	5	..........a	-327.66
	92	18.6	5.72125E-001	3.89412E-008	0.00000E+000	5.72100E-001	9.86992E-004	5	..........a	-327.66
	93	18.8	5.62097E-001	3.59733E-008	0.00000E+000	5.62100E-001	1.00869E-003	5	..........a	-327.66
	94	19	5.52060E-001	3.31395E-008	0.00000E+000	5.52100E-001	1.00459E-003	5	..........a	-327.66
	95	19.2	5.42087E-001	3.03935E-008	0.00000E+000	5.42100E-001	9.95792E-004	5	..........a	-327.66
	96	19.4	5.32167E-001	2.77789E-008	0.00000E+000	5.32100E-001	9.93292E-004	5	..........a	-327.66
	97	19.6	5.22114E-001	2.52532E-008	0.00000E+000	5.22100E-001	9.91092E-004	5	..........a	-327.66
	98	19.8	5.11980E-001	2.27683E-008	0.00000E+000	5.12100E-001	1.00959E-003	5	..........a	-327.66
	99	20	5.02114E-001	2.04153E-008	0.00000E+000	5.02100E-001	9.97392E-004	5	..........a	-327.66
	100	20.2	4.92131E-001	1.81468E-008	0.00000E+000	4.92100E-001	1.01439E-003	5	..........a	-327.66
	101	20.4	4.82078E-001	1.59244E-008	0.00000E+000	4.82100E-001	9.99492E-004	5	..........a	-327.66
	102	20.6	4.72087E-001	1.37751E-008	0.00000E+000	4.72100E-001	1.00509E-003	5	..........a	-327.66
	103	20.8	4.62104E-001	1.16927E-008	0.00000E+000	4.62100E-001	1.02179E-003	5	..........a	-327.66
	104	21	4.52228E-001	9.39535E-009	0.00000E+000	4.52100E-001	1.01109E-003	5	..........a	-327.66
	105	21.2	4.42080E-001	7.23856E-009	0.00000E+000	4.42100E-001	1.00569E-003	5	..........a	-327.66
	106	21.4	4.32024E-001	5.23729E-009	0.00000E+000	4.32100E-001	1.02089E-003	5	..........a	-327.66
	107	21.6	4.22132E-001	3.25866E-009	0.00000E+000	4.22100E-001	1.01509E-003	5	..........a	-327.66
	108	21.8	4.12215E-001	1.38650E-009	0.00000E+000	4.12100E-001	9.90492E-004	5	..........a	-327.66
	109	22	4.02110E-001	-5.95576E-010	0.00000E+000	4.02100E-001	1.00329E-003	5	..........a	-327.66
	110	22.2	3.92138E-001	-2.44028E-009	0.00000E+000	3.92100E-001	1.00169E-003	5	..........a	-327.66
	111	22.4	3.82142E-001	-4.28741E-009	0.00000E+000	3.82100E-001	1.01279E-003	5	..........a	-327.66
	112	22.6	3.72217E-001	-6.16665E-009	0.00000E+000	3.72100E-001	9.86492E-004	5	..........a	-327.66
	113	22.8	3.62145E-001	-8.01425E-009	0.00000E+000	3.62100E-001	1.00959E-003	5	..........a	-327.66
	114	23	3.52150E-001	-9.93404E-009	0.00000E+000	3.52100E-001	9.98592E-004	5	..........a	-327.66
	115	23.2	3.42166E-001	-1.18155E-008	0.00000E+000	3.42100E-001	9.80292E-004	5	..........a	-327.66
	116	23.4	3.32245E-001	-1.37828E-008	0.00000E+000	3.32100E-001	9.85292E-004	5	..........a	-327.66
	117	23.6	3.22132E-001	-1.57836E-008	0.00000E+000	3.22100E-001	9.84292E-004	5	..........a	-327.66
	118	23.8	3.12121E-001	-1.78411E-008	0.00000E+000	3.12100E-001	1.00769E-003	5	..........a	-327.66
	119	24	3.02139E-001	-1.99797E-008	0.00000E+000	3.02100E-001	1.01249E-003	5	..........a	-327.66
	120	24.2	2.92177E-001	-2.22498E-008	0.00000E+000	2.92100E-001	1.00529E-003	5	..........a	-327.66
	121	24.4	2.82142E-001	-2.45707E-008	0.00000E+000	2.82100E-001	9.95392E-004	5	..........a	-327.66
	122	24.6	2.72140E-001	-2.70194E-008	0.00000E+000	2.72100E-001	1.00739E-003	5	..........a	-327.66
	123	24.8	2.62164E-001	-2.95872E-008	0.00000E+000	2.62100E-001	9.88592E-004	5	..........a	-327.66
	124	25	2.52276E-001	-3.22369E-008	0.00000E+000	2.52100E-001	1.01669E-003	5	..........a	-327.66
	125	25.2	2.42179E-001	-3.49907E-008	0.00000E+000	2.42100E-001	1.00349E-003	5	..........a	-327.66
	126	25.4	2.32120E-001	-3.77175E-008	0.00000E+000	2.32100E-001	1.01679E-003	5	..........a	-327.66
	127	25.6	2.22130E-001	-4.05485E-008	0.00000E+000	2.22100E-001	1.00859E-003	5	..........a	-327.66
	128	25.8	2.12223E-001	-4.31274E-008	0.00000E+000	2.12100E-001	9.96792E-004	5	..........a	-327.66
	129	26	2.02195E-001	-4.54165E-008	0.00000E+000	2.02100E-001	9.97092E-004	5	..........a	-327.66
	130	26.2	1.92227E-001	-4.74273E-008	0.00000E+000	1.92100E-001	9.88892E-004	5	..........a	-327.66
	131	26.4	1.82191E-001	-4.90719E-008	0.00000E+000	1.82100E-001	1.00039E-003	5	..........a	-327.66
	132	26.6	1.72316E-001	-5.03786E-008	0.00000E+000	1.72100E-001	1.01209E-003	5	..........a	-327.66
	133	26.8	1.62204E-001	-5.13471E-008	0.00000E+000	1.62100E-001	1.01189E-003	5	..........a	-327.66
	134	27	1.52204E-001	-5.19944E-008	0.00000E+000	1.52100E-001	1.00749E-003	5	..........a	-327.66
	135	27.2	1.42222E-001	-5.24108E-008	0.00000E+000	1.42100E-001	9.92492E-004	5	..........a	-327.66
	136	27.4	1.32285E-001	-5.26201E-008	0.00000E+000	1.32100E-001	1.00579E-003	5	..........a	-327.66
	137	27.6	1.22200E-001	-5.27609E-008	0.00000E+000	1.22100E-001	1.02139E-003	5	..........a	-327.66
	138	27.8	1.12200E-001	-5.28072E-008	0.00000E+000	1.12100E-001	1.01159E-003	5	..........a	-327.66
	139	28	1.02174E-001	-5.28508E-008	0.00000E+000	1.02100E-001	1.00769E-003	5	..........a	-327.66
	140	28.2	9.22994E-002	-5.29157E-008	0.00000E+000	9.21000E-002	9.90792E-004	5	..........a	-327.66
	141	28.4	8.22013E-002	-5.30504E-008	0.00000E+000	8.21000E-002	1.01059E-003	5	..........a	-327.66
	142	28.6	7.21828E-002	-5.32059E-008	0.00000E+000	7.21000E-002	1.02949E-003	5	..........a	-327.66
	143	28.8	6.22022E-002	-5.34729E-008	0.00000E+000	6.21000E-002	9.85492E-004	5	..........a	-327.66
	144	29	5.22766E-002	-5.38169E-008	0.00000E+000	5.21000E-002	9.87892E-004	5	..........a	-327.66
	145	29.2	4.22114E-002	-5.41881E-008	0.00000E+000	4.21000E-002	9.92892E-004	5	..........a	-327.66
	146	29.4	3.21875E-002	-5.45521E-008	0.00000E+000	3.21000E-002	1.00349E-003	5	..........a	-327.66
	147	29.6	2.21975E-002	-5.49042E-008	0.00000E+000	2.21000E-002	1.00859E-003	5	..........a	-327.66
	148	29.8	1.22331E-002	-5.53554E-008	0.00000E+000	1.21000E-002	9.97092E-004	5	..........a	-327.66
	149	30	2.21129E-003	-5.59669E-008	0.00000E+000	2.10001E-003	9.95592E-004	5	..........a	-327.66
	150	30.2	-7.79581E-003	-5.68166E-008	0.00000E+000	-7.89999E-003	1.00079E-003	5	..........a	-327.66
	151	30.4	-1.78122E-002	-5.69500E-008	0.00000E+000	-1.79000E-002	1.00069E-003	5	..........a	-327.66
	152	30.6	-2.77363E-002	-5.67993E-008	0.00000E+000	-2.79000E-002	1.01249E-003	5	..........a	-327.66
	153	30.8	-3.78273E-002	-5.69354E-008	0.00000E+000	-3.79000E-002	1.01639E-003	5	..........a	-327.66
	154	31	-4.78219E-002	-5.68714E-008	0.00000E+000	-4.79000E-002	1.01209E-003	5	..........a	-327.66
	155	31.2	-5.78129E-002	-5.69647E-008	0.00000E+000	-5.79000E-002	1.00119E-003	5	..........a	-327.66
	156	31.4	-6.77670E-002	-5.71838E-008	0.00000E+000	-6.79000E-002	1.01379E-003	5	..........a	-327.66
	157	31.6	-7.78165E-002	-5.70933E-008	0.00000E+000	-7.79000E-002	1.01459E-003	5	..........a	-327.66
	158	31.8	-8.77652E-002	-5.71060E-008	0.00000E+000	-8.79000E-002	1.00119E-003	5	..........a	-327.66
	159	32	-9.78153E-002	-5.72800E-008	0.00000E+000	-9.79000E-002	1.00129E-003	5	..........a	-327.66
	160	32.2	-1.07715E-001	-5.76158E-008	0.00000E+000	-1.07900E-001	1.00699E-003	5	..........a	-327.66
	161	32.4	-1.17823E-001	-5.81839E-008	0.00000E+000	-1.17900E-001	9.96392E-004	5	..........a	-327.66
	162	32.6	-1.27891E-001	-5.88165E-008	0.00000E+000	-1.27900E-001	1.03229E-003	5	..........a	-327.66
	163	32.8	-1.37807E-001	-5.98141E-008	0.00000E+000	-1.37900E-001	1.01729E-003	5	..........a	-327.66
	164	33	-1.47769E-001	-6.06159E-008	0.00000E+000	-1.47900E-001	9.90392E-004	5	..........a	-327.66
	165	33.2	-1.57823E-001	-6.17238E-008	0.00000E+000	-1.57900E-001	9.92292E-004	5	..........a	-327.66
	166	33.4	-1.67792E-001	-6.29522E-008	0.00000E+000	-1.67900E-001	1.01789E-003	5	..........a	-327.66
	167	33.6	-1.77812E-001	-6.44415E-008	0.00000E+000	-1.77900E-001	1.00429E-003	5	..........a	-327.66
	168	33.8	-1.87692E-001	-6.58436E-008	0.00000E+000	-1.87900E-001	1.01949E-003	5	..........a	-327.66
	169	34	-1.97806E-001	-6.73433E-008	0.00000E+000	-1.97900E-001	1.00229E-003	5	..........a	-327.66
	170	34.2	-2.07806E-001	-6.90870E-008	0.00000E+000	-2.07900E-001	1.00859E-003	5	..........a	-327.66
	171	34.4	-2.17791E-001	-7.05947E-008	0.00000E+000	-2.17900E-001	9.83892E-004	5	..........a	-327.66
	172	34.6	-2.27657E-001	-7.24312E-008	0.00000E+000	-2.27850E-001	1.01749E-003	5	..........a	-327.66
	173	34.8	-2.37736E-001	-7.34189E-008	0.00000E+000	-2.37850E-001	9.96392E-004	5	..........a	-327.66
	174	35	-2.47734E-001	-7.47223E-008	0.00000E+000	-2.47850E-001	9.91292E-004	5	..........a	-327.66
	175	35.2	-2.57737E-001	-7.56273E-008	0.00000E+000	-2.57850E-001	1.00799E-003	5	..........a	-327.66
	176	35.4	-2.67617E-001	-7.68938E-008	0.00000E+000	-2.67850E-001	9.91592E-004	5	..........a	-327.66
	177	35.6	-2.77730E-001	-7.77044E-008	0.00000E+000	-2.77850E-001	9.91292E-004	5	..........a	-327.66
	178	35.8	-2.87748E-001	-7.84922E-008	0.00000E+000	-2.87850E-001	1.03309E-003	5	..........a	-327.66
	179	36	-2.97725E-001	-7.96063E-008	0.00000E+000	-2.97850E-001	9.95492E-004	5	..........a	-327.66
	180	36.2	-3.07645E-001	-8.04148E-008	0.00000E+000	-3.07850E-001	1.00479E-003	5	..........a	-327.66
	181	36.4	-3.17779E-001	-8.13934E-008	0.00000E+000	-3.17850E-001	9.99192E-004	5	..........a	-327.66
	182	36.6	-3.27743E-001	-8.24809E-008	0.00000E+000	-3.27850E-001	1.01209E-003	5	..........a	-327.66
	183	36.8	-3.37725E-001	-8.35283E-008	0.00000E+000	-3.37850E-001	1.02689E-003	5	..........a	-327.66
	184	37	-3.47691E-001	-8.47544E-008	0.00000E+000	-3.47850E-001	9.90992E-004	5	..........a	-327.66
	185	37.2	-3.57755E-001	-8.58833E-008	0.00000E+000	-3.57850E-001	1.02039E-003	5	..........a	-327.66
	186	37.4	-3.67656E-001	-8.68439E-008	0.00000E+000	-3.67850E-001	1.02379E-003	5	..........a	-327.66
	187	37.6	-3.77717E-001	-8.81616E-008	0.00000E+000	-3.77850E-001	9.97092E-004	5	..........a	-327.66
	188	37.8	-3.87641E-001	-8.92979E-008	0.00000E+000	-3.87850E-001	1.02519E-003	5	..........a	-327.66
	189	38	-3.97716E-001	-9.05223E-008	0.00000E+000	-3.97850E-001	1.01409E-003	5	..........a	-327.66
	190	38.2	-4.07697E-001	-9.19784E-008	0.00000E+000	-4.07850E-001	1.01209E-003	5	..........a	-327.66
	191	38.4	-4.17704E-001	-9.32742E-008	0.00000E+000	-4.17850E-001	9.86292E-004	5	..........a	-327.66
	192	38.6	-4.27630E-001	-9.47491E-008	0.00000E+000	-4.27850E-001	9.96592E-004	5	..........a	-327.66
	193	38.8	-4.37696E-001	-9.64987E-008	0.00000E+000	-4.37850E-001	9.95492E-004	5	..........a	-327.66
	194	39	-4.47631E-001	-9.80060E-008	0.00000E+000	-4.47850E-001	1.01499E-003	5	..........a	-327.66
	195	39.2	-4.57710E-001	-9.95094E-008	0.00000E+000	-4.57850E-001	1.01079E-003	5	..........a	-327.66
	196	39.4	-4.67603E-001	-1.01255E-007	0.00000E+000	-4.67850E-001	1.01839E-003	5	..........a	-327.66
	197	39.6	-4.77674E-001	-1.03033E-007	0.00000E+000	-4.77850E-001	1.00369E-003	5	..........a	-327.66
	198	39.8	-4.87686E-001	-1.04546E-007	0.00000E+000	-4.87850E-001	1.01619E-003	5	..........a	-327.66
	199	40	-4.97727E-001	-1.06424E-007	0.00000E+000	-4.97850E-001	9.99692E-004	5	..........a	-327.66
	200	40.2	-5.07619E-001	-1.08194E-007	0.00000E+000	-5.07850E-001	9.89992E-004	5	..........a	-327.66
	201	40.4	-5.17693E-001	-1.09971E-007	0.00000E+000	-5.17850E-001	1.00389E-003	5	..........a	-327.66
	202	40.6	-5.27679E-001	-1.11742E-007	0.00000E+000	-5.27850E-001	1.00309E-003	5	..........a	-327.66
	203	40.8	-5.37708E-001	-1.13793E-007	0.00000E+000	-5.37850E-001	1.01619E-003	5	..........a	-327.66
	204	41	-5.47610E-001	-1.15987E-007	0.00000E+000	-5.47850E-001	1.01369E-003	5	..........a	-327.66
	205	41.2	-5.57688E-001	-1.17979E-007	0.00000E+000	-5.57850E-001	9.89192E-004	5	..........a	-327.66
	206	41.4	-5.67697E-001	-1.20503E-007	0.00000E+000	-5.67850E-001	1.02189E-003	5	..........a	-327.66
	207	41.6	-5.77676E-001	-1.22667E-007	0.00000E+000	-5.77850E-001	9.99892E-004	5	..........a	-327.66
	208	41.8	-5.87627E-001	-1.25064E-007	0.00000E+000	-5.87850E-001	9.92292E-004	5	..........a	-327.66
	209	42	-5.97672E-001	-1.28020E-007	0.00000E+000	-5.97850E-001	9.99992E-004	5	..........a	-327.66
CURVE2	TABLE
	Pt	T	Vf	Im	Vu	Sig	Ach	IERange	Over	Temp
	#	s	V vs. Ref.	A	V	V	V	#	bits	deg C
	210	42.2	-5.89825E-001	-1.17311E-007	0.00000E+000	-5.90000E-001	9.91292E-004	5	..........a	-327.66
	211	42.4	-5.79787E-001	-1.08207E-007	0.00000E+000	-5.80000E-001	1.00479E-003	5	..........a	-327.66
	212	42.6	-5.69832E-001	-1.00878E-007	0.00000E+000	-5.70000E-001	9.90692E-004	5	..........a	-327.66
	213	42.8	-5.59905E-001	-9.47554E-008	0.00000E+000	-5.60000E-001	1.01149E-003	5	..........a	-327.66
	214	43	-5.49856E-001	-8.92246E-008	0.00000E+000	-5.50000E-001	9.91892E-004	5	..........a	-327.66
	215	43.2	-5.39753E-001	-8.41511E-008	0.00000E+000	-5.40000E-001	1.00749E-003	5	..........a	-327.66
	216	43.4	-5.29834E-001	-7.95750E-008	0.00000E+000	-5.30000E-001	1.01139E-003	5	..........a	-327.66
	217	43.6	-5.19854E-001	-7.58139E-008	0.00000E+000	-5.20000E-001	1.01059E-003	5	..........a	-327.66
	218	43.8	-5.09853E-001	-7.18217E-008	0.00000E+000	-5.10000E-001	9.94292E-004	5	..........a	-327.66
	219	44	-4.99816E-001	-6.79940E-008	0.00000E+000	-5.00000E-001	9.81492E-004	5	..........a	-327.66
	220	44.2	-4.89829E-001	-6.46185E-008	0.00000E+000	-4.90000E-001	9.92992E-004	5	..........a	-327.66
	221	44.4	-4.79820E-001	-6.10766E-008	0.00000E+000	-4.80000E-001	1.00019E-003	5	..........a	-327.66
	222	44.6	-4.69854E-001	-5.79037E-008	0.00000E+000	-4.70000E-001	9.98292E-004	5	..........a	-327.66
	223	44.8	-4.59791E-001	-5.46981E-008	0.00000E+000	-4.60000E-001	9.96892E-004	5	..........a	-327.66
	224	45	-4.49840E-001	-5.18844E-008	0.00000E+000	-4.50000E-001	9.96992E-004	5	..........a	-327.66
	225	45.2	-4.39825E-001	-4.90265E-008	0.00000E+000	-4.40000E-001	1.00089E-003	5	..........a	-327.66
	226	45.4	-4.29844E-001	-4.62370E-008	0.00000E+000	-4.30000E-001	9.95592E-004	5	..........a	-327.66
	227	45.6	-4.19749E-001	-4.33319E-008	0.00000E+000	-4.20000E-001	1.00489E-003	5	..........a	-327.66
	228	45.8	-4.09864E-001	-4.10810E-008	0.00000E+000	-4.10000E-001	1.00349E-003	5	..........a	-327.66
	229	46	-3.99886E-001	-3.85804E-008	0.00000E+000	-4.00000E-001	1.01919E-003	5	..........a	-327.66
	230	46.2	-3.89910E-001	-3.61940E-008	0.00000E+000	-3.90000E-001	1.01009E-003	5	..........a	-327.66
	231	46.4	-3.79825E-001	-3.40329E-008	0.00000E+000	-3.80000E-001	9.79992E-004	5	..........a	-327.66
	232	46.6	-3.69845E-001	-3.17665E-008	0.00000E+000	-3.70000E-001	9.83892E-004	5	..........a	-327.66
	233	46.8	-3.59909E-001	-2.95480E-008	0.00000E+000	-3.60000E-001	1.00759E-003	5	..........a	-327.66
	234	47	-3.49885E-001	-2.76415E-008	0.00000E+000	-3.50000E-001	9.96892E-004	5	..........a	-327.66
	235	47.2	-3.39837E-001	-2.57141E-008	0.00000E+000	-3.40000E-001	9.99692E-004	5	..........a	-327.66
	236	47.4	-3.29869E-001	-2.35410E-008	0.00000E+000	-3.30000E-001	9.94792E-004	5	..........a	-327.66
	237	47.6	-3.19858E-001	-2.15399E-008	0.00000E+000	-3.20000E-001	1.00469E-003	5	..........a	-327.66
	238	47.8	-3.09901E-001	-1.98252E-008	0.00000E+000	-3.10000E-001	1.00439E-003	5	..........a	-327.66
	239	48	-2.99869E-001	-1.76100E-008	0.00000E+000	-3.00000E-001	9.93792E-004	5	..........a	-327.66
	240	48.2	-2.89880E-001	-1.57580E-008	0.00000E+000	-2.90000E-001	9.87092E-004	5	..........a	-327.66
	241	48.4	-2.79883E-001	-1.41329E-008	0.00000E+000	-2.80000E-001	1.01039E-003	5	..........a	-327.66
	242	48.6	-2.69885E-001	-1.23458E-008	0.00000E+000	-2.70000E-001	1.00009E-003	5	..........a	-327.66
	243	48.8	-2.59823E-001	-1.06105E-008	0.00000E+000	-2.60000E-001	9.82692E-004	5	..........a	-327.66
	244	49	-2.49864E-001	-8.86997E-009	0.00000E+000	-2.50000E-001	1.00239E-003	5	..........a	-327.66
	245	49.2	-2.39967E-001	-7.13259E-009	0.00000E+000	-2.40000E-001	1.01209E-003	5	..........a	-327.66
	246	49.4	-2.29918E-001	-5.50234E-009	0.00000E+000	-2.30000E-001	1.00039E-003	5	..........a	-327.66
	247	49.6	-2.19868E-001	-3.86202E-009	0.00000E+000	-2.20000E-001	9.90392E-004	5	..........a	-327.66
	248	49.8	-2.09937E-001	-2.19841E-009	0.00000E+000	-2.10000E-001	9.99292E-004	5	..........a	-327.66
	249	50	-1.99969E-001	-5.86155E-010	0.00000E+000	-2.00000E-001	1.00209E-003	5	..........a	-327.66
	250	50.2	-1.90181E-001	8.99810E-010	0.00000E+000	-1.90000E-001	1.00339E-003	5	..........a	-327.66
	251	50.4	-1.79969E-001	2.56794E-009	0.00000E+000	-1.80000E-001	1.00879E-003	5	..........a	-327.66
	252	50.6	-1.69898E-001	4.14709E-009	0.00000E+000	-1.70000E-001	9.97392E-004	5	..........a	-327.66
	253	50.8	-1.60014E-001	5.61706E-009	0.00000E+000	-1.60000E-001	1.00919E-003	5	..........a	-327.66
	254	51	-1.49954E-001	7.06688E-009	0.00000E+000	-1.50000E-001	9.93992E-004	5	..........a	-327.66
	255	51.2	-1.39855E-001	8.52769E-009	0.00000E+000	-1.40000E-001	9.98892E-004	5	..........a	-327.66
	256	51.4	-1.29977E-001	9.88209E-009	0.00000E+000	-1.30000E-001	1.02579E-003	5	..........a	-327.66
	257	51.6	-1.19955E-001	1.12766E-008	0.00000E+000	-1.20000E-001	1.01609E-003	5	..........a	-327.66
	258	51.8	-1.10031E-001	1.26022E-008	0.00000E+000	-1.10000E-001	1.00069E-003	5	..........a	-327.66
	259	52	-9.99050E-002	1.40204E-008	0.00000E+000	-1.00000E-001	9.87492E-004	5	..........a	-327.66
	260	52.2	-8.99074E-002	1.53577E-008	0.00000E+000	-9.00000E-002	9.96692E-004	5	..........a	-327.66
	261	52.4	-7.99813E-002	1.66922E-008	0.00000E+000	-8.00000E-002	1.03429E-003	5	..........a	-327.66
	262	52.6	-6.99639E-002	1.80270E-008	0.00000E+000	-7.00000E-002	9.99692E-004	5	..........a	-327.66
	263	52.8	-5.98668E-002	1.93254E-008	0.00000E+000	-6.00000E-002	1.00719E-003	5	..........a	-327.66
	264	53	-4.99061E-002	2.06400E-008	0.00000E+000	-5.00000E-002	1.01009E-003	5	..........a	-327.66
	265	53.2	-3.99204E-002	2.20244E-008	0.00000E+000	-4.00000E-002	1.01569E-003	5	..........a	-327.66
	266	53.4	-3.00112E-002	2.33394E-008	0.00000E+000	-3.00000E-002	1.01609E-003	5	..........a	-327.66
	267	53.6	-1.99327E-002	2.47244E-008	0.00000E+000	-2.00000E-002	9.91992E-004	5	..........a	-327.66
	268	53.8	-9.89786E-003	2.61186E-008	0.00000E+000	-1.00000E-002	9.86092E-004	5	..........a	-327.66
	269	54	2.20417E-005	2.75478E-008	0.00000E+000	7.45058E-009	1.01389E-003	5	..........a	-327.66
	270	54.2	1.00789E-002	2.90242E-008	0.00000E+000	1.00000E-002	9.93192E-004	5	..........a	-327.66
	271	54.4	2.01338E-002	3.05340E-008	0.00000E+000	2.00000E-002	9.92292E-004	5	..........a	-327.66
	272	54.6	3.00161E-002	3.21110E-008	0.00000E+000	3.00000E-002	1.01259E-003	5	..........a	-327.66
	273	54.8	4.00103E-002	3.38024E-008	0.00000E+000	4.00000E-002	1.00469E-003	5	..........a	-327.66
	274	55	5.00268E-002	3.55462E-008	0.00000E+000	5.00000E-002	1.00399E-003	5	..........a	-327.66
	275	55.2	6.00997E-002	3.73943E-008	0.00000E+000	6.00000E-002	1.00059E-003	5	..........a	-327.66
	276	55.4	6.99753E-002	3.93601E-008	0.00000E+000	7.00000E-002	1.00989E-003	5	..........a	-327.66
	277	55.6	7.99871E-002	4.14749E-008	0.00000E+000	8.00000E-002	1.02829E-003	5	..........a	-327.66
	278	55.8	9.00313E-002	4.37430E-008	0.00000E+000	9.00000E-002	1.00819E-003	5	..........a	-327.66
	279	56	1.00090E-001	4.61221E-008	0.00000E+000	1.00000E-001	9.91792E-004	5	..........a	-327.66
	280	56.2	1.10049E-001	4.86715E-008	0.00000E+000	1.10000E-001	1.00449E-003	5	..........a	-327.66
	281	56.4	1.20000E-001	5.14427E-008	0.00000E+000	1.20000E-001	1.00259E-003	5	..........a	-327.66
	282	56.6	1.29999E-001	5.47127E-008	0.00000E+000	1.30000E-001	1.01329E-003	5	..........a	-327.66
	283	56.8	1.40099E-001	5.77241E-008	0.00000E+000	1.40000E-001	9.81292E-004	5	..........a	-327.66
	284	57	1.50015E-001	6.06932E-008	0.00000E+000	1.50000E-001	1.02109E-003	5	..........a	-327.66
	285	57.2	1.59978E-001	6.41610E-008	0.00000E+000	1.60000E-001	1.03039E-003	5	..........a	-327.66
	286	57.4	1.70045E-001	6.73313E-008	0.00000E+000	1.70000E-001	1.01229E-003	5	..........a	-327.66
	287	57.6	1.80049E-001	6.96713E-008	0.00000E+000	1.80000E-001	9.81092E-004	5	..........a	-327.66
	288	57.8	1.90085E-001	7.19322E-008	0.00000E+000	1.90000E-001	9.97692E-004	5	..........a	-327.66
	289	58	1.99993E-001	7.43723E-008	0.00000E+000	2.00000E-001	1.01349E-003	5	..........a	-327.66
	290	58.2	2.09992E-001	7.65122E-008	0.00000E+000	2.10000E-001	1.00309E-003	5	..........a	-327.66
	291	58.4	2.19899E-001	7.82664E-008	0.00000E+000	2.20000E-001	9.99592E-004	5	..........a	-327.66
	292	58.6	2.29972E-001	7.95330E-008	0.00000E+000	2.30000E-001	1.00749E-003	5	..........a	-327.66
	293	58.8	2.39983E-001	8.04155E-008	0.00000E+000	2.40000E-001	1.00439E-003	5	..........a	-327.66
	294	59	2.49968E-001	8.08910E-008	0.00000E+000	2.50000E-001	1.00459E-003	5	..........a	-327.66
	295	59.2	2.60001E-001	8.11229E-008	0.00000E+000	2.60000E-001	9.91492E-004	5	..........a	-327.66
	296	59.4	2.70048E-001	8.12477E-008	0.00000E+000	2.70000E-001	1.00899E-003	5	..........a	-327.66
	297	59.6	2.79941E-001	8.13890E-008	0.00000E+000	2.80000E-001	9.96992E-004	5	..........a	-327.66
	298	59.8	2.89982E-001	8.15691E-008	0.00000E+000	2.90000E-001	1.01389E-003	5	..........a	-327.66
	299	60	3.00040E-001	8.18931E-008	0.00000E+000	3.00000E-001	1.00379E-003	5	..........a	-327.66
	300	60.2	3.10003E-001	8.22508E-008	0.00000E+000	3.10000E-001	1.02249E-003	5	..........a	-327.66
	301	60.4	3.19988E-001	8.27647E-008	0.00000E+000	3.20000E-001	1.01079E-003	5	..........a	-327.66
	302	60.6	3.29974E-001	8.34198E-008	0.00000E+000	3.30000E-001	9.98192E-004	5	..........a	-327.66
	303	60.8	3.40020E-001	8.41892E-008	0.00000E+000	3.40000E-001	1.00299E-003	5	..........a	-327.66
	304	61	3.49943E-001	8.50345E-008	0.00000E+000	3.50000E-001	1.00609E-003	5	..........a	-327.66
	305	61.2	3.59961E-001	8.60476E-008	0.00000E+000	3.60000E-001	1.00219E-003	5	..........a	-327.66
	306	61.4	3.70011E-001	8.71765E-008	0.00000E+000	3.70000E-001	1.00279E-003	5	..........a	-327.66
	307	61.6	3.80037E-001	8.84130E-008	0.00000E+000	3.80000E-001	9.84892E-004	5	..........a	-327.66
	308	61.8	3.89988E-001	8.97112E-008	0.00000E+000	3.90000E-001	9.99692E-004	5	..........a	-327.66
	309	62	3.99981E-001	9.11298E-008	0.00000E+000	4.00000E-001	1.00709E-003	5	..........a	-327.66
	310	62.2	4.09943E-001	9.25824E-008	0.00000E+000	4.10000E-001	1.00549E-003	5	..........a	-327.66
	311	62.4	4.19987E-001	9.41453E-008	0.00000E+000	4.20000E-001	1.01229E-003	5	..........a	-327.66
	312	62.6	4.29965E-001	9.58150E-008	0.00000E+000	4.30000E-001	1.03079E-003	5	..........a	-327.66
	313	62.8	4.39946E-001	9.75547E-008	0.00000E+000	4.40000E-001	1.01479E-003	5	..........a	-327.66
	314	63	4.49823E-001	9.93991E-008	0.00000E+000	4.50000E-001	1.00529E-003	5	..........a	-327.66
	315	63.2	4.59963E-001	1.01327E-007	0.00000E+000	4.60000E-001	9.97392E-004	5	..........a	-327.66
	316	63.4	4.70005E-001	1.03326E-007	0.00000E+000	4.70000E-001	1.01369E-003	5	..........a	-327.66
	317	63.6	4.79891E-001	1.05494E-007	0.00000E+000	4.80000E-001	1.01679E-003	5	..........a	-327.66
	318	63.8	4.89942E-001	1.07798E-007	0.00000E+000	4.90000E-001	1.00399E-003	5	..........a	-327.66
	319	64	5.00022E-001	1.10258E-007	0.00000E+000	5.00000E-001	1.00779E-003	5	..........a	-327.66
	320	64.2	5.09980E-001	1.12811E-007	0.00000E+000	5.10000E-001	1.01029E-003	5	..........a	-327.66
	321	64.4	5.19940E-001	1.15455E-007	0.00000E+000	5.20000E-001	1.01089E-003	5	..........a	-327.66
	322	64.6	5.29956E-001	1.18178E-007	0.00000E+000	5.30000E-001	9.88592E-004	5	..........a	-327.66
	323	64.8	5.39954E-001	1.20938E-007	0.00000E+000	5.40000E-001	9.97192E-004	5	..........a	-327.66
	324	65	5.49999E-001	1.23739E-007	0.00000E+000	5.50000E-001	9.95292E-004	5	..........a	-327.66
	325	65.2	5.59927E-001	1.26554E-007	0.00000E+000	5.60000E-001	1.00399E-003	5	..........a	-327.66
	326	65.4	5.69939E-001	1.29357E-007	0.00000E+000	5.70000E-001	1.01469E-003	5	..........a	-327.66
	327	65.6	5.79965E-001	1.32193E-007	0.00000E+000	5.80000E-001	1.00709E-003	5	..........a	-327.66
	328	65.8	5.89987E-001	1.35011E-007	0.00000E+000	5.90000E-001	1.00979E-003	5	..........a	-327.66
	329	66	5.99932E-001	1.37876E-007	0.00000E+000	6.00000E-001	1.00839E-003	5	..........a	-327.66
	330	66.2	6.09918E-001	1.40849E-007	0.00000E+000	6.10000E-001	1.01669E-003	5	..........a	-327.66
	331	66.4	6.19912E-001	1.43897E-007	0.00000E+000	6.20000E-001	1.00829E-003	5	..........a	-327.66
	332	66.6	6.29991E-001	1.47139E-007	0.00000E+000	6.30000E-001	9.87292E-004	5	..........a	-327.66
	333	66.8	6.39870E-001	1.50537E-007	0.00000E+000	6.40000E-001	1.01159E-003	5	..........a	-327.66
	334	67	6.49908E-001	1.54150E-007	0.00000E+000	6.50000E-001	1.01209E-003	5	..........a	-327.66
	335	67.2	6.59896E-001	1.58001E-007	0.00000E+000	6.60000E-001	9.99992E-004	5	..........a	-327.66
	336	67.4	6.69941E-001	1.62106E-007	0.00000E+000	6.70000E-001	9.99392E-004	5	..........a	-327.66
	337	67.6	6.79887E-001	1.66485E-007	0.00000E+000	6.80000E-001	1.01369E-003	5	..........a	-327.66
	338	67.8	6.89835E-001	1.71041E-007	0.00000E+000	6.90000E-001	1.01389E-003	5	..........a	-327.66
	339	68	6.99880E-001	1.75961E-007	0.00000E+000	7.00000E-001	1.01499E-003	5	..........a	-327.66
	340	68.2	7.09952E-001	1.81091E-007	0.00000E+000	7.10000E-001	1.00489E-003	5	..........a	-327.66
	341	68.4	7.19873E-001	1.86428E-007	0.00000E+000	7.20000E-001	1.00899E-003	5	..........a	-327.66
	342	68.6	7.29873E-001	1.91997E-007	0.00000E+000	7.30000E-001	9.96992E-004	5	..........a	-327.66
	343	68.8	7.39890E-001	1.97775E-007	0.00000E+000	7.40000E-001	9.91592E-004	5	..........a	-327.66
	344	69	7.49947E-001	2.03701E-007	0.00000E+000	7.50000E-001	1.00719E-003	5	..........a	-327.66
	345	69.2	7.59868E-001	2.09860E-007	0.00000E+000	7.60000E-001	1.01329E-003	5	..........a	-327.66
	346	69.4	7.69856E-001	2.16202E-007	0.00000E+000	7.70000E-001	9.86392E-004	5	..........a	-327.66
	347	69.6	7.79850E-001	2.22700E-007	0.00000E+000	7.80000E-001	1.00429E-003	5	..........a	-327.66
	348	69.8	7.89945E-001	2.29438E-007	0.00000E+000	7.90000E-001	1.01719E-003	5	..........a	-327.66
	349	70	7.99847E-001	2.36420E-007	0.00000E+000	8.00000E-001	9.98492E-004	5	..........a	-327.66
	350	70.2	7.89956E-001	1.99927E-007	0.00000E+000	7.90000E-001	1.02109E-003	5	..........a	-327.66
	351	70.4	7.79858E-001	1.75719E-007	0.00000E+000	7.80000E-001	9.99592E-004	5	..........a	-327.66
	352	70.6	7.69894E-001	1.57429E-007	0.00000E+000	7.70000E-001	1.01569E-003	5	..........a	-327.66
	353	70.8	7.59903E-001	1.42773E-007	0.00000E+000	7.60000E-001	9.98292E-004	5	..........a	-327.66
	354	71	7.49959E-001	1.30576E-007	0.00000E+000	7.50000E-001	1.00479E-003	5	..........a	-327.66
	355	71.2	7.39924E-001	1.20088E-007	0.00000E+000	7.40000E-001	9.92992E-004	5	..........a	-327.66
[...]
	923	184.8	6.59961E-001	6.30731E-008	0.00000E+000	6.60000E-001	1.00389E-003	5	..........a	-327.66
	924	185	6.49933E-001	5.88496E-008	0.00000E+000	6.50000E-001	1.01189E-003	5	..........a	-327.66
	925	185.2	6.39901E-001	5.48535E-008	0.00000E+000	6.40000E-001	1.00539E-003	5	..........a	-327.66
	926	185.4	6.30042E-001	5.11088E-008	0.00000E+000	6.30000E-001	1.02729E-003	5	..........a	-327.66
	927	185.6	6.19953E-001	4.75465E-008	0.00000E+000	6.20000E-001	9.92292E-004	5	..........a	-327.66
	928	185.8	6.09931E-001	4.41310E-008	0.00000E+000	6.10000E-001	1.01339E-003	5	..........a	-327.66
	929	186	5.99996E-001	4.08481E-008	0.00000E+000	6.00000E-001	1.02079E-003	5	..........a	-327.66
	930	186.2	5.90025E-001	3.76923E-008	0.00000E+000	5.90000E-001	9.99192E-004	5	..........a	-327.66
	931	186.4	5.80051E-001	3.46718E-008	0.00000E+000	5.80000E-001	9.90992E-004	5	..........a	-327.66
	932	186.6	5.69992E-001	3.17337E-008	0.00000E+000	5.70000E-001	1.00019E-003	5	..........a	-327.66
	933	186.8	5.59939E-001	2.89110E-008	0.00000E+000	5.60000E-001	1.01799E-003	5	..........a	-327.66
	934	187	5.50059E-001	2.61293E-008	0.00000E+000	5.50000E-001	1.01329E-003	5	..........a	-327.66
	935	187.2	5.40025E-001	2.34801E-008	0.00000E+000	5.40000E-001	1.01949E-003	5	..........a	-327.66
	936	187.4	5.29960E-001	2.08791E-008	0.00000E+000	5.30000E-001	1.00619E-003	5	..........a	-327.66
	937	187.6	5.19982E-001	1.84063E-008	0.00000E+000	5.20000E-001	1.01939E-003	5	..........a	-327.66
	938	187.8	5.09991E-001	1.60004E-008	0.00000E+000	5.10000E-001	1.01309E-003	5	..........a	-327.66
	939	188	5.00095E-001	1.36845E-008	0.00000E+000	5.00000E-001	9.98692E-004	5	..........a	-327.66
	940	188.2	4.89973E-001	1.14429E-008	0.00000E+000	4.90000E-001	1.01809E-003	5	..........a	-327.66
	941	188.4	4.79937E-001	9.28115E-009	0.00000E+000	4.80000E-001	1.03269E-003	5	..........a	-327.66
	942	188.6	4.70029E-001	7.18840E-009	0.00000E+000	4.70000E-001	9.97792E-004	5	..........a	-327.66
	943	188.8	4.60044E-001	5.12259E-009	0.00000E+000	4.60000E-001	1.01259E-003	5	..........a	-327.66
	944	189	4.49963E-001	3.14071E-009	0.00000E+000	4.50000E-001	1.01389E-003	5	..........a	-327.66
	945	189.2	4.39956E-001	1.23996E-009	0.00000E+000	4.40000E-001	1.02669E-003	5	..........a	-327.66
	946	189.4	4.29993E-001	-7.38671E-010	0.00000E+000	4.30000E-001	1.00359E-003	5	..........a	-327.66
	947	189.6	4.20036E-001	-2.57247E-009	0.00000E+000	4.20000E-001	1.00559E-003	5	..........a	-327.66
	948	189.8	4.10039E-001	-4.40665E-009	0.00000E+000	4.10000E-001	1.01469E-003	5	..........a	-327.66
	949	190	4.00067E-001	-6.25195E-009	0.00000E+000	4.00000E-001	9.95892E-004	5	..........a	-327.66
	950	190.2	3.90072E-001	-8.07445E-009	0.00000E+000	3.90000E-001	1.01619E-003	5	..........a	-327.66
	951	190.4	3.80112E-001	-9.91312E-009	0.00000E+000	3.80000E-001	1.01229E-003	5	..........a	-327.66
	952	190.6	3.70064E-001	-1.18180E-008	0.00000E+000	3.70000E-001	1.00139E-003	5	..........a	-327.66
	953	190.8	3.60054E-001	-1.36637E-008	0.00000E+000	3.60000E-001	1.00289E-003	5	..........a	-327.66
	954	191	3.50066E-001	-1.55820E-008	0.00000E+000	3.50000E-001	1.01139E-003	5	..........a	-327.66
	955	191.2	3.40107E-001	-1.75469E-008	0.00000E+000	3.40000E-001	9.94092E-004	5	..........a	-327.66
	956	191.4	3.30062E-001	-1.95142E-008	0.00000E+000	3.30000E-001	1.00749E-003	5	..........a	-327.66
	957	191.6	3.20069E-001	-2.16577E-008	0.00000E+000	3.20000E-001	1.01759E-003	5	..........a	-327.66
	958	191.8	3.10071E-001	-2.38395E-008	0.00000E+000	3.10000E-001	1.01679E-003	5	..........a	-327.66
	959	192	3.00135E-001	-2.61770E-008	0.00000E+000	3.00000E-001	1.00599E-003	5	..........a	-327.66
	960	192.2	2.90065E-001	-2.85986E-008	0.00000E+000	2.90000E-001	9.95592E-004	5	..........a	-327.66
	961	192.4	2.80014E-001	-3.12024E-008	0.00000E+000	2.80000E-001	1.00069E-003	5	..........a	-327.66
	962	192.6	2.70087E-001	-3.38885E-008	0.00000E+000	2.70000E-001	9.92292E-004	5	..........a	-327.66
	963	192.8	2.60092E-001	-3.67633E-008	0.00000E+000	2.60000E-001	9.88892E-004	5	..........a	-327.66
	964	193	2.50059E-001	-3.97047E-008	0.00000E+000	2.50000E-001	1.00749E-003	5	..........a	-327.66
	965	193.2	2.40070E-001	-4.27363E-008	0.00000E+000	2.40000E-001	9.99192E-004	5	..........a	-327.66
	966	193.4	2.30065E-001	-4.57604E-008	0.00000E+000	2.30000E-001	1.01999E-003	5	..........a	-327.66
	967	193.6	2.20096E-001	-4.87179E-008	0.00000E+000	2.20000E-001	1.00949E-003	5	..........a	-327.66
	968	193.8	2.10068E-001	-5.14680E-008	0.00000E+000	2.10000E-001	1.01009E-003	5	..........a	-327.66
	969	194	2.00071E-001	-5.39808E-008	0.00000E+000	2.00000E-001	1.00639E-003	5	..........a	-327.66
	970	194.2	1.90150E-001	-5.61288E-008	0.00000E+000	1.90000E-001	1.00499E-003	5	..........a	-327.66
	971	194.4	1.80165E-001	-5.79158E-008	0.00000E+000	1.80000E-001	9.84792E-004	5	..........a	-327.66
	972	194.6	1.70118E-001	-5.93421E-008	0.00000E+000	1.70000E-001	1.01739E-003	5	..........a	-327.66
	973	194.8	1.60099E-001	-6.03388E-008	0.00000E+000	1.60000E-001	1.01529E-003	5	..........a	-327.66
	974	195	1.50109E-001	-6.09583E-008	0.00000E+000	1.50000E-001	1.01989E-003	5	..........a	-327.66
	975	195.2	1.40163E-001	-6.13144E-008	0.00000E+000	1.40000E-001	9.89492E-004	5	..........a	-327.66
	976	195.4	1.30113E-001	-6.11868E-008	0.00000E+000	1.30000E-001	1.01929E-003	5	..........a	-327.66
	977	195.6	1.20092E-001	-6.08267E-008	0.00000E+000	1.20000E-001	1.01789E-003	5	..........a	-327.66
	978	195.8	1.10140E-001	-6.03445E-008	0.00000E+000	1.10000E-001	1.01929E-003	5	..........a	-327.66
	979	196	1.00183E-001	-5.99434E-008	0.00000E+000	1.00000E-001	9.92992E-004	5	..........a	-327.66
	980	196.2	9.01153E-002	-5.95826E-008	0.00000E+000	9.00000E-002	9.91892E-004	5	..........a	-327.66
	981	196.4	8.00555E-002	-5.93008E-008	0.00000E+000	8.00000E-002	1.01329E-003	5	..........a	-327.66
	982	196.6	7.00382E-002	-5.91556E-008	0.00000E+000	7.00000E-002	9.96092E-004	5	..........a	-327.66
	983	196.8	6.01554E-002	-5.90552E-008	0.00000E+000	6.00000E-002	9.87792E-004	5	..........a	-327.66
	984	197	5.00899E-002	-5.89806E-008	0.00000E+000	5.00000E-002	1.00869E-003	5	..........a	-327.66
	985	197.2	4.00593E-002	-5.89226E-008	0.00000E+000	4.00000E-002	1.00649E-003	5	..........a	-327.66
	986	197.4	3.00701E-002	-5.89431E-008	0.00000E+000	3.00000E-002	1.01579E-003	5	..........a	-327.66
	987	197.6	2.01912E-002	-5.90172E-008	0.00000E+000	2.00000E-002	1.01159E-003	5	..........a	-327.66
	988	197.8	1.01293E-002	-5.90770E-008	0.00000E+000	1.00000E-002	1.02539E-003	5	..........a	-327.66
	989	198	3.73417E-005	-5.86281E-008	0.00000E+000	7.45058E-009	1.02299E-003	5	..........a	-327.66
	990	198.2	-9.89776E-003	-5.84654E-008	0.00000E+000	-1.00000E-002	1.02969E-003	5	..........a	-327.66
	991	198.4	-1.98785E-002	-5.85980E-008	0.00000E+000	-2.00000E-002	1.01969E-003	5	..........a	-327.66
	992	198.6	-2.99237E-002	-5.88556E-008	0.00000E+000	-3.00000E-002	1.00769E-003	5	..........a	-327.66
	993	198.8	-3.98858E-002	-5.91820E-008	0.00000E+000	-4.00000E-002	1.00379E-003	5	..........a	-327.66
	994	199	-4.98750E-002	-5.95877E-008	0.00000E+000	-5.00000E-002	1.00509E-003	5	..........a	-327.66
	995	199.2	-5.98119E-002	-6.01045E-008	0.00000E+000	-6.00000E-002	9.90992E-004	5	..........a	-327.66
	996	199.4	-6.98781E-002	-6.07579E-008	0.00000E+000	-7.00000E-002	1.01369E-003	5	..........a	-327.66
	997	199.6	-7.98914E-002	-6.13748E-008	0.00000E+000	-8.00000E-002	1.01499E-003	5	..........a	-327.66
	998	199.8	-8.98712E-002	-6.21645E-008	0.00000E+000	-9.00000E-002	1.01269E-003	5	..........a	-327.66
	999	200	-9.98536E-002	-6.29975E-008	0.00000E+000	-1.00000E-001	9.88992E-004	5	..........a	-327.66
	1000	200.2	-1.09933E-001	-6.38237E-008	0.00000E+000	-1.10000E-001	1.01729E-003	5	..........a	-327.66
	1001	200.4	-1.19898E-001	-6.47422E-008	0.00000E+000	-1.20000E-001	1.04179E-003	5	..........a	-327.66
	1002	200.6	-1.29897E-001	-6.56279E-008	0.00000E+000	-1.30000E-001	1.02249E-003	5	..........a	-327.66
	1003	200.8	-1.39885E-001	-6.67471E-008	0.00000E+000	-1.40000E-001	1.01469E-003	5	..........a	-327.66
	1004	201	-1.49924E-001	-6.79974E-008	0.00000E+000	-1.50000E-001	1.00109E-003	5	..........a	-327.66
	1005	201.2	-1.59965E-001	-6.90865E-008	0.00000E+000	-1.60000E-001	9.98992E-004	5	..........a	-327.66
	1006	201.4	-1.69854E-001	-7.04494E-008	0.00000E+000	-1.70000E-001	1.00509E-003	5	..........a	-327.66
	1007	201.6	-1.79841E-001	-7.15726E-008	0.00000E+000	-1.80000E-001	9.96792E-004	5	..........a	-327.66
	1008	201.8	-1.89891E-001	-7.28399E-008	0.00000E+000	-1.90000E-001	1.01129E-003	5	..........a	-327.66
	1009	202	-1.99932E-001	-7.41982E-008	0.00000E+000	-2.00000E-001	1.03229E-003	5	..........a	-327.66
	1010	202.2	-2.09855E-001	-7.55800E-008	0.00000E+000	-2.10000E-001	1.00659E-003	5	..........a	-327.66
	1011	202.4	-2.19828E-001	-7.67677E-008	0.00000E+000	-2.20000E-001	9.96492E-004	5	..........a	-327.66
	1012	202.6	-2.29894E-001	-7.79189E-008	0.00000E+000	-2.30000E-001	1.00799E-003	5	..........a	-327.66
	1013	202.8	-2.39904E-001	-7.89790E-008	0.00000E+000	-2.40000E-001	1.01019E-003	5	..........a	-327.66
	1014	203	-2.49860E-001	-7.99354E-008	0.00000E+000	-2.50000E-001	9.99692E-004	5	..........a	-327.66
	1015	203.2	-2.59749E-001	-8.09066E-008	0.00000E+000	-2.60000E-001	9.81392E-004	5	..........a	-327.66
	1016	203.4	-2.69839E-001	-8.18345E-008	0.00000E+000	-2.70000E-001	1.02689E-003	5	..........a	-327.66
	1017	203.6	-2.79881E-001	-8.28040E-008	0.00000E+000	-2.80000E-001	1.02279E-003	5	..........a	-327.66
	1018	203.8	-2.89884E-001	-8.37353E-008	0.00000E+000	-2.90000E-001	9.97992E-004	5	..........a	-327.66
	1019	204	-2.99812E-001	-8.47801E-008	0.00000E+000	-3.00000E-001	9.96392E-004	5	..........a	-327.66
	1020	204.2	-3.09845E-001	-8.58222E-008	0.00000E+000	-3.10000E-001	1.00059E-003	5	..........a	-327.66
	1021	204.4	-3.19818E-001	-8.69962E-008	0.00000E+000	-3.20000E-001	1.00089E-003	5	..........a	-327.66
	1022	204.6	-3.29856E-001	-8.81076E-008	0.00000E+000	-3.30000E-001	1.01169E-003	5	..........a	-327.66
	1023	204.8	-3.39760E-001	-8.92439E-008	0.00000E+000	-3.40000E-001	1.00909E-003	5	..........a	-327.66
	1024	205	-3.49838E-001	-9.03553E-008	0.00000E+000	-3.50000E-001	1.00979E-003	5	..........a	-327.66
	1025	205.2	-3.59862E-001	-9.14697E-008	0.00000E+000	-3.60000E-001	1.00619E-003	5	..........a	-327.66
	1026	205.4	-3.69823E-001	-9.25834E-008	0.00000E+000	-3.70000E-001	9.97192E-004	5	..........a	-327.66
	1027	205.6	-3.79785E-001	-9.36017E-008	0.00000E+000	-3.80000E-001	9.89092E-004	5	..........a	-327.66
	1028	205.8	-3.89887E-001	-9.46971E-008	0.00000E+000	-3.90000E-001	1.00899E-003	5	..........a	-327.66
	1029	206	-3.99814E-001	-9.57965E-008	0.00000E+000	-4.00000E-001	9.96092E-004	5	..........a	-327.66
	1030	206.2	-4.09829E-001	-9.70083E-008	0.00000E+000	-4.10000E-001	1.01189E-003	5	..........a	-327.66
	1031	206.4	-4.19715E-001	-9.82566E-008	0.00000E+000	-4.20000E-001	1.00939E-003	5	..........a	-327.66
	1032	206.6	-4.29834E-001	-9.95554E-008	0.00000E+000	-4.30000E-001	1.00709E-003	5	..........a	-327.66
	1033	206.8	-4.39805E-001	-1.00947E-007	0.00000E+000	-4.40000E-001	9.96792E-004	5	..........a	-327.66
	1034	207	-4.49825E-001	-1.02435E-007	0.00000E+000	-4.50000E-001	9.96892E-004	5	..........a	-327.66
	1035	207.2	-4.59760E-001	-1.03983E-007	0.00000E+000	-4.60000E-001	1.01219E-003	5	..........a	-327.66
	1036	207.4	-4.69812E-001	-1.05559E-007	0.00000E+000	-4.70000E-001	1.00509E-003	5	..........a	-327.66
	1037	207.6	-4.79797E-001	-1.07161E-007	0.00000E+000	-4.80000E-001	1.00229E-003	5	..........a	-327.66
	1038	207.8	-4.89818E-001	-1.08808E-007	0.00000E+000	-4.90000E-001	1.02939E-003	5	..........a	-327.66
	1039	208	-4.99782E-001	-1.10480E-007	0.00000E+000	-5.00000E-001	1.01399E-003	5	..........a	-327.66
	1040	208.2	-5.09809E-001	-1.12248E-007	0.00000E+000	-5.10000E-001	1.02179E-003	5	..........a	-327.66
	1041	208.4	-5.19833E-001	-1.14005E-007	0.00000E+000	-5.20000E-001	1.00789E-003	5	..........a	-327.66
	1042	208.6	-5.29815E-001	-1.15840E-007	0.00000E+000	-5.30000E-001	1.02549E-003	5	..........a	-327.66
	1043	208.8	-5.39734E-001	-1.17774E-007	0.00000E+000	-5.40000E-001	1.02109E-003	5	..........a	-327.66
	1044	209	-5.49836E-001	-1.19760E-007	0.00000E+000	-5.50000E-001	9.98792E-004	5	..........a	-327.66
	1045	209.2	-5.59840E-001	-1.21820E-007	0.00000E+000	-5.60000E-001	1.00549E-003	5	..........a	-327.66
	1046	209.4	-5.69840E-001	-1.23952E-007	0.00000E+000	-5.70000E-001	1.00109E-003	5	..........a	-327.66
	1047	209.6	-5.79767E-001	-1.26253E-007	0.00000E+000	-5.80000E-001	9.90692E-004	5	..........a	-327.66
	1048	209.8	-5.89821E-001	-1.28682E-007	0.00000E+000	-5.90000E-001	9.95292E-004	5	..........a	-327.66
	1049	210	-5.99889E-001	-1.31080E-007	0.00000E+000	-6.00000E-001	1.00449E-003	5	..........a	-327.66
CURVE5	TABLE
	Pt	T	Vf	Im	Vu	Sig	Ach	IERange	Over	Temp
	#	s	V vs. Ref.	A	V	V	V	#	bits	deg C
	1050	210.2	-5.89819E-001	-1.18390E-007	0.00000E+000	-5.90000E-001	1.00049E-003	5	..........a	-327.66
	1051	210.4	-5.79767E-001	-1.09442E-007	0.00000E+000	-5.80000E-001	9.91792E-004	5	..........a	-327.66
	1052	210.6	-5.69836E-001	-1.02218E-007	0.00000E+000	-5.70000E-001	1.01039E-003	5	..........a	-327.66
	1053	210.8	-5.59811E-001	-9.58167E-008	0.00000E+000	-5.60000E-001	9.94392E-004	5	..........a	-327.66
	1054	211	-5.49832E-001	-9.01941E-008	0.00000E+000	-5.50000E-001	1.00649E-003	5	..........a	-327.66
	1055	211.2	-5.39731E-001	-8.50741E-008	0.00000E+000	-5.40000E-001	1.00429E-003	5	..........a	-327.66
	1056	211.4	-5.29820E-001	-8.02763E-008	0.00000E+000	-5.30000E-001	1.00239E-003	5	..........a	-327.66
	1057	211.6	-5.19808E-001	-7.59351E-008	0.00000E+000	-5.20000E-001	1.01879E-003	5	..........a	-327.66
	1058	211.8	-5.09836E-001	-7.18693E-008	0.00000E+000	-5.10000E-001	9.95992E-004	5	..........a	-327.66
	1059	212	-4.99807E-001	-6.79862E-008	0.00000E+000	-5.00000E-001	9.98992E-004	5	..........a	-327.66
	1060	212.2	-4.89834E-001	-6.43645E-008	0.00000E+000	-4.90000E-001	1.00819E-003	5	..........a	-327.66
	1061	212.4	-4.79816E-001	-6.08132E-008	0.00000E+000	-4.80000E-001	9.99992E-004	5	..........a	-327.66
	1062	212.6	-4.69836E-001	-5.74960E-008	0.00000E+000	-4.70000E-001	1.00719E-003	5	..........a	-327.66
	1063	212.8	-4.59769E-001	-5.43139E-008	0.00000E+000	-4.60000E-001	1.00299E-003	5	..........a	-327.66
	1064	213	-4.49831E-001	-5.13766E-008	0.00000E+000	-4.50000E-001	1.00419E-003	5	..........a	-327.66
	1065	213.2	-4.39913E-001	-4.84105E-008	0.00000E+000	-4.40000E-001	1.00709E-003	5	..........a	-327.66
	1066	213.4	-4.29833E-001	-4.56489E-008	0.00000E+000	-4.30000E-001	9.95492E-004	5	..........a	-327.66
	1067	213.6	-4.19766E-001	-4.29865E-008	0.00000E+000	-4.20000E-001	1.01569E-003	5	..........a	-327.66
	1068	213.8	-4.09866E-001	-4.03196E-008	0.00000E+000	-4.10000E-001	1.02309E-003	5	..........a	-327.66
	1069	214	-3.99865E-001	-3.78469E-008	0.00000E+000	-4.00000E-001	1.01219E-003	5	..........a	-327.66
	1070	214.2	-3.89876E-001	-3.54855E-008	0.00000E+000	-3.90000E-001	1.01829E-003	5	..........a	-327.66
	1071	214.4	-3.79837E-001	-3.30915E-008	0.00000E+000	-3.80000E-001	1.00589E-003	5	..........a	-327.66
	1072	214.6	-3.69866E-001	-3.09023E-008	0.00000E+000	-3.70000E-001	1.00919E-003	5	..........a	-327.66
	1073	214.8	-3.59868E-001	-2.87246E-008	0.00000E+000	-3.60000E-001	9.93592E-004	5	..........a	-327.66
	1074	215	-3.49865E-001	-2.65860E-008	0.00000E+000	-3.50000E-001	1.00709E-003	5	..........a	-327.66
	1075	215.2	-3.39794E-001	-2.45793E-008	0.00000E+000	-3.40000E-001	9.83692E-004	5	..........a	-327.66
	1076	215.4	-3.29904E-001	-2.25497E-008	0.00000E+000	-3.30000E-001	1.01889E-003	5	..........a	-327.66
	1077	215.6	-3.19854E-001	-2.06015E-008	0.00000E+000	-3.20000E-001	1.00109E-003	5	..........a	-327.66
	1078	215.8	-3.09876E-001	-1.86622E-008	0.00000E+000	-3.10000E-001	1.02309E-003	5	..........a	-327.66
	1079	216	-2.99851E-001	-1.68220E-008	0.00000E+000	-3.00000E-001	1.01439E-003	5	..........a	-327.66
	1080	216.2	-2.89870E-001	-1.49782E-008	0.00000E+000	-2.90000E-001	1.02389E-003	5	..........a	-327.66
	1081	216.4	-2.79865E-001	-1.31852E-008	0.00000E+000	-2.80000E-001	1.00879E-003	5	..........a	-327.66
	1082	216.6	-2.69861E-001	-1.14024E-008	0.00000E+000	-2.70000E-001	9.99692E-004	5	..........a	-327.66
	1083	216.8	-2.59812E-001	-9.66869E-009	0.00000E+000	-2.60000E-001	1.02769E-003	5	..........a	-327.66
	1084	217	-2.49872E-001	-7.94861E-009	0.00000E+000	-2.50000E-001	9.93992E-004	5	..........a	-327.66
	1085	217.2	-2.39871E-001	-6.22829E-009	0.00000E+000	-2.40000E-001	1.00749E-003	5	..........a	-327.66
	1086	217.4	-2.29888E-001	-4.55791E-009	0.00000E+000	-2.30000E-001	1.00099E-003	5	..........a	-327.66
	1087	217.6	-2.19856E-001	-2.90306E-009	0.00000E+000	-2.20000E-001	9.86192E-004	5	..........a	-327.66
	1088	217.8	-2.09937E-001	-1.21605E-009	0.00000E+000	-2.10000E-001	1.01749E-003	5	..........a	-327.66
	1089	218	-1.99952E-001	4.59244E-010	0.00000E+000	-2.00000E-001	1.00369E-003	5	..........a	-327.66
	1090	218.2	-1.90229E-001	2.05654E-009	0.00000E+000	-1.90000E-001	1.01059E-003	5	..........a	-327.66
	1091	218.4	-1.79924E-001	3.68501E-009	0.00000E+000	-1.80000E-001	9.88592E-004	5	..........a	-327.66
	1092	218.6	-1.69887E-001	5.31565E-009	0.00000E+000	-1.70000E-001	1.01619E-003	5	..........a	-327.66
	1093	218.8	-1.59996E-001	6.89061E-009	0.00000E+000	-1.60000E-001	1.01189E-003	5	..........a	-327.66
	1094	219	-1.49972E-001	8.45563E-009	0.00000E+000	-1.50000E-001	1.00249E-003	5	..........a	-327.66
	1095	219.2	-1.39865E-001	1.00104E-008	0.00000E+000	-1.40000E-001	1.01449E-003	5	..........a	-327.66
	1096	219.4	-1.29986E-001	1.15138E-008	0.00000E+000	-1.30000E-001	1.01119E-003	5	..........a	-327.66
	1097	219.6	-1.19985E-001	1.30217E-008	0.00000E+000	-1.20000E-001	1.00949E-003	5	..........a	-327.66
	1098	219.8	-1.09949E-001	1.45037E-008	0.00000E+000	-1.10000E-001	1.02129E-003	5	..........a	-327.66
	1099	220	-9.98831E-002	1.59770E-008	0.00000E+000	-1.00000E-001	1.00229E-003	5	..........a	-327.66
	1100	220.2	-8.99036E-002	1.74278E-008	0.00000E+000	-9.00000E-002	1.00169E-003	5	..........a	-327.66
	1101	220.4	-7.99680E-002	1.89063E-008	0.00000E+000	-8.00000E-002	1.01529E-003	5	..........a	-327.66
	1102	220.6	-6.99338E-002	2.03293E-008	0.00000E+000	-7.00000E-002	9.88192E-004	5	..........a	-327.66
	1103	220.8	-5.98357E-002	2.17815E-008	0.00000E+000	-6.00000E-002	1.00799E-003	5	..........a	-327.66
	1104	221	-4.99667E-002	2.32231E-008	0.00000E+000	-5.00000E-002	1.01149E-003	5	..........a	-327.66
	1105	221.2	-3.99152E-002	2.46652E-008	0.00000E+000	-4.00000E-002	1.00219E-003	5	..........a	-327.66
	1106	221.4	-2.99441E-002	2.60777E-008	0.00000E+000	-3.00000E-002	1.01849E-003	5	..........a	-327.66
	1107	221.6	-1.99022E-002	2.75509E-008	0.00000E+000	-2.00000E-002	1.01159E-003	5	..........a	-327.66
	1108	221.8	-9.92726E-003	2.90022E-008	0.00000E+000	-1.00000E-002	1.00669E-003	5	..........a	-327.66
	1109	222	8.84166E-006	3.04886E-008	0.00000E+000	7.45058E-009	1.03569E-003	5	..........a	-327.66
	1110	222.2	1.00961E-002	3.20112E-008	0.00000E+000	1.00000E-002	1.01019E-003	5	..........a	-327.66
	1111	222.4	2.00621E-002	3.35789E-008	0.00000E+000	2.00000E-002	1.02839E-003	5	..........a	-327.66
	1112	222.6	3.00600E-002	3.51769E-008	0.00000E+000	3.00000E-002	1.02099E-003	5	..........a	-327.66
	1113	222.8	4.00374E-002	3.68143E-008	0.00000E+000	4.00000E-002	1.01099E-003	5	..........a	-327.66
	1114	223	4.99985E-002	3.84955E-008	0.00000E+000	5.00000E-002	1.01649E-003	5	..........a	-327.66
	1115	223.2	6.00936E-002	4.02633E-008	0.00000E+000	6.00000E-002	1.00019E-003	5	..........a	-327.66
	1116	223.4	6.99997E-002	4.21046E-008	0.00000E+000	7.00000E-002	1.01109E-003	5	..........a	-327.66
	1117	223.6	7.99664E-002	4.39823E-008	0.00000E+000	8.00000E-002	1.02409E-003	5	..........a	-327.66
	1118	223.8	9.00840E-002	4.59880E-008	0.00000E+000	9.00000E-002	1.00129E-003	5	..........a	-327.66
	1119	224	1.00113E-001	4.81173E-008	0.00000E+000	1.00000E-001	1.00819E-003	5	..........a	-327.66
	1120	224.2	1.10079E-001	5.04056E-008	0.00000E+000	1.10000E-001	1.01669E-003	5	..........a	-327.66