File: data/raw/batch_data/20240509_ZZZC_GM0016_HL03_E14_CV50.DTA
EXPLAIN
TAG	CV
TITLE	LABEL	Cyclic Voltammetry	Test &Identifier
DATE	LABEL	5/9/2024	Date
TIME	LABEL	15:23:37	Time
NOTES	NOTES	1	&Notes...

PSTAT	PSTAT	REF600P-43058	Potentiostat
VINIT	POTEN	0.00000E+000	T	Initial &E (V)
VLIMIT1	POTEN	8.00000E-001	F	Scan Limit &1 (V)
VLIMIT2	POTEN	-6.00000E-001	F	Scan Limit &2 (V)
VFINAL	POTEN	0.00000E+000	T	Final &E (V)
SCANRATE	QUANT	4.99999E+001	&Scan Rate (mV/s)
STEPSIZE	QUANT	1.00000E+001	St&ep Size (mV)
CYCLES	IQUANT	4	C&ycles (#)
IMODE	SELECTOR	0	I/E Range &Mode
IRANGE	QUANT	1.00000E-005	&Max Current (mA)
AREA	QUANT	1.00000E+000	Electrode &Area (cm^2)
ELECTRODETYPE	SELECTOR	0	Electrode Type
STRIPPING	TOGGLE	F	Used for Stripping
POLARITY	TOGGLE	F	Signal Polarity
CONDIT	TWOPARAM	F	1.50000E+001	0.00000E+000	Conditionin&g	Time(s)	E(V)
DELAY	TWOPARAM	T	1.00000E+001	0.00000E+000	Init. De&lay	Time(s)	Stab.(mV/s)
EQDELAY	QUANT	1.00000E+001	Equil. &Time (s)
IRCOMP	SELECTOR	0	IRCom&p
PFCOR	QUANT	5.00000E+001	PF Corr. (ohm)
SAMPLINGMODE	SELECTOR	1	Sampling &Mode
OCVCURVE	TABLE	39
	Pt	T	Vf	Vm	Ach	Over	Temp
	#	s	V vs. Ref.	V	V	bits	deg C
	0	0.258333	-1.52945E-001	-1.52945E-001	2.02992E-004	..........a	-327.66
	1	0.516667	-1.52949E-001	-1.53156E-001	2.07526E-004	..........a	-327.66
	2	0.775	-1.52974E-001	-1.53375E-001	2.11259E-004	..........a	-327.66
	3	1.03333	-1.53046E-001	-1.53586E-001	2.04126E-004	..........a	-327.66
	4	1.29167	-1.53178E-001	-1.53801E-001	2.08659E-004	..........a	-327.66
	5	1.55	-1.53358E-001	-1.54021E-001	2.15126E-004	..........a	-327.66
	6	1.80833	-1.53565E-001	-1.54223E-001	2.06859E-004	..........a	-327.66
	7	2.06667	-1.53780E-001	-1.54414E-001	2.12792E-004	..........a	-327.66
	8	2.325	-1.53993E-001	-1.54596E-001	2.11726E-004	..........a	-327.66
	9	2.58333	-1.54198E-001	-1.54806E-001	2.05859E-004	..........a	-327.66
	10	2.84167	-1.54396E-001	-1.54993E-001	2.12859E-004	..........a	-327.66
	11	3.1	-1.54591E-001	-1.55185E-001	2.01792E-004	..........a	-327.66
	12	3.35833	-1.54785E-001	-1.55423E-001	2.04659E-004	..........a	-327.66
	13	3.61667	-1.54984E-001	-1.55642E-001	2.08726E-004	..........a	-327.66
	14	3.875	-1.55189E-001	-1.55846E-001	2.12592E-004	..........a	-327.66
	15	4.13333	-1.55402E-001	-1.56085E-001	2.06259E-004	..........a	-327.66
	16	4.39167	-1.55619E-001	-1.56281E-001	2.12192E-004	..........a	-327.66
	17	4.65	-1.55841E-001	-1.56705E-001	2.06859E-004	..........a	-327.66
	18	4.90833	-1.56083E-001	-1.57138E-001	2.07192E-004	..........a	-327.66
	19	5.16667	-1.56371E-001	-1.57657E-001	1.98859E-004	..........a	-327.66
	20	5.425	-1.56721E-001	-1.57897E-001	2.00126E-004	..........a	-327.66
	21	5.68333	-1.57111E-001	-1.58105E-001	2.07192E-004	..........a	-327.66
	22	5.94167	-1.57488E-001	-1.58305E-001	1.98326E-004	..........a	-327.66
	23	6.2	-1.57810E-001	-1.58495E-001	2.06392E-004	..........a	-327.66
	24	6.45833	-1.58071E-001	-1.58697E-001	1.98926E-004	..........a	-327.66
	25	6.71667	-1.58289E-001	-1.58887E-001	2.06259E-004	..........a	-327.66
	26	6.975	-1.58488E-001	-1.59069E-001	2.10792E-004	..........a	-327.66
	27	7.23333	-1.58682E-001	-1.59361E-001	2.05926E-004	..........a	-327.66
	28	7.49167	-1.58881E-001	-1.59543E-001	2.14326E-004	..........a	-327.66
	29	7.75	-1.59091E-001	-1.59756E-001	2.05326E-004	..........a	-327.66
	30	8.00833	-1.59309E-001	-1.59949E-001	1.94792E-004	..........a	-327.66
	31	8.26667	-1.59523E-001	-1.60096E-001	2.08792E-004	..........a	-327.66
	32	8.525	-1.59725E-001	-1.60256E-001	2.03526E-004	..........a	-327.66
	33	8.78333	-1.59912E-001	-1.60424E-001	2.03859E-004	..........a	-327.66
	34	9.04167	-1.60085E-001	-1.60599E-001	1.95726E-004	..........a	-327.66
	35	9.3	-1.60251E-001	-1.60765E-001	1.99792E-004	..........a	-327.66
	36	9.5583	-1.60417E-001	-1.60963E-001	2.01659E-004	..........a	-327.66
	37	9.8167	-1.60588E-001	-1.61145E-001	2.00392E-004	..........a	-327.66
	38	10.075	-1.60764E-001	-1.61351E-001	1.94726E-004	..........a	-327.66
EOC	QUANT	-0.1607644	Open Circuit (V)
PSTATMODEL	IQUANT	7	Pstat Model
PSTATSECTION	LABEL	REF600P-43058	Pstat Section
PSTATSERIALNO	LABEL	43058	Pstat Serial Number
CTRLMODE	IQUANT	1	Control Mode
ELECTROMETER	IQUANT	0	RE=0 or CS=1
IESTAB	IQUANT	2	I/E Stability
CASPEED	IQUANT	4	Control Amp Speed
CONVENTION	IQUANT	1	Current Convention
ICHRANGE	IQUANT	2	Ich Range
ICHRANGEMODE	TOGGLE	F	Ich Auto Range
ICHOFFSETENABLE	TOGGLE	F	Ich Offset Enable
ICHOFFSET	QUANT	0	Ich Offset (V)
ICHFILTER	IQUANT	2	Ich Filter
VCHRANGE	IQUANT	2	Vch Range
VCHRANGEMODE	TOGGLE	F	Vch Auto Range
VCHOFFSETENABLE	TOGGLE	F	Vch Offset Enable
VCHOFFSET	QUANT	0	Vch Offset (V)
VCHFILTER	IQUANT	2	Vch Filter
ACHRANGE	IQUANT	2	Ach Range
ACHOFFSETENABLE	TOGGLE	F	Ach Offset Enable
ACHOFFSET	QUANT	0	Ach Offset (V)
ACHFILTER	IQUANT	1	Ach Filter
IERANGELOWERLIMIT	IQUANT	1	I/E Range Lower Limit
IERANGEMODE	TOGGLE	T	I/E AutoRange
IERANGE	IQUANT	4	I/E Range
POSFEEDENABLE	TOGGLE	F	Positive Feedback IR Comp
POSFEEDRESISTANCE	QUANT	0	Positive Feedback Resistance (ohm)
ACHSELECT	IQUANT	4	Ach Select
SENSECABLEID	IQUANT	7	Sense Cable ID
PWRCABLEID	IQUANT	7	Power Cable ID
DCCALDATE	LABEL	3/22/2024	DC Calibration Date
ACCALDATE	LABEL	3/22/2024	AC Calibration Date
THERMOSELECT	IQUANT	1	Thermo Select
FRAMEWORKVERSION	LABEL	7.8.4	Framework Version
INSTRUMENTVERSION	LABEL	4.42	Instrument Version
CURVE1	TABLE
	Pt	T	Vf	Im	Vu	Sig	Ach	IERange	Over	Temp
	#	s	V vs. Ref.	A	V	V	V	#	bits	deg C
	0	0.2	-1.60630E-001	4.88405E-009	0.00000E+000	-1.60750E-001	9.47792E-004	5	..........a	-327.66
	1	0.4	-1.50716E-001	2.63251E-008	0.00000E+000	-1.50750E-001	9.54792E-004	5	..........a	-327.66
	2	0.6	-1.40702E-001	4.07679E-008	0.00000E+000	-1.40750E-001	9.48292E-004	5	..........a	-327.66
	3	0.8	-1.30752E-001	5.23996E-008	0.00000E+000	-1.30750E-001	9.54792E-004	5	..........a	-327.66
	4	1	-1.20693E-001	6.21540E-008	0.00000E+000	-1.20750E-001	9.39792E-004	5	..........a	-327.66
	5	1.2	-1.10736E-001	7.09151E-008	0.00000E+000	-1.10750E-001	9.56692E-004	5	..........a	-327.66
	6	1.4	-1.00748E-001	7.90134E-008	0.00000E+000	-1.00750E-001	9.57192E-004	5	..........a	-327.66
	7	1.6	-9.07360E-002	8.61706E-008	0.00000E+000	-9.07500E-002	9.47092E-004	5	..........a	-327.66
	8	1.8	-8.07005E-002	9.29049E-008	0.00000E+000	-8.07500E-002	9.51992E-004	5	..........a	-327.66
	9	2	-7.07257E-002	9.93902E-008	0.00000E+000	-7.07500E-002	9.55492E-004	5	..........a	-327.66
	10	2.2	-6.07631E-002	1.06330E-007	0.00000E+000	-6.07500E-002	9.46092E-004	5	..........a	-327.66
	11	2.4	-5.07789E-002	1.12096E-007	0.00000E+000	-5.07500E-002	9.55492E-004	5	..........a	-327.66
	12	2.6	-4.07460E-002	1.18524E-007	0.00000E+000	-4.07500E-002	9.41592E-004	5	..........a	-327.66
	13	2.8	-3.07701E-002	1.25245E-007	0.00000E+000	-3.07500E-002	9.59592E-004	5	..........a	-327.66
	14	3	-2.07990E-002	1.31225E-007	0.00000E+000	-2.07500E-002	9.51192E-004	5	..........a	-327.66
	15	3.2	-1.07408E-002	1.35668E-007	0.00000E+000	-1.07500E-002	9.48492E-004	5	..........a	-327.66
	16	3.4	-7.56508E-004	1.40451E-007	0.00000E+000	-7.49998E-004	9.46992E-004	5	..........a	-327.66
	17	3.6	9.28284E-003	1.45621E-007	0.00000E+000	9.25000E-003	9.54692E-004	5	..........a	-327.66
	18	3.8	1.91558E-002	1.50991E-007	0.00000E+000	1.92500E-002	9.51892E-004	5	..........a	-327.66
	19	4	2.91976E-002	1.56626E-007	0.00000E+000	2.92500E-002	9.57292E-004	5	..........a	-327.66
	20	4.2	3.93189E-002	1.62674E-007	0.00000E+000	3.92500E-002	9.54792E-004	5	..........a	-327.66
	21	4.4	4.91852E-002	1.68518E-007	0.00000E+000	4.92500E-002	9.57592E-004	5	..........a	-327.66
	22	4.6	5.92010E-002	1.74559E-007	0.00000E+000	5.92500E-002	9.63692E-004	5	..........a	-327.66
	23	4.8	6.91805E-002	1.80389E-007	0.00000E+000	6.92500E-002	9.62592E-004	5	..........a	-327.66
	24	5	7.92294E-002	1.89268E-007	0.00000E+000	7.92500E-002	9.51192E-004	5	..........a	-327.66
	25	5.2	8.92445E-002	1.93885E-007	0.00000E+000	8.92500E-002	9.52392E-004	5	..........a	-327.66
	26	5.4	9.91688E-002	1.99807E-007	0.00000E+000	9.92500E-002	9.62192E-004	5	..........a	-327.66
	27	5.6	1.09183E-001	2.06781E-007	0.00000E+000	1.09250E-001	9.59092E-004	5	..........a	-327.66
	28	5.8	1.19264E-001	2.15483E-007	0.00000E+000	1.19250E-001	9.41892E-004	5	..........a	-327.66
	29	6	1.29222E-001	2.22708E-007	0.00000E+000	1.29250E-001	9.63792E-004	5	..........a	-327.66
	30	6.2	1.39210E-001	2.29631E-007	0.00000E+000	1.39250E-001	9.49192E-004	5	..........a	-327.66
	31	6.4	1.49194E-001	2.39068E-007	0.00000E+000	1.49250E-001	9.56692E-004	5	..........a	-327.66
	32	6.6	1.59183E-001	2.46625E-007	0.00000E+000	1.59250E-001	9.56492E-004	5	..........a	-327.66
	33	6.8	1.69214E-001	2.54158E-007	0.00000E+000	1.69250E-001	9.65992E-004	5	..........a	-327.66
	34	7	1.79132E-001	2.62479E-007	0.00000E+000	1.79250E-001	9.58892E-004	5	..........a	-327.66
	35	7.2	1.89175E-001	2.71683E-007	0.00000E+000	1.89250E-001	9.70092E-004	5	..........a	-327.66
	36	7.4	1.99174E-001	2.81071E-007	0.00000E+000	1.99250E-001	9.51092E-004	5	..........a	-327.66
	37	7.6	2.09167E-001	3.01689E-007	0.00000E+000	2.09250E-001	9.57792E-004	5	..........a	-327.66
	38	7.8	2.19133E-001	3.08791E-007	0.00000E+000	2.19250E-001	9.55692E-004	5	..........a	-327.66
	39	8	2.29104E-001	3.13948E-007	0.00000E+000	2.29250E-001	9.66392E-004	5	..........a	-327.66
	40	8.2	2.39114E-001	3.23787E-007	0.00000E+000	2.39250E-001	9.62292E-004	5	..........a	-327.66
	41	8.4	2.49133E-001	3.29292E-007	0.00000E+000	2.49250E-001	9.61992E-004	5	..........a	-327.66
	42	8.6	2.59067E-001	3.35569E-007	0.00000E+000	2.59250E-001	9.71392E-004	5	..........a	-327.66
	43	8.8	2.69102E-001	3.44060E-007	0.00000E+000	2.69250E-001	9.48892E-004	5	..........a	-327.66
	44	9	2.79077E-001	3.48617E-007	0.00000E+000	2.79250E-001	9.53592E-004	5	..........a	-327.66
	45	9.2	2.89143E-001	3.54326E-007	0.00000E+000	2.89250E-001	9.54392E-004	5	..........a	-327.66
	46	9.4	2.99068E-001	3.59887E-007	0.00000E+000	2.99250E-001	9.60392E-004	5	..........a	-327.66
	47	9.6	3.09082E-001	3.63580E-007	0.00000E+000	3.09250E-001	9.55992E-004	5	..........a	-327.66
	48	9.8	3.19077E-001	3.69499E-007	0.00000E+000	3.19250E-001	9.46792E-004	5	..........a	-327.66
	49	10	3.29143E-001	3.76462E-007	0.00000E+000	3.29250E-001	9.62592E-004	5	..........a	-327.66
	50	10.2	3.39066E-001	3.82700E-007	0.00000E+000	3.39250E-001	9.51192E-004	5	..........a	-327.66
	51	10.4	3.49107E-001	3.89545E-007	0.00000E+000	3.49250E-001	9.60292E-004	5	..........a	-327.66
	52	10.6	3.59040E-001	3.96611E-007	0.00000E+000	3.59250E-001	9.51992E-004	5	..........a	-327.66
	53	10.8	3.69107E-001	4.01205E-007	0.00000E+000	3.69250E-001	9.49892E-004	5	..........a	-327.66
	54	11	3.79050E-001	4.07917E-007	0.00000E+000	3.79250E-001	9.48992E-004	5	..........a	-327.66
	55	11.2	3.89038E-001	4.13145E-007	0.00000E+000	3.89250E-001	9.46892E-004	5	..........a	-327.66
	56	11.4	3.98940E-001	4.24397E-007	0.00000E+000	3.99250E-001	9.40392E-004	5	..........a	-327.66
	57	11.6	4.09126E-001	4.31561E-007	0.00000E+000	4.09250E-001	9.57492E-004	5	..........a	-327.66
	58	11.8	4.19017E-001	4.33554E-007	0.00000E+000	4.19250E-001	9.49992E-004	5	..........a	-327.66
	59	12	4.28985E-001	4.37283E-007	0.00000E+000	4.29250E-001	9.65092E-004	5	..........a	-327.66
	60	12.2	4.39013E-001	4.42130E-007	0.00000E+000	4.39250E-001	9.48792E-004	5	..........a	-327.66
	61	12.4	4.49132E-001	4.45159E-007	0.00000E+000	4.49250E-001	9.58392E-004	5	..........a	-327.66
	62	12.6	4.58994E-001	4.58175E-007	0.00000E+000	4.59250E-001	9.43892E-004	5	..........a	-327.66
	63	12.8	4.69003E-001	4.63275E-007	0.00000E+000	4.69250E-001	9.55692E-004	5	..........a	-327.66
	64	13	4.78998E-001	4.62741E-007	0.00000E+000	4.79250E-001	9.57692E-004	5	..........a	-327.66
	65	13.2	4.89084E-001	4.65421E-007	0.00000E+000	4.89250E-001	9.48492E-004	5	..........a	-327.66
	66	13.4	4.98991E-001	4.79821E-007	0.00000E+000	4.99250E-001	9.55492E-004	5	..........a	-327.66
	67	13.6	5.08990E-001	4.80173E-007	0.00000E+000	5.09250E-001	9.49392E-004	5	..........a	-327.66
	68	13.8	5.18990E-001	4.86717E-007	0.00000E+000	5.19250E-001	9.38192E-004	5	..........a	-327.66
	69	14	5.29102E-001	4.78512E-007	0.00000E+000	5.29250E-001	9.57592E-004	5	..........a	-327.66
	70	14.2	5.38989E-001	4.79793E-007	0.00000E+000	5.39250E-001	9.53492E-004	5	..........a	-327.66
	71	14.4	5.49017E-001	4.82776E-007	0.00000E+000	5.49250E-001	9.44392E-004	5	..........a	-327.66
	72	14.6	5.58997E-001	4.87310E-007	0.00000E+000	5.59250E-001	9.43192E-004	5	..........a	-327.66
	73	14.8	5.69039E-001	4.95737E-007	0.00000E+000	5.69250E-001	9.51592E-004	5	..........a	-327.66
	74	15	5.78979E-001	5.00982E-007	0.00000E+000	5.79250E-001	9.51492E-004	5	..........a	-327.66
	75	15.2	5.88927E-001	5.00965E-007	0.00000E+000	5.89250E-001	9.60092E-004	5	..........a	-327.66
	76	15.4	5.98972E-001	5.04144E-007	0.00000E+000	5.99250E-001	9.48592E-004	5	..........a	-327.66
	77	15.6	6.09080E-001	5.09583E-007	0.00000E+000	6.09250E-001	9.46292E-004	5	..........a	-327.66
	78	15.8	6.18919E-001	5.17386E-007	0.00000E+000	6.19250E-001	9.53892E-004	5	..........a	-327.66
	79	16	6.28911E-001	5.23244E-007	0.00000E+000	6.29250E-001	9.51992E-004	5	..........a	-327.66
	80	16.2	6.38902E-001	5.29291E-007	0.00000E+000	6.39250E-001	9.43592E-004	5	..........a	-327.66
	81	16.4	6.48969E-001	5.39242E-007	0.00000E+000	6.49250E-001	9.45492E-004	5	..........a	-327.66
	82	16.6	6.59126E-001	5.47585E-007	0.00000E+000	6.59250E-001	9.60092E-004	6	..........a	-327.66
	83	16.8	6.69166E-001	5.57043E-007	0.00000E+000	6.69250E-001	9.51692E-004	6	..........a	-327.66
	84	17	6.79186E-001	5.66122E-007	0.00000E+000	6.79250E-001	9.43892E-004	6	..........a	-327.66
	85	17.2	6.89197E-001	5.77562E-007	0.00000E+000	6.89250E-001	9.59592E-004	6	..........a	-327.66
	86	17.4	6.99152E-001	5.78798E-007	0.00000E+000	6.99250E-001	9.47192E-004	6	..........a	-327.66
	87	17.6	7.09126E-001	5.84937E-007	0.00000E+000	7.09250E-001	9.52892E-004	6	..........a	-327.66
	88	17.8	7.19154E-001	5.92299E-007	0.00000E+000	7.19250E-001	9.48692E-004	6	..........a	-327.66
	89	18	7.29216E-001	6.00406E-007	0.00000E+000	7.29250E-001	9.52292E-004	6	..........a	-327.66
	90	18.2	7.39159E-001	6.10047E-007	0.00000E+000	7.39250E-001	9.58292E-004	6	..........a	-327.66
	91	18.4	7.49195E-001	6.20315E-007	0.00000E+000	7.49250E-001	9.55692E-004	6	..........a	-327.66
	92	18.6	7.59191E-001	6.31179E-007	0.00000E+000	7.59250E-001	9.47192E-004	6	..........a	-327.66
	93	18.8	7.69178E-001	6.42826E-007	0.00000E+000	7.69250E-001	9.55492E-004	6	..........a	-327.66
	94	19	7.79172E-001	6.56631E-007	0.00000E+000	7.79250E-001	9.54992E-004	6	..........a	-327.66
	95	19.2	7.89194E-001	6.72096E-007	0.00000E+000	7.89250E-001	9.59092E-004	6	..........a	-327.66
	96	19.4	7.99153E-001	6.92354E-007	0.00000E+000	7.99250E-001	9.48292E-004	6	..........a	-327.66
	97	19.6	7.89190E-001	6.09436E-007	0.00000E+000	7.89250E-001	9.46092E-004	6	..........a	-327.66
	98	19.8	7.79184E-001	5.54674E-007	0.00000E+000	7.79250E-001	9.50092E-004	6	..........a	-327.66
	99	20	7.69235E-001	5.07519E-007	0.00000E+000	7.69250E-001	9.54492E-004	6	..........a	-327.66
	100	20.2	7.59169E-001	4.68166E-007	0.00000E+000	7.59250E-001	9.44792E-004	6	..........a	-327.66
	101	20.4	7.48967E-001	4.31432E-007	0.00000E+000	7.49250E-001	9.52492E-004	5	..........a	-327.66
	102	20.6	7.38999E-001	4.02242E-007	0.00000E+000	7.39250E-001	9.52492E-004	5	..........a	-327.66
	103	20.8	7.29047E-001	3.76304E-007	0.00000E+000	7.29250E-001	9.40092E-004	5	..........a	-327.66
	104	21	7.19028E-001	3.53857E-007	0.00000E+000	7.19250E-001	9.34992E-004	5	..........a	-327.66
	105	21.2	7.08997E-001	3.34127E-007	0.00000E+000	7.09250E-001	9.54892E-004	5	..........a	-327.66
	106	21.4	6.99023E-001	3.15702E-007	0.00000E+000	6.99250E-001	9.45392E-004	5	..........a	-327.66
	107	21.6	6.89125E-001	2.97650E-007	0.00000E+000	6.89250E-001	9.49992E-004	5	..........a	-327.66
	108	21.8	6.79034E-001	2.79837E-007	0.00000E+000	6.79250E-001	9.48392E-004	5	..........a	-327.66
	109	22	6.69044E-001	2.61859E-007	0.00000E+000	6.69250E-001	9.52792E-004	5	..........a	-327.66
	110	22.2	6.59067E-001	2.44222E-007	0.00000E+000	6.59250E-001	9.57692E-004	5	..........a	-327.66
	111	22.4	6.49140E-001	2.27627E-007	0.00000E+000	6.49250E-001	9.55692E-004	5	..........a	-327.66
	112	22.6	6.39084E-001	2.12555E-007	0.00000E+000	6.39250E-001	9.49892E-004	5	..........a	-327.66
	113	22.8	6.29052E-001	2.00399E-007	0.00000E+000	6.29250E-001	9.52792E-004	5	..........a	-327.66
	114	23	6.19089E-001	1.84189E-007	0.00000E+000	6.19250E-001	9.47292E-004	5	..........a	-327.66
	115	23.2	6.09170E-001	1.71552E-007	0.00000E+000	6.09250E-001	9.63692E-004	5	..........a	-327.66
	116	23.4	5.99155E-001	1.58104E-007	0.00000E+000	5.99250E-001	9.56092E-004	5	..........a	-327.66
	117	23.6	5.89123E-001	1.44995E-007	0.00000E+000	5.89250E-001	9.54892E-004	5	..........a	-327.66
	118	23.8	5.79130E-001	1.33284E-007	0.00000E+000	5.79250E-001	9.59892E-004	5	..........a	-327.66
	119	24	5.69201E-001	1.22346E-007	0.00000E+000	5.69250E-001	9.65692E-004	5	..........a	-327.66
	120	24.2	5.59192E-001	1.12950E-007	0.00000E+000	5.59250E-001	9.46292E-004	5	..........a	-327.66
	121	24.4	5.49196E-001	1.00693E-007	0.00000E+000	5.49250E-001	9.44592E-004	5	..........a	-327.66
	122	24.6	5.39150E-001	8.96478E-008	0.00000E+000	5.39250E-001	9.53692E-004	5	..........a	-327.66
	123	24.8	5.29201E-001	7.95500E-008	0.00000E+000	5.29250E-001	9.55992E-004	5	..........a	-327.66
	124	25	5.19226E-001	7.02761E-008	0.00000E+000	5.19250E-001	9.43792E-004	5	..........a	-327.66
	125	25.2	5.09181E-001	6.07737E-008	0.00000E+000	5.09250E-001	9.62592E-004	5	..........a	-327.66
	126	25.4	4.99201E-001	5.11546E-008	0.00000E+000	4.99250E-001	9.56492E-004	5	..........a	-327.66
	127	25.6	4.89187E-001	4.21773E-008	0.00000E+000	4.89250E-001	9.50592E-004	5	..........a	-327.66
	128	25.8	4.79260E-001	3.33646E-008	0.00000E+000	4.79250E-001	9.49092E-004	5	..........a	-327.66
	129	26	4.69223E-001	2.47442E-008	0.00000E+000	4.69250E-001	9.59492E-004	5	..........a	-327.66
	130	26.2	4.59167E-001	1.63800E-008	0.00000E+000	4.59250E-001	9.69292E-004	5	..........a	-327.66
	131	26.4	4.49230E-001	8.46767E-009	0.00000E+000	4.49250E-001	9.51292E-004	5	..........a	-327.66
	132	26.6	4.39254E-001	6.67241E-010	0.00000E+000	4.39250E-001	9.42692E-004	5	..........a	-327.66
	133	26.8	4.29205E-001	-7.17171E-009	0.00000E+000	4.29250E-001	9.59992E-004	5	..........a	-327.66
	134	27	4.19263E-001	-1.47016E-008	0.00000E+000	4.19250E-001	9.56892E-004	5	..........a	-327.66
	135	27.2	4.09271E-001	-2.21562E-008	0.00000E+000	4.09250E-001	9.55892E-004	5	..........a	-327.66
	136	27.4	3.99329E-001	-2.92581E-008	0.00000E+000	3.99250E-001	9.41992E-004	5	..........a	-327.66
	137	27.6	3.89277E-001	-3.61514E-008	0.00000E+000	3.89250E-001	9.55392E-004	5	..........a	-327.66
	138	27.8	3.79278E-001	-4.26912E-008	0.00000E+000	3.79250E-001	9.51592E-004	5	..........a	-327.66
	139	28	3.69331E-001	-4.91018E-008	0.00000E+000	3.69250E-001	9.46592E-004	5	..........a	-327.66
	140	28.2	3.59341E-001	-5.55449E-008	0.00000E+000	3.59250E-001	9.41792E-004	5	..........a	-327.66
	141	28.4	3.49326E-001	-6.18911E-008	0.00000E+000	3.49250E-001	9.42592E-004	5	..........a	-327.66
	142	28.6	3.39290E-001	-6.82232E-008	0.00000E+000	3.39250E-001	9.63492E-004	5	..........a	-327.66
	143	28.8	3.29293E-001	-7.47829E-008	0.00000E+000	3.29250E-001	9.59292E-004	5	..........a	-327.66
	144	29	3.19349E-001	-8.09007E-008	0.00000E+000	3.19250E-001	9.50592E-004	5	..........a	-327.66
	145	29.2	3.09323E-001	-8.70869E-008	0.00000E+000	3.09250E-001	9.42792E-004	5	..........a	-327.66
	146	29.4	2.99307E-001	-9.32343E-008	0.00000E+000	2.99250E-001	9.57492E-004	5	..........a	-327.66
	147	29.6	2.89339E-001	-9.94021E-008	0.00000E+000	2.89250E-001	9.48292E-004	5	..........a	-327.66
	148	29.8	2.79388E-001	-1.05478E-007	0.00000E+000	2.79250E-001	9.40392E-004	5	..........a	-327.66
	149	30	2.69333E-001	-1.11493E-007	0.00000E+000	2.69250E-001	9.48492E-004	5	..........a	-327.66
	150	30.2	2.59286E-001	-1.17463E-007	0.00000E+000	2.59250E-001	9.49892E-004	5	..........a	-327.66
	151	30.4	2.49313E-001	-1.23645E-007	0.00000E+000	2.49250E-001	9.55492E-004	5	..........a	-327.66
	152	30.6	2.39402E-001	-1.29490E-007	0.00000E+000	2.39250E-001	9.44692E-004	5	..........a	-327.66
	153	30.8	2.29325E-001	-1.35664E-007	0.00000E+000	2.29250E-001	9.57792E-004	5	..........a	-327.66
	154	31	2.19390E-001	-1.41856E-007	0.00000E+000	2.19250E-001	9.47792E-004	5	..........a	-327.66
	155	31.2	2.09338E-001	-1.48233E-007	0.00000E+000	2.09250E-001	9.56392E-004	5	..........a	-327.66
	156	31.4	1.99496E-001	-1.54584E-007	0.00000E+000	1.99250E-001	9.43292E-004	5	..........a	-327.66
	157	31.6	1.89387E-001	-1.61191E-007	0.00000E+000	1.89250E-001	9.43692E-004	5	..........a	-327.66
	158	31.8	1.79369E-001	-1.67827E-007	0.00000E+000	1.79250E-001	9.60892E-004	5	..........a	-327.66
	159	32	1.69398E-001	-1.74286E-007	0.00000E+000	1.69250E-001	9.55092E-004	5	..........a	-327.66
	160	32.2	1.59465E-001	-1.80657E-007	0.00000E+000	1.59250E-001	9.44892E-004	5	..........a	-327.66
	161	32.4	1.49419E-001	-1.86864E-007	0.00000E+000	1.49250E-001	9.51992E-004	5	..........a	-327.66
	162	32.6	1.39420E-001	-1.92807E-007	0.00000E+000	1.39250E-001	9.44192E-004	5	..........a	-327.66
	163	32.8	1.29416E-001	-1.98278E-007	0.00000E+000	1.29250E-001	9.44492E-004	5	..........a	-327.66
	164	33	1.19521E-001	-2.03352E-007	0.00000E+000	1.19250E-001	9.60192E-004	5	..........a	-327.66
	165	33.2	1.09414E-001	-2.07852E-007	0.00000E+000	1.09250E-001	9.45592E-004	5	..........a	-327.66
	166	33.4	9.94038E-002	-2.11717E-007	0.00000E+000	9.92500E-002	9.51592E-004	5	..........a	-327.66
	167	33.6	8.94015E-002	-2.15010E-007	0.00000E+000	8.92500E-002	9.52992E-004	5	..........a	-327.66
	168	33.8	7.95073E-002	-2.17889E-007	0.00000E+000	7.92500E-002	9.61092E-004	5	..........a	-327.66
	169	34	6.94200E-002	-2.20576E-007	0.00000E+000	6.92500E-002	9.58992E-004	5	..........a	-327.66
	170	34.2	5.94026E-002	-2.23163E-007	0.00000E+000	5.92500E-002	9.54592E-004	5	..........a	-327.66
	171	34.4	4.94107E-002	-2.25856E-007	0.00000E+000	4.92500E-002	9.51092E-004	5	..........a	-327.66
	172	34.6	3.95466E-002	-2.28405E-007	0.00000E+000	3.92500E-002	9.55592E-004	5	..........a	-327.66
	173	34.8	2.94287E-002	-2.30953E-007	0.00000E+000	2.92500E-002	9.55092E-004	5	..........a	-327.66
	174	35	1.93986E-002	-2.33444E-007	0.00000E+000	1.92500E-002	9.52592E-004	5	..........a	-327.66
	175	35.2	9.41919E-003	-2.35926E-007	0.00000E+000	9.25000E-003	9.54292E-004	5	..........a	-327.66
	176	35.4	-5.10458E-004	-2.38367E-007	0.00000E+000	-7.49998E-004	9.65892E-004	5	..........a	-327.66
	177	35.6	-1.06246E-002	-2.40861E-007	0.00000E+000	-1.07500E-002	9.44092E-004	5	..........a	-327.66
	178	35.8	-2.05947E-002	-2.43284E-007	0.00000E+000	-2.07500E-002	9.54092E-004	5	..........a	-327.66
	179	36	-3.05846E-002	-2.45689E-007	0.00000E+000	-3.07500E-002	9.58892E-004	5	..........a	-327.66
	180	36.2	-4.05635E-002	-2.48143E-007	0.00000E+000	-4.07500E-002	9.44792E-004	5	..........a	-327.66
	181	36.4	-5.05960E-002	-2.50614E-007	0.00000E+000	-5.07500E-002	9.49192E-004	5	..........a	-327.66
	182	36.6	-6.05200E-002	-2.52924E-007	0.00000E+000	-6.07500E-002	9.50692E-004	5	..........a	-327.66
	183	36.8	-7.05793E-002	-2.55122E-007	0.00000E+000	-7.07500E-002	9.43392E-004	5	..........a	-327.66
	184	37	-8.04720E-002	-2.57423E-007	0.00000E+000	-8.07500E-002	9.53392E-004	5	..........a	-327.66
	185	37.2	-9.05852E-002	-2.59751E-007	0.00000E+000	-9.07500E-002	9.51492E-004	5	..........a	-327.66
	186	37.4	-1.00576E-001	-2.61943E-007	0.00000E+000	-1.00750E-001	9.60392E-004	5	..........a	-327.66
	187	37.6	-1.10574E-001	-2.64921E-007	0.00000E+000	-1.10750E-001	9.45992E-004	5	..........a	-327.66
	188	37.8	-1.20540E-001	-2.67469E-007	0.00000E+000	-1.20750E-001	9.51592E-004	5	..........a	-327.66
	189	38	-1.30576E-001	-2.70183E-007	0.00000E+000	-1.30750E-001	9.51692E-004	5	..........a	-327.66
	190	38.2	-1.40538E-001	-2.72942E-007	0.00000E+000	-1.40750E-001	9.53392E-004	5	..........a	-327.66
	191	38.4	-1.50583E-001	-2.75548E-007	0.00000E+000	-1.50750E-001	9.49392E-004	5	..........a	-327.66
	192	38.6	-1.60468E-001	-2.78347E-007	0.00000E+000	-1.60750E-001	9.56392E-004	5	..........a	-327.66
	193	38.8	-1.70568E-001	-2.80996E-007	0.00000E+000	-1.70750E-001	9.39392E-004	5	..........a	-327.66
	194	39	-1.80574E-001	-2.83724E-007	0.00000E+000	-1.80750E-001	9.50292E-004	5	..........a	-327.66
	195	39.2	-1.90582E-001	-2.86417E-007	0.00000E+000	-1.90750E-001	9.56092E-004	5	..........a	-327.66
	196	39.4	-2.00495E-001	-2.88874E-007	0.00000E+000	-2.00750E-001	9.50092E-004	5	..........a	-327.66
	197	39.6	-2.10535E-001	-2.91606E-007	0.00000E+000	-2.10750E-001	9.57092E-004	5	..........a	-327.66
	198	39.8	-2.20511E-001	-2.93937E-007	0.00000E+000	-2.20750E-001	9.51192E-004	5	..........a	-327.66
	199	40	-2.30539E-001	-2.96255E-007	0.00000E+000	-2.30750E-001	9.54592E-004	5	..........a	-327.66
	200	40.2	-2.40417E-001	-2.98766E-007	0.00000E+000	-2.40750E-001	9.68392E-004	5	..........a	-327.66
	201	40.4	-2.50532E-001	-3.00718E-007	0.00000E+000	-2.50750E-001	9.43192E-004	5	..........a	-327.66
	202	40.6	-2.60502E-001	-3.02644E-007	0.00000E+000	-2.60750E-001	9.69092E-004	5	..........a	-327.66
	203	40.8	-2.70527E-001	-3.04457E-007	0.00000E+000	-2.70750E-001	9.47492E-004	5	..........a	-327.66
	204	41	-2.80444E-001	-3.06329E-007	0.00000E+000	-2.80750E-001	9.54792E-004	5	..........a	-327.66
	205	41.2	-2.90528E-001	-3.08069E-007	0.00000E+000	-2.90750E-001	9.45392E-004	5	..........a	-327.66
	206	41.4	-3.00530E-001	-3.09814E-007	0.00000E+000	-3.00750E-001	9.54092E-004	5	..........a	-327.66
	207	41.6	-3.10527E-001	-3.11447E-007	0.00000E+000	-3.10750E-001	9.66592E-004	5	..........a	-327.66
	208	41.8	-3.20489E-001	-3.13404E-007	0.00000E+000	-3.20750E-001	9.52892E-004	5	..........a	-327.66
	209	42	-3.30519E-001	-3.15004E-007	0.00000E+000	-3.30750E-001	9.48992E-004	5	..........a	-327.66
	210	42.2	-3.40528E-001	-3.16768E-007	0.00000E+000	-3.40750E-001	9.60292E-004	5	..........a	-327.66
	211	42.4	-3.50519E-001	-3.18336E-007	0.00000E+000	-3.50750E-001	9.68692E-004	5	..........a	-327.66
	212	42.6	-3.60437E-001	-3.19885E-007	0.00000E+000	-3.60750E-001	9.66492E-004	5	..........a	-327.66
	213	42.8	-3.70499E-001	-3.21633E-007	0.00000E+000	-3.70750E-001	9.46392E-004	5	..........a	-327.66
	214	43	-3.80544E-001	-3.23160E-007	0.00000E+000	-3.80750E-001	9.65492E-004	5	..........a	-327.66
	215	43.2	-3.90540E-001	-3.24570E-007	0.00000E+000	-3.90750E-001	9.52292E-004	5	..........a	-327.66
	216	43.4	-4.00457E-001	-3.25826E-007	0.00000E+000	-4.00750E-001	9.61692E-004	5	..........a	-327.66
	217	43.6	-4.10495E-001	-3.27220E-007	0.00000E+000	-4.10750E-001	9.54092E-004	5	..........a	-327.66
	218	43.8	-4.20448E-001	-3.28175E-007	0.00000E+000	-4.20750E-001	9.48192E-004	5	..........a	-327.66
	219	44	-4.30486E-001	-3.29271E-007	0.00000E+000	-4.30750E-001	9.59292E-004	5	..........a	-327.66
	220	44.2	-4.40409E-001	-3.30325E-007	0.00000E+000	-4.40750E-001	9.57292E-004	5	..........a	-327.66
	221	44.4	-4.50477E-001	-3.31371E-007	0.00000E+000	-4.50750E-001	9.55992E-004	5	..........a	-327.66
	222	44.6	-4.60467E-001	-3.32397E-007	0.00000E+000	-4.60750E-001	9.58792E-004	5	..........a	-327.66
	223	44.8	-4.70458E-001	-3.33879E-007	0.00000E+000	-4.70750E-001	9.46492E-004	5	..........a	-327.66
	224	45	-4.80416E-001	-3.34836E-007	0.00000E+000	-4.80750E-001	9.54492E-004	5	..........a	-327.66
	225	45.2	-4.90478E-001	-3.35929E-007	0.00000E+000	-4.90750E-001	9.45092E-004	5	..........a	-327.66
	226	45.4	-5.00447E-001	-3.37166E-007	0.00000E+000	-5.00750E-001	9.52492E-004	5	..........a	-327.66
	227	45.6	-5.10476E-001	-3.38326E-007	0.00000E+000	-5.10750E-001	9.58192E-004	5	..........a	-327.66
	228	45.8	-5.20405E-001	-3.39832E-007	0.00000E+000	-5.20750E-001	9.63092E-004	5	..........a	-327.66
	229	46	-5.30481E-001	-3.41297E-007	0.00000E+000	-5.30750E-001	9.52192E-004	5	..........a	-327.66
	230	46.2	-5.40478E-001	-3.43004E-007	0.00000E+000	-5.40750E-001	9.67692E-004	5	..........a	-327.66
	231	46.4	-5.50503E-001	-3.44631E-007	0.00000E+000	-5.50750E-001	9.56792E-004	5	..........a	-327.66
	232	46.6	-5.60422E-001	-3.46497E-007	0.00000E+000	-5.60750E-001	9.58192E-004	5	..........a	-327.66
	233	46.8	-5.70464E-001	-3.46807E-007	0.00000E+000	-5.70750E-001	9.49692E-004	5	..........a	-327.66
	234	47	-5.80454E-001	-3.49328E-007	0.00000E+000	-5.80750E-001	9.58992E-004	5	..........a	-327.66
	235	47.2	-5.90489E-001	-3.51238E-007	0.00000E+000	-5.90750E-001	9.55692E-004	5	..........a	-327.66
	236	47.4	-6.00414E-001	-3.53421E-007	0.00000E+000	-6.00750E-001	9.62992E-004	5	..........a	-327.66
CURVE2	TABLE
	Pt	T	Vf	Im	Vu	Sig	Ach	IERange	Over	Temp
	#	s	V vs. Ref.	A	V	V	V	#	bits	deg C
	237	47.6	-5.89767E-001	-2.90549E-007	0.00000E+000	-5.90000E-001	9.53492E-004	5	..........a	-327.66
	238	47.8	-5.79714E-001	-2.53671E-007	0.00000E+000	-5.80000E-001	9.54092E-004	5	..........a	-327.66
	239	48	-5.69776E-001	-2.24238E-007	0.00000E+000	-5.70000E-001	9.58792E-004	5	..........a	-327.66
	240	48.2	-5.59807E-001	-1.99620E-007	0.00000E+000	-5.60000E-001	9.62492E-004	5	..........a	-327.66
	241	48.4	-5.49810E-001	-1.78968E-007	0.00000E+000	-5.50000E-001	9.42192E-004	5	..........a	-327.66
	242	48.6	-5.39735E-001	-1.61230E-007	0.00000E+000	-5.40000E-001	9.42792E-004	5	..........a	-327.66
	243	48.8	-5.29821E-001	-1.44877E-007	0.00000E+000	-5.30000E-001	9.36792E-004	5	..........a	-327.66
	244	49	-5.19824E-001	-1.30054E-007	0.00000E+000	-5.20000E-001	9.62392E-004	5	..........a	-327.66
	245	49.2	-5.09820E-001	-1.16514E-007	0.00000E+000	-5.10000E-001	9.47092E-004	5	..........a	-327.66
	246	49.4	-4.99816E-001	-1.04016E-007	0.00000E+000	-5.00000E-001	9.43992E-004	5	..........a	-327.66
	247	49.6	-4.89830E-001	-9.23552E-008	0.00000E+000	-4.90000E-001	9.43592E-004	5	..........a	-327.66
	248	49.8	-4.79850E-001	-8.15585E-008	0.00000E+000	-4.80000E-001	9.51392E-004	5	..........a	-327.66
	249	50	-4.69836E-001	-7.14317E-008	0.00000E+000	-4.70000E-001	9.43492E-004	5	..........a	-327.66
	250	50.2	-4.59810E-001	-6.19268E-008	0.00000E+000	-4.60000E-001	9.41892E-004	5	..........a	-327.66
	251	50.4	-4.49843E-001	-5.20188E-008	0.00000E+000	-4.50000E-001	9.45892E-004	5	..........a	-327.66
	252	50.6	-4.39859E-001	-4.35185E-008	0.00000E+000	-4.40000E-001	9.43792E-004	5	..........a	-327.66
	253	50.8	-4.29862E-001	-3.55591E-008	0.00000E+000	-4.30000E-001	9.55492E-004	5	..........a	-327.66
	254	51	-4.19821E-001	-2.79640E-008	0.00000E+000	-4.20000E-001	9.56192E-004	5	..........a	-327.66
	255	51.2	-4.09878E-001	-2.07872E-008	0.00000E+000	-4.10000E-001	9.55692E-004	5	..........a	-327.66
	256	51.4	-3.99873E-001	-1.38243E-008	0.00000E+000	-4.00000E-001	9.56492E-004	5	..........a	-327.66
	257	51.6	-3.89938E-001	-7.24834E-009	0.00000E+000	-3.90000E-001	9.60192E-004	5	..........a	-327.66
	258	51.8	-3.79889E-001	-8.87577E-010	0.00000E+000	-3.80000E-001	9.43092E-004	5	..........a	-327.66
	259	52	-3.69904E-001	5.21401E-009	0.00000E+000	-3.70000E-001	9.56592E-004	5	..........a	-327.66
	260	52.2	-3.59960E-001	1.09924E-008	0.00000E+000	-3.60000E-001	9.56692E-004	5	..........a	-327.66
	261	52.4	-3.49916E-001	1.66134E-008	0.00000E+000	-3.50000E-001	9.55692E-004	5	..........a	-327.66
	262	52.6	-3.39861E-001	2.20403E-008	0.00000E+000	-3.40000E-001	9.54192E-004	5	..........a	-327.66
	263	52.8	-3.29946E-001	2.73099E-008	0.00000E+000	-3.30000E-001	9.56392E-004	5	..........a	-327.66
	264	53	-3.19917E-001	3.23601E-008	0.00000E+000	-3.20000E-001	9.49392E-004	5	..........a	-327.66
	265	53.2	-3.09951E-001	3.75004E-008	0.00000E+000	-3.10000E-001	9.62092E-004	5	..........a	-327.66
	266	53.4	-2.99906E-001	4.28049E-008	0.00000E+000	-3.00000E-001	9.42892E-004	5	..........a	-327.66
	267	53.6	-2.89949E-001	4.79195E-008	0.00000E+000	-2.90000E-001	9.58492E-004	5	..........a	-327.66
	268	53.8	-2.79965E-001	5.25697E-008	0.00000E+000	-2.80000E-001	9.48092E-004	5	..........a	-327.66
	269	54	-2.69912E-001	5.73476E-008	0.00000E+000	-2.70000E-001	9.53092E-004	5	..........a	-327.66
	270	54.2	-2.59895E-001	6.15861E-008	0.00000E+000	-2.60000E-001	9.40892E-004	5	..........a	-327.66
	271	54.4	-2.49930E-001	6.58571E-008	0.00000E+000	-2.50000E-001	9.52992E-004	5	..........a	-327.66
	272	54.6	-2.39978E-001	7.09344E-008	0.00000E+000	-2.40000E-001	9.41492E-004	5	..........a	-327.66
	273	54.8	-2.29978E-001	7.61967E-008	0.00000E+000	-2.30000E-001	9.54992E-004	5	..........a	-327.66
	274	55	-2.19943E-001	8.20780E-008	0.00000E+000	-2.20000E-001	9.49492E-004	5	..........a	-327.66
	275	55.2	-2.09957E-001	8.72161E-008	0.00000E+000	-2.10000E-001	9.62392E-004	5	..........a	-327.66
	276	55.4	-2.00023E-001	9.23152E-008	0.00000E+000	-2.00000E-001	9.63692E-004	5	..........a	-327.66
	277	55.6	-1.90090E-001	9.75004E-008	0.00000E+000	-1.90000E-001	9.56692E-004	5	..........a	-327.66
	278	55.8	-1.80013E-001	1.02609E-007	0.00000E+000	-1.80000E-001	9.44792E-004	5	..........a	-327.66
	279	56	-1.69957E-001	1.07755E-007	0.00000E+000	-1.70000E-001	9.55292E-004	5	..........a	-327.66
	280	56.2	-1.60046E-001	1.13016E-007	0.00000E+000	-1.60000E-001	9.69292E-004	5	..........a	-327.66
	281	56.4	-1.50014E-001	1.18136E-007	0.00000E+000	-1.50000E-001	9.50492E-004	5	..........a	-327.66
	282	56.6	-1.40000E-001	1.23152E-007	0.00000E+000	-1.40000E-001	9.49792E-004	5	..........a	-327.66
	283	56.8	-1.29991E-001	1.28238E-007	0.00000E+000	-1.30000E-001	9.62192E-004	5	..........a	-327.66
	284	57	-1.20033E-001	1.33390E-007	0.00000E+000	-1.20000E-001	9.57792E-004	5	..........a	-327.66
	285	57.2	-1.10027E-001	1.38699E-007	0.00000E+000	-1.10000E-001	9.49892E-004	5	..........a	-327.66
	286	57.4	-1.00016E-001	1.43721E-007	0.00000E+000	-1.00000E-001	9.50992E-004	5	..........a	-327.66
	287	57.6	-9.00008E-002	1.48585E-007	0.00000E+000	-9.00000E-002	9.49992E-004	5	..........a	-327.66
	288	57.8	-8.00605E-002	1.53526E-007	0.00000E+000	-8.00000E-002	9.54492E-004	5	..........a	-327.66
	289	58	-7.00088E-002	1.58415E-007	0.00000E+000	-7.00000E-002	9.59292E-004	5	..........a	-327.66
	290	58.2	-6.00361E-002	1.63788E-007	0.00000E+000	-6.00000E-002	9.43492E-004	5	..........a	-327.66
	291	58.4	-4.99975E-002	1.68567E-007	0.00000E+000	-5.00000E-002	9.43492E-004	5	..........a	-327.66
	292	58.6	-4.00518E-002	1.73823E-007	0.00000E+000	-4.00000E-002	9.49692E-004	5	..........a	-327.66
	293	58.8	-3.00462E-002	1.78920E-007	0.00000E+000	-3.00000E-002	9.55792E-004	5	..........a	-327.66
	294	59	-2.00619E-002	1.83909E-007	0.00000E+000	-2.00000E-002	9.50392E-004	5	..........a	-327.66
	295	59.2	-9.96091E-003	1.89587E-007	0.00000E+000	-1.00000E-002	9.64092E-004	5	..........a	-327.66
	296	59.4	-8.07583E-005	1.94419E-007	0.00000E+000	7.45058E-009	9.65292E-004	5	..........a	-327.66
	297	59.6	9.98449E-003	1.99529E-007	0.00000E+000	1.00000E-002	9.60692E-004	5	..........a	-327.66
	298	59.8	1.99944E-002	2.04749E-007	0.00000E+000	2.00000E-002	9.48992E-004	5	..........a	-327.66
	299	60	2.99702E-002	2.10064E-007	0.00000E+000	3.00000E-002	9.76192E-004	5	..........a	-327.66
	300	60.2	3.99505E-002	2.15243E-007	0.00000E+000	4.00000E-002	9.49492E-004	5	..........a	-327.66
	301	60.4	4.99424E-002	2.20429E-007	0.00000E+000	5.00000E-002	9.62692E-004	5	..........a	-327.66
	302	60.6	5.99429E-002	2.26037E-007	0.00000E+000	6.00000E-002	9.52592E-004	5	..........a	-327.66
	303	60.8	6.99620E-002	2.31703E-007	0.00000E+000	7.00000E-002	9.65992E-004	5	..........a	-327.66
	304	61	7.99161E-002	2.37701E-007	0.00000E+000	8.00000E-002	9.53292E-004	5	..........a	-327.66
	305	61.2	8.99773E-002	2.43561E-007	0.00000E+000	9.00000E-002	9.59292E-004	5	..........a	-327.66
	306	61.4	9.99012E-002	2.49402E-007	0.00000E+000	1.00000E-001	9.48592E-004	5	..........a	-327.66
	307	61.6	1.09981E-001	2.55690E-007	0.00000E+000	1.10000E-001	9.60992E-004	5	..........a	-327.66
	308	61.8	1.19907E-001	2.62015E-007	0.00000E+000	1.20000E-001	9.49892E-004	5	..........a	-327.66
	309	62	1.29898E-001	2.68593E-007	0.00000E+000	1.30000E-001	9.67592E-004	5	..........a	-327.66
	310	62.2	1.39917E-001	2.75170E-007	0.00000E+000	1.40000E-001	9.53892E-004	5	..........a	-327.66
	311	62.4	1.49977E-001	2.82133E-007	0.00000E+000	1.50000E-001	9.71392E-004	5	..........a	-327.66
	312	62.6	1.59890E-001	2.88935E-007	0.00000E+000	1.60000E-001	9.62092E-004	5	..........a	-327.66
	313	62.8	1.69925E-001	2.96019E-007	0.00000E+000	1.70000E-001	9.53792E-004	5	..........a	-327.66
	314	63	1.79876E-001	3.02831E-007	0.00000E+000	1.80000E-001	9.51192E-004	5	..........a	-327.66
	315	63.2	1.89945E-001	3.09811E-007	0.00000E+000	1.90000E-001	9.57992E-004	5	..........a	-327.66
	316	63.4	1.99880E-001	3.16363E-007	0.00000E+000	2.00000E-001	9.71992E-004	5	..........a	-327.66
	317	63.6	2.09867E-001	3.22412E-007	0.00000E+000	2.10000E-001	9.68092E-004	5	..........a	-327.66
	318	63.8	2.19695E-001	3.27793E-007	0.00000E+000	2.20000E-001	9.42692E-004	5	..........a	-327.66
	319	64	2.29921E-001	3.36109E-007	0.00000E+000	2.30000E-001	9.61192E-004	5	..........a	-327.66
	320	64.2	2.39845E-001	3.51511E-007	0.00000E+000	2.40000E-001	9.51692E-004	5	..........a	-327.66
	321	64.4	2.49826E-001	3.50894E-007	0.00000E+000	2.50000E-001	9.68192E-004	5	..........a	-327.66
	322	64.6	2.59829E-001	3.51754E-007	0.00000E+000	2.60000E-001	9.56792E-004	5	..........a	-327.66
	323	64.8	2.69933E-001	3.54243E-007	0.00000E+000	2.70000E-001	9.54792E-004	5	..........a	-327.66
	324	65	2.79820E-001	3.58692E-007	0.00000E+000	2.80000E-001	9.61292E-004	5	..........a	-327.66
	325	65.2	2.89838E-001	3.64270E-007	0.00000E+000	2.90000E-001	9.51592E-004	5	..........a	-327.66
	326	65.4	2.99839E-001	3.68179E-007	0.00000E+000	3.00000E-001	9.50592E-004	5	..........a	-327.66
	327	65.6	3.09918E-001	3.72695E-007	0.00000E+000	3.10000E-001	9.55092E-004	5	..........a	-327.66
	328	65.8	3.19831E-001	3.77407E-007	0.00000E+000	3.20000E-001	9.49192E-004	5	..........a	-327.66
	329	66	3.29830E-001	3.82848E-007	0.00000E+000	3.30000E-001	9.63792E-004	5	..........a	-327.66
	330	66.2	3.39839E-001	3.89229E-007	0.00000E+000	3.40000E-001	9.48692E-004	5	..........a	-327.66
	331	66.4	3.49932E-001	3.94383E-007	0.00000E+000	3.50000E-001	9.56392E-004	5	..........a	-327.66
	332	66.6	3.59817E-001	3.99771E-007	0.00000E+000	3.60000E-001	9.53392E-004	5	..........a	-327.66
	333	66.8	3.69845E-001	4.05543E-007	0.00000E+000	3.70000E-001	9.62192E-004	5	..........a	-327.66
	334	67	3.79816E-001	4.12876E-007	0.00000E+000	3.80000E-001	9.54692E-004	5	..........a	-327.66
	335	67.2	3.89884E-001	4.17666E-007	0.00000E+000	3.90000E-001	9.40092E-004	5	..........a	-327.66
	336	67.4	3.99810E-001	4.24177E-007	0.00000E+000	4.00000E-001	9.60892E-004	5	..........a	-327.66
	337	67.6	4.09793E-001	4.27249E-007	0.00000E+000	4.10000E-001	9.62792E-004	5	..........a	-327.66
	338	67.8	4.19789E-001	4.30660E-007	0.00000E+000	4.20000E-001	9.53892E-004	5	..........a	-327.66
	339	68	4.29881E-001	4.34653E-007	0.00000E+000	4.30000E-001	9.60192E-004	5	..........a	-327.66
	340	68.2	4.39762E-001	4.37536E-007	0.00000E+000	4.40000E-001	9.56492E-004	5	..........a	-327.66
	341	68.4	4.49802E-001	4.39594E-007	0.00000E+000	4.50000E-001	9.51292E-004	5	..........a	-327.66
	342	68.6	4.59770E-001	4.42202E-007	0.00000E+000	4.60000E-001	9.62192E-004	5	..........a	-327.66
	343	68.8	4.69817E-001	4.44861E-007	0.00000E+000	4.70000E-001	9.50292E-004	5	..........a	-327.66
	344	69	4.79735E-001	4.48831E-007	0.00000E+000	4.80000E-001	9.55692E-004	5	..........a	-327.66
	345	69.2	4.89739E-001	4.50904E-007	0.00000E+000	4.90000E-001	9.53292E-004	5	..........a	-327.66
	346	69.4	4.99768E-001	4.53510E-007	0.00000E+000	5.00000E-001	9.51892E-004	5	..........a	-327.66
	347	69.6	5.09845E-001	4.55871E-007	0.00000E+000	5.10000E-001	9.67092E-004	5	..........a	-327.66
	348	69.8	5.19766E-001	4.63516E-007	0.00000E+000	5.20000E-001	9.49492E-004	5	..........a	-327.66
	349	70	5.29766E-001	4.63987E-007	0.00000E+000	5.30000E-001	9.65592E-004	5	..........a	-327.66
	350	70.2	5.39758E-001	4.66045E-007	0.00000E+000	5.40000E-001	9.58292E-004	5	..........a	-327.66
	351	70.4	5.49794E-001	4.67950E-007	0.00000E+000	5.50000E-001	9.43192E-004	5	..........a	-327.66
	352	70.6	5.59747E-001	4.70616E-007	0.00000E+000	5.60000E-001	9.60792E-004	5	..........a	-327.66
	353	70.8	5.69728E-001	4.76578E-007	0.00000E+000	5.70000E-001	9.54192E-004	5	..........a	-327.66
	354	71	5.79755E-001	4.85447E-007	0.00000E+000	5.80000E-001	9.54292E-004	5	..........a	-327.66
[...]
	922	184.6	6.59684E-001	5.00826E-007	0.00000E+000	6.60000E-001	9.60592E-004	5	..........a	-327.66
	923	184.8	6.69739E-001	5.12407E-007	0.00000E+000	6.70000E-001	9.47992E-004	5	..........a	-327.66
	924	185	6.79721E-001	5.17659E-007	0.00000E+000	6.80000E-001	9.49492E-004	5	..........a	-327.66
	925	185.2	6.89649E-001	5.23581E-007	0.00000E+000	6.90000E-001	9.63392E-004	5	..........a	-327.66
	926	185.4	6.99698E-001	5.29348E-007	0.00000E+000	7.00000E-001	9.59292E-004	5	..........a	-327.66
	927	185.6	7.09731E-001	5.36740E-007	0.00000E+000	7.10000E-001	9.55992E-004	5	..........a	-327.66
	928	185.8	7.19900E-001	5.46813E-007	0.00000E+000	7.20000E-001	9.60692E-004	6	..........a	-327.66
	929	186	7.29968E-001	5.54692E-007	0.00000E+000	7.30000E-001	9.60792E-004	6	..........a	-327.66
	930	186.2	7.39903E-001	5.65415E-007	0.00000E+000	7.40000E-001	9.54292E-004	6	..........a	-327.66
	931	186.4	7.49994E-001	5.73022E-007	0.00000E+000	7.50000E-001	9.64692E-004	6	..........a	-327.66
	932	186.6	7.59931E-001	5.81838E-007	0.00000E+000	7.60000E-001	9.54192E-004	6	..........a	-327.66
	933	186.8	7.69932E-001	6.01089E-007	0.00000E+000	7.70000E-001	9.61192E-004	6	..........a	-327.66
	934	187	7.79924E-001	6.08550E-007	0.00000E+000	7.80000E-001	9.59192E-004	6	..........a	-327.66
	935	187.2	7.89993E-001	6.21384E-007	0.00000E+000	7.90000E-001	9.56792E-004	6	..........a	-327.66
	936	187.4	7.99926E-001	6.32897E-007	0.00000E+000	8.00000E-001	9.68092E-004	6	..........a	-327.66
	937	187.6	7.89984E-001	5.61485E-007	0.00000E+000	7.90000E-001	9.59092E-004	6	..........a	-327.66
	938	187.8	7.79929E-001	5.08513E-007	0.00000E+000	7.80000E-001	9.56392E-004	6	..........a	-327.66
	939	188	7.69954E-001	4.65351E-007	0.00000E+000	7.70000E-001	9.58592E-004	6	..........a	-327.66
	940	188.2	7.59743E-001	4.25466E-007	0.00000E+000	7.60000E-001	9.59092E-004	5	..........a	-327.66
	941	188.4	7.49802E-001	3.98804E-007	0.00000E+000	7.50000E-001	9.43592E-004	5	..........a	-327.66
	942	188.6	7.39764E-001	3.71447E-007	0.00000E+000	7.40000E-001	9.53692E-004	5	..........a	-327.66
	943	188.8	7.29776E-001	3.45217E-007	0.00000E+000	7.30000E-001	9.53792E-004	5	..........a	-327.66
	944	189	7.19796E-001	3.20328E-007	0.00000E+000	7.20000E-001	9.56592E-004	5	..........a	-327.66
	945	189.2	7.09899E-001	3.00338E-007	0.00000E+000	7.10000E-001	9.50592E-004	5	..........a	-327.66
	946	189.4	6.99806E-001	2.80615E-007	0.00000E+000	7.00000E-001	9.53292E-004	5	..........a	-327.66
	947	189.6	6.89824E-001	2.61525E-007	0.00000E+000	6.90000E-001	9.46192E-004	5	..........a	-327.66
	948	189.8	6.79866E-001	2.42972E-007	0.00000E+000	6.80000E-001	9.53492E-004	5	..........a	-327.66
	949	190	6.69897E-001	2.25717E-007	0.00000E+000	6.70000E-001	9.47292E-004	5	..........a	-327.66
	950	190.2	6.59848E-001	2.09426E-007	0.00000E+000	6.60000E-001	9.52492E-004	5	..........a	-327.66
	951	190.4	6.49845E-001	1.94189E-007	0.00000E+000	6.50000E-001	9.54292E-004	5	..........a	-327.66
	952	190.6	6.39843E-001	1.79835E-007	0.00000E+000	6.40000E-001	9.52192E-004	5	..........a	-327.66
	953	190.8	6.29960E-001	1.66395E-007	0.00000E+000	6.30000E-001	9.47092E-004	5	..........a	-327.66
	954	191	6.19867E-001	1.53622E-007	0.00000E+000	6.20000E-001	9.49692E-004	5	..........a	-327.66
	955	191.2	6.09916E-001	1.41153E-007	0.00000E+000	6.10000E-001	9.62692E-004	5	..........a	-327.66
	956	191.4	5.99907E-001	1.29406E-007	0.00000E+000	6.00000E-001	9.50692E-004	5	..........a	-327.66
	957	191.6	5.89986E-001	1.17999E-007	0.00000E+000	5.90000E-001	9.44292E-004	5	..........a	-327.66
	958	191.8	5.79932E-001	1.07248E-007	0.00000E+000	5.80000E-001	9.45792E-004	5	..........a	-327.66
	959	192	5.69919E-001	9.67374E-008	0.00000E+000	5.70000E-001	9.61092E-004	5	..........a	-327.66
	960	192.2	5.59918E-001	8.66266E-008	0.00000E+000	5.60000E-001	9.52492E-004	5	..........a	-327.66
	961	192.4	5.49991E-001	7.67465E-008	0.00000E+000	5.50000E-001	9.50192E-004	5	..........a	-327.66
	962	192.6	5.39970E-001	6.72305E-008	0.00000E+000	5.40000E-001	9.35292E-004	5	..........a	-327.66
	963	192.8	5.29951E-001	5.78855E-008	0.00000E+000	5.30000E-001	9.62192E-004	5	..........a	-327.66
	964	193	5.19958E-001	4.88913E-008	0.00000E+000	5.20000E-001	9.61592E-004	5	..........a	-327.66
	965	193.2	5.09991E-001	4.00490E-008	0.00000E+000	5.10000E-001	9.70792E-004	5	..........a	-327.66
	966	193.4	5.00042E-001	3.15655E-008	0.00000E+000	5.00000E-001	9.51592E-004	5	..........a	-327.66
	967	193.6	4.89934E-001	2.31612E-008	0.00000E+000	4.90000E-001	9.52192E-004	5	..........a	-327.66
	968	193.8	4.79930E-001	1.49974E-008	0.00000E+000	4.80000E-001	9.55292E-004	5	..........a	-327.66
	969	194	4.70030E-001	7.11851E-009	0.00000E+000	4.70000E-001	9.60592E-004	5	..........a	-327.66
	970	194.2	4.60002E-001	-7.20360E-010	0.00000E+000	4.60000E-001	9.51792E-004	5	..........a	-327.66
	971	194.4	4.50018E-001	-8.35022E-009	0.00000E+000	4.50000E-001	9.49092E-004	5	..........a	-327.66
	972	194.6	4.39987E-001	-1.56833E-008	0.00000E+000	4.40000E-001	9.68992E-004	5	..........a	-327.66
	973	194.8	4.30028E-001	-2.29203E-008	0.00000E+000	4.30000E-001	9.48992E-004	5	..........a	-327.66
	974	195	4.20041E-001	-2.99471E-008	0.00000E+000	4.20000E-001	9.52192E-004	5	..........a	-327.66
	975	195.2	4.10018E-001	-3.68124E-008	0.00000E+000	4.10000E-001	9.57092E-004	5	..........a	-327.66
	976	195.4	4.00065E-001	-4.37108E-008	0.00000E+000	4.00000E-001	9.54792E-004	5	..........a	-327.66
	977	195.6	3.90073E-001	-5.03674E-008	0.00000E+000	3.90000E-001	9.52792E-004	5	..........a	-327.66
	978	195.8	3.80113E-001	-5.68510E-008	0.00000E+000	3.80000E-001	9.43992E-004	5	..........a	-327.66
	979	196	3.70090E-001	-6.31924E-008	0.00000E+000	3.70000E-001	9.47892E-004	5	..........a	-327.66
	980	196.2	3.60053E-001	-6.95322E-008	0.00000E+000	3.60000E-001	9.65792E-004	5	..........a	-327.66
	981	196.4	3.50059E-001	-7.56201E-008	0.00000E+000	3.50000E-001	9.82492E-004	5	..........a	-327.66
	982	196.6	3.40120E-001	-8.16715E-008	0.00000E+000	3.40000E-001	9.46692E-004	5	..........a	-327.66
	983	196.8	3.30098E-001	-8.75727E-008	0.00000E+000	3.30000E-001	9.57592E-004	5	..........a	-327.66
	984	197	3.20096E-001	-9.34317E-008	0.00000E+000	3.20000E-001	9.44792E-004	5	..........a	-327.66
	985	197.2	3.10096E-001	-9.88299E-008	0.00000E+000	3.10000E-001	9.50992E-004	5	..........a	-327.66
	986	197.4	3.00142E-001	-1.04730E-007	0.00000E+000	3.00000E-001	9.42092E-004	5	..........a	-327.66
	987	197.6	2.90101E-001	-1.10424E-007	0.00000E+000	2.90000E-001	9.53792E-004	5	..........a	-327.66
	988	197.8	2.80048E-001	-1.16100E-007	0.00000E+000	2.80000E-001	9.65892E-004	5	..........a	-327.66
	989	198	2.70136E-001	-1.21752E-007	0.00000E+000	2.70000E-001	9.51292E-004	5	..........a	-327.66
	990	198.2	2.60132E-001	-1.27506E-007	0.00000E+000	2.60000E-001	9.56192E-004	5	..........a	-327.66
	991	198.4	2.50075E-001	-1.33292E-007	0.00000E+000	2.50000E-001	9.61192E-004	5	..........a	-327.66
	992	198.6	2.40099E-001	-1.39062E-007	0.00000E+000	2.40000E-001	9.52092E-004	5	..........a	-327.66
	993	198.8	2.30066E-001	-1.45083E-007	0.00000E+000	2.30000E-001	9.58192E-004	5	..........a	-327.66
	994	199	2.20113E-001	-1.51157E-007	0.00000E+000	2.20000E-001	9.52192E-004	5	..........a	-327.66
	995	199.2	2.10104E-001	-1.57346E-007	0.00000E+000	2.10000E-001	9.56492E-004	5	..........a	-327.66
	996	199.4	2.00140E-001	-1.63720E-007	0.00000E+000	2.00000E-001	9.54092E-004	5	..........a	-327.66
	997	199.6	1.90167E-001	-1.70105E-007	0.00000E+000	1.90000E-001	9.46592E-004	5	..........a	-327.66
	998	199.8	1.80219E-001	-1.76435E-007	0.00000E+000	1.80000E-001	9.46892E-004	5	..........a	-327.66
	999	200	1.70157E-001	-1.82635E-007	0.00000E+000	1.70000E-001	9.46292E-004	5	..........a	-327.66
	1000	200.2	1.60139E-001	-1.88642E-007	0.00000E+000	1.60000E-001	9.58692E-004	5	..........a	-327.66
	1001	200.4	1.50163E-001	-1.94330E-007	0.00000E+000	1.50000E-001	9.50292E-004	5	..........a	-327.66
	1002	200.6	1.40207E-001	-1.99629E-007	0.00000E+000	1.40000E-001	9.35692E-004	5	..........a	-327.66
	1003	200.8	1.30171E-001	-2.04581E-007	0.00000E+000	1.30000E-001	9.41792E-004	5	..........a	-327.66
	1004	201	1.20180E-001	-2.08976E-007	0.00000E+000	1.20000E-001	9.49992E-004	5	..........a	-327.66
	1005	201.2	1.10183E-001	-2.12984E-007	0.00000E+000	1.10000E-001	9.39892E-004	5	..........a	-327.66
	1006	201.4	1.00255E-001	-2.16431E-007	0.00000E+000	1.00000E-001	9.36092E-004	5	..........a	-327.66
	1007	201.6	9.01861E-002	-2.19559E-007	0.00000E+000	9.00000E-002	9.45892E-004	5	..........a	-327.66
	1008	201.8	8.01547E-002	-2.22353E-007	0.00000E+000	8.00000E-002	9.62292E-004	5	..........a	-327.66
	1009	202	7.01518E-002	-2.25186E-007	0.00000E+000	7.00000E-002	9.60092E-004	5	..........a	-327.66
	1010	202.2	6.02225E-002	-2.28097E-007	0.00000E+000	6.00000E-002	9.49292E-004	5	..........a	-327.66
	1011	202.4	5.01782E-002	-2.30934E-007	0.00000E+000	5.00000E-002	9.50992E-004	5	..........a	-327.66
	1012	202.6	4.01913E-002	-2.33779E-007	0.00000E+000	4.00000E-002	9.51892E-004	5	..........a	-327.66
	1013	202.8	3.01778E-002	-2.36534E-007	0.00000E+000	3.00000E-002	9.59292E-004	5	..........a	-327.66
	1014	203	2.03042E-002	-2.39235E-007	0.00000E+000	2.00000E-002	9.54492E-004	5	..........a	-327.66
	1015	203.2	1.01959E-002	-2.41888E-007	0.00000E+000	1.00000E-002	9.40392E-004	5	..........a	-327.66
	1016	203.4	1.59392E-004	-2.44566E-007	0.00000E+000	7.45058E-009	9.50392E-004	5	..........a	-327.66
	1017	203.6	-9.81401E-003	-2.47075E-007	0.00000E+000	-1.00000E-002	9.41592E-004	5	..........a	-327.66
	1018	203.8	-1.97895E-002	-2.49555E-007	0.00000E+000	-2.00000E-002	9.46592E-004	5	..........a	-327.66
	1019	204	-2.98174E-002	-2.52048E-007	0.00000E+000	-3.00000E-002	9.48892E-004	5	..........a	-327.66
	1020	204.2	-3.97936E-002	-2.54394E-007	0.00000E+000	-4.00000E-002	9.47092E-004	5	..........a	-327.66
	1021	204.4	-4.98181E-002	-2.56770E-007	0.00000E+000	-5.00000E-002	9.48092E-004	5	..........a	-327.66
	1022	204.6	-5.97237E-002	-2.59118E-007	0.00000E+000	-6.00000E-002	9.43592E-004	5	..........a	-327.66
	1023	204.8	-6.98151E-002	-2.61743E-007	0.00000E+000	-7.00000E-002	9.43692E-004	5	..........a	-327.66
	1024	205	-7.97922E-002	-2.64191E-007	0.00000E+000	-8.00000E-002	9.55692E-004	5	..........a	-327.66
	1025	205.2	-8.98214E-002	-2.66640E-007	0.00000E+000	-9.00000E-002	9.48892E-004	5	..........a	-327.66
	1026	205.4	-9.97492E-002	-2.69098E-007	0.00000E+000	-1.00000E-001	9.47392E-004	5	..........a	-327.66
	1027	205.6	-1.09834E-001	-2.71572E-007	0.00000E+000	-1.10000E-001	9.48992E-004	5	..........a	-327.66
	1028	205.8	-1.19808E-001	-2.73970E-007	0.00000E+000	-1.20000E-001	9.44992E-004	5	..........a	-327.66
	1029	206	-1.29825E-001	-2.76387E-007	0.00000E+000	-1.30000E-001	9.45492E-004	5	..........a	-327.66
	1030	206.2	-1.39739E-001	-2.78912E-007	0.00000E+000	-1.40000E-001	9.51392E-004	5	..........a	-327.66
	1031	206.4	-1.49819E-001	-2.81393E-007	0.00000E+000	-1.50000E-001	9.55892E-004	5	..........a	-327.66
	1032	206.6	-1.59804E-001	-2.83900E-007	0.00000E+000	-1.60000E-001	9.54792E-004	5	..........a	-327.66
	1033	206.8	-1.69808E-001	-2.86451E-007	0.00000E+000	-1.70000E-001	9.48292E-004	5	..........a	-327.66
	1034	207	-1.79729E-001	-2.88935E-007	0.00000E+000	-1.80000E-001	9.45792E-004	5	..........a	-327.66
	1035	207.2	-1.89885E-001	-2.91530E-007	0.00000E+000	-1.90000E-001	9.46992E-004	5	..........a	-327.66
	1036	207.4	-1.99811E-001	-2.94082E-007	0.00000E+000	-2.00000E-001	9.48892E-004	5	..........a	-327.66
	1037	207.6	-2.09773E-001	-2.96391E-007	0.00000E+000	-2.10000E-001	9.52292E-004	5	..........a	-327.66
	1038	207.8	-2.19751E-001	-2.98707E-007	0.00000E+000	-2.20000E-001	9.46092E-004	5	..........a	-327.66
	1039	208	-2.29792E-001	-3.00886E-007	0.00000E+000	-2.30000E-001	9.49292E-004	5	..........a	-327.66
	1040	208.2	-2.39739E-001	-3.02928E-007	0.00000E+000	-2.40000E-001	9.61092E-004	5	..........a	-327.66
	1041	208.4	-2.49782E-001	-3.04841E-007	0.00000E+000	-2.50000E-001	9.46292E-004	5	..........a	-327.66
	1042	208.6	-2.59667E-001	-3.06668E-007	0.00000E+000	-2.60000E-001	9.54092E-004	5	..........a	-327.66
	1043	208.8	-2.69775E-001	-3.08482E-007	0.00000E+000	-2.70000E-001	9.49192E-004	5	..........a	-327.66
	1044	209	-2.79762E-001	-3.10208E-007	0.00000E+000	-2.80000E-001	9.54392E-004	5	..........a	-327.66
	1045	209.2	-2.89769E-001	-3.11860E-007	0.00000E+000	-2.90000E-001	9.50592E-004	5	..........a	-327.66
	1046	209.4	-2.99719E-001	-3.13529E-007	0.00000E+000	-3.00000E-001	9.42392E-004	5	..........a	-327.66
	1047	209.6	-3.09774E-001	-3.15203E-007	0.00000E+000	-3.10000E-001	9.45592E-004	5	..........a	-327.66
	1048	209.8	-3.19754E-001	-3.16796E-007	0.00000E+000	-3.20000E-001	9.56392E-004	5	..........a	-327.66
	1049	210	-3.29773E-001	-3.18336E-007	0.00000E+000	-3.30000E-001	9.61792E-004	5	..........a	-327.66
	1050	210.2	-3.39666E-001	-3.19801E-007	0.00000E+000	-3.40000E-001	9.62092E-004	5	..........a	-327.66
	1051	210.4	-3.49769E-001	-3.21020E-007	0.00000E+000	-3.50000E-001	9.56892E-004	5	..........a	-327.66
	1052	210.6	-3.59756E-001	-3.22455E-007	0.00000E+000	-3.60000E-001	9.62992E-004	5	..........a	-327.66
	1053	210.8	-3.69758E-001	-3.23777E-007	0.00000E+000	-3.70000E-001	9.60192E-004	5	..........a	-327.66
	1054	211	-3.79689E-001	-3.24815E-007	0.00000E+000	-3.80000E-001	9.45692E-004	5	..........a	-327.66
	1055	211.2	-3.89753E-001	-3.25840E-007	0.00000E+000	-3.90000E-001	9.47092E-004	5	..........a	-327.66
	1056	211.4	-3.99768E-001	-3.26728E-007	0.00000E+000	-4.00000E-001	9.56692E-004	5	..........a	-327.66
	1057	211.6	-4.09743E-001	-3.27542E-007	0.00000E+000	-4.10000E-001	9.70092E-004	5	..........a	-327.66
	1058	211.8	-4.19645E-001	-3.28272E-007	0.00000E+000	-4.20000E-001	9.52192E-004	5	..........a	-327.66
	1059	212	-4.29739E-001	-3.29361E-007	0.00000E+000	-4.30000E-001	9.36492E-004	5	..........a	-327.66
	1060	212.2	-4.39707E-001	-3.30116E-007	0.00000E+000	-4.40000E-001	9.63792E-004	5	..........a	-327.66
	1061	212.4	-4.49766E-001	-3.30135E-007	0.00000E+000	-4.50000E-001	9.44892E-004	5	..........a	-327.66
	1062	212.6	-4.59665E-001	-3.31410E-007	0.00000E+000	-4.60000E-001	9.53492E-004	5	..........a	-327.66
	1063	212.8	-4.69743E-001	-3.31479E-007	0.00000E+000	-4.70000E-001	9.56192E-004	5	..........a	-327.66
	1064	213	-4.79703E-001	-3.31936E-007	0.00000E+000	-4.80000E-001	9.64192E-004	5	..........a	-327.66
	1065	213.2	-4.89712E-001	-3.32717E-007	0.00000E+000	-4.90000E-001	9.57492E-004	5	..........a	-327.66
	1066	213.4	-4.99720E-001	-3.33411E-007	0.00000E+000	-5.00000E-001	9.48592E-004	5	..........a	-327.66
	1067	213.6	-5.09727E-001	-3.34105E-007	0.00000E+000	-5.10000E-001	9.58092E-004	5	..........a	-327.66
	1068	213.8	-5.19701E-001	-3.34907E-007	0.00000E+000	-5.20000E-001	9.59292E-004	5	..........a	-327.66
	1069	214	-5.29743E-001	-3.35835E-007	0.00000E+000	-5.30000E-001	9.61892E-004	5	..........a	-327.66
	1070	214.2	-5.39655E-001	-3.37043E-007	0.00000E+000	-5.40000E-001	9.56392E-004	5	..........a	-327.66
	1071	214.4	-5.49743E-001	-3.38311E-007	0.00000E+000	-5.50000E-001	9.39392E-004	5	..........a	-327.66
	1072	214.6	-5.59712E-001	-3.39706E-007	0.00000E+000	-5.60000E-001	9.60592E-004	5	..........a	-327.66
	1073	214.8	-5.69724E-001	-3.41338E-007	0.00000E+000	-5.70000E-001	9.65192E-004	5	..........a	-327.66
	1074	215	-5.79675E-001	-3.43083E-007	0.00000E+000	-5.80000E-001	9.70592E-004	5	..........a	-327.66
	1075	215.2	-5.89736E-001	-3.44858E-007	0.00000E+000	-5.90000E-001	9.58592E-004	5	..........a	-327.66
	1076	215.4	-5.99677E-001	-3.47093E-007	0.00000E+000	-6.00000E-001	9.61092E-004	5	..........a	-327.66
CURVE5	TABLE
	Pt	T	Vf	Im	Vu	Sig	Ach	IERange	Over	Temp
	#	s	V vs. Ref.	A	V	V	V	#	bits	deg C
	1077	215.6	-5.89750E-001	-2.90820E-007	0.00000E+000	-5.90000E-001	9.53492E-004	5	..........a	-327.66
	1078	215.8	-5.79704E-001	-2.53605E-007	0.00000E+000	-5.80000E-001	9.61692E-004	5	..........a	-327.66
	1079	216	-5.69778E-001	-2.24666E-007	0.00000E+000	-5.70000E-001	9.55892E-004	5	..........a	-327.66
	1080	216.2	-5.59798E-001	-2.00828E-007	0.00000E+000	-5.60000E-001	9.64892E-004	5	..........a	-327.66
	1081	216.4	-5.49810E-001	-1.80235E-007	0.00000E+000	-5.50000E-001	9.37092E-004	5	..........a	-327.66
	1082	216.6	-5.39715E-001	-1.62134E-007	0.00000E+000	-5.40000E-001	9.42592E-004	5	..........a	-327.66
	1083	216.8	-5.29810E-001	-1.45939E-007	0.00000E+000	-5.30000E-001	9.46892E-004	5	..........a	-327.66
	1084	217	-5.19795E-001	-1.32144E-007	0.00000E+000	-5.20000E-001	9.64792E-004	5	..........a	-327.66
	1085	217.2	-5.09822E-001	-1.18606E-007	0.00000E+000	-5.10000E-001	9.57692E-004	5	..........a	-327.66
	1086	217.4	-4.99807E-001	-1.06335E-007	0.00000E+000	-5.00000E-001	9.58192E-004	5	..........a	-327.66
	1087	217.6	-4.89830E-001	-9.44477E-008	0.00000E+000	-4.90000E-001	9.65492E-004	5	..........a	-327.66
	1088	217.8	-4.79834E-001	-8.35281E-008	0.00000E+000	-4.80000E-001	9.46492E-004	5	..........a	-327.66
	1089	218	-4.69834E-001	-7.33671E-008	0.00000E+000	-4.70000E-001	9.46292E-004	5	..........a	-327.66
	1090	218.2	-4.59798E-001	-6.40442E-008	0.00000E+000	-4.60000E-001	9.46292E-004	5	..........a	-327.66
	1091	218.4	-4.49837E-001	-5.47782E-008	0.00000E+000	-4.50000E-001	9.42992E-004	5	..........a	-327.66
	1092	218.6	-4.39828E-001	-4.61666E-008	0.00000E+000	-4.40000E-001	9.60292E-004	5	..........a	-327.66
	1093	218.8	-4.29860E-001	-3.79407E-008	0.00000E+000	-4.30000E-001	9.53792E-004	5	..........a	-327.66
	1094	219	-4.19826E-001	-3.00693E-008	0.00000E+000	-4.20000E-001	9.53092E-004	5	..........a	-327.66
	1095	219.2	-4.09868E-001	-2.23265E-008	0.00000E+000	-4.10000E-001	9.56992E-004	5	..........a	-327.66
	1096	219.4	-3.99852E-001	-1.46678E-008	0.00000E+000	-4.00000E-001	9.52592E-004	5	..........a	-327.66
	1097	219.6	-3.89920E-001	-7.50065E-009	0.00000E+000	-3.90000E-001	9.57192E-004	5	..........a	-327.66
	1098	219.8	-3.79863E-001	-9.18278E-010	0.00000E+000	-3.80000E-001	9.51492E-004	5	..........a	-327.66
	1099	220	-3.69888E-001	5.68306E-009	0.00000E+000	-3.70000E-001	9.61192E-004	5	..........a	-327.66
	1100	220.2	-3.59948E-001	1.25221E-008	0.00000E+000	-3.60000E-001	9.65892E-004	5	..........a	-327.66
	1101	220.4	-3.49911E-001	1.81955E-008	0.00000E+000	-3.50000E-001	9.59192E-004	5	..........a	-327.66
	1102	220.6	-3.39878E-001	2.46318E-008	0.00000E+000	-3.40000E-001	9.46092E-004	5	..........a	-327.66
	1103	220.8	-3.29926E-001	3.04287E-008	0.00000E+000	-3.30000E-001	9.61892E-004	5	..........a	-327.66
	1104	221	-3.19900E-001	3.58685E-008	0.00000E+000	-3.20000E-001	9.62192E-004	5	..........a	-327.66
	1105	221.2	-3.09936E-001	4.15187E-008	0.00000E+000	-3.10000E-001	9.54392E-004	5	..........a	-327.66
	1106	221.4	-2.99890E-001	4.65720E-008	0.00000E+000	-3.00000E-001	9.43192E-004	5	..........a	-327.66
	1107	221.6	-2.89936E-001	5.16196E-008	0.00000E+000	-2.90000E-001	9.54192E-004	5	..........a	-327.66
	1108	221.8	-2.79940E-001	5.63835E-008	0.00000E+000	-2.80000E-001	9.60292E-004	5	..........a	-327.66
	1109	222	-2.69905E-001	6.11849E-008	0.00000E+000	-2.70000E-001	9.53392E-004	5	..........a	-327.66
	1110	222.2	-2.59895E-001	6.57796E-008	0.00000E+000	-2.60000E-001	9.49592E-004	5	..........a	-327.66
	1111	222.4	-2.49913E-001	7.01773E-008	0.00000E+000	-2.50000E-001	9.59992E-004	5	..........a	-327.66
	1112	222.6	-2.39942E-001	7.39615E-008	0.00000E+000	-2.40000E-001	9.55892E-004	5	..........a	-327.66
	1113	222.8	-2.29954E-001	7.83926E-008	0.00000E+000	-2.30000E-001	9.48892E-004	5	..........a	-327.66
	1114	223	-2.19932E-001	8.31028E-008	0.00000E+000	-2.20000E-001	9.46792E-004	5	..........a	-327.66
	1115	223.2	-2.09938E-001	8.78221E-008	0.00000E+000	-2.10000E-001	9.58392E-004	5	..........a	-327.66
	1116	223.4	-2.00008E-001	9.26676E-008	0.00000E+000	-2.00000E-001	9.62992E-004	5	..........a	-327.66
	1117	223.6	-1.90031E-001	9.76593E-008	0.00000E+000	-1.90000E-001	9.57292E-004	5	..........a	-327.66
	1118	223.8	-1.80000E-001	1.02839E-007	0.00000E+000	-1.80000E-001	9.52992E-004	5	..........a	-327.66
	1119	224	-1.69957E-001	1.08115E-007	0.00000E+000	-1.70000E-001	9.49292E-004	5	..........a	-327.66
	1120	224.2	-1.60025E-001	1.13384E-007	0.00000E+000	-1.60000E-001	9.51092E-004	5	..........a	-327.66