File: data/raw/batch_data/20240522_K_GM0016_HL03_E03_CV50.DTA
EXPLAIN
TAG	CV
TITLE	LABEL	Cyclic Voltammetry	Test &Identifier
DATE	LABEL	5/22/2024	Date
TIME	LABEL	17:23:24	Time
NOTES	NOTES	1	&Notes...

PSTAT	PSTAT	REF600P-43058	Potentiostat
VINIT	POTEN	0.00000E+000	T	Initial &E (V)
VLIMIT1	POTEN	8.00000E-001	F	Scan Limit &1 (V)
VLIMIT2	POTEN	-6.00000E-001	F	Scan Limit &2 (V)
VFINAL	POTEN	0.00000E+000	T	Final &E (V)
SCANRATE	QUANT	4.99999E+001	&Scan Rate (mV/s)
STEPSIZE	QUANT	1.00000E+001	St&ep Size (mV)
CYCLES	IQUANT	4	C&ycles (#)
IMODE	SELECTOR	0	I/E Range &Mode
IRANGE	QUANT	1.00000E-005	&Max Current (mA)
AREA	QUANT	1.00000E+000	Electrode &Area (cm^2)
ELECTRODETYPE	SELECTOR	0	Electrode Type
STRIPPING	TOGGLE	F	Used for Stripping
POLARITY	TOGGLE	F	Signal Polarity
CONDIT	TWOPARAM	F	1.50000E+001	0.00000E+000	Conditionin&g	Time(s)	E(V)
DELAY	TWOPARAM	T	1.00000E+001	0.00000E+000	Init. De&lay	Time(s)	Stab.(mV/s)
EQDELAY	QUANT	5.00000E+000	Equil. &Time (s)
IRCOMP	SELECTOR	0	IRCom&p
PFCOR	QUANT	5.00000E+001	PF Corr. (ohm)
SAMPLINGMODE	SELECTOR	1	Sampling &Mode
OCVCURVE	TABLE	39
	Pt	T	Vf	Vm	Ach	Over	Temp
	#	s	V vs. Ref.	V	V	bits	deg C
	0	0.258333	-6.03223E-002	-6.03223E-002	2.42259E-004	..........a	-327.66
	1	0.516667	-6.03228E-002	-6.03533E-002	2.56526E-004	..........a	-327.66
	2	0.775	-6.03267E-002	-6.03933E-002	2.42859E-004	..........a	-327.66
	3	1.03333	-6.03381E-002	-6.04260E-002	2.52126E-004	..........a	-327.66
	4	1.29167	-6.03594E-002	-6.04574E-002	2.41726E-004	..........a	-327.66
	5	1.55	-6.03884E-002	-6.04908E-002	2.49126E-004	..........a	-327.66
	6	1.80833	-6.04212E-002	-6.05259E-002	2.39926E-004	..........a	-327.66
	7	2.06667	-6.04550E-002	-6.05637E-002	2.46059E-004	..........a	-327.66
	8	2.325	-6.04893E-002	-6.05968E-002	2.45726E-004	..........a	-327.66
	9	2.58333	-6.05243E-002	-6.06376E-002	2.40592E-004	..........a	-327.66
	10	2.84167	-6.05598E-002	-6.06624E-002	2.56126E-004	..........a	-327.66
	11	3.1	-6.05952E-002	-6.07011E-002	2.47659E-004	..........a	-327.66
	12	3.35833	-6.06297E-002	-6.07319E-002	2.54192E-004	..........a	-327.66
	13	3.61667	-6.06635E-002	-6.07672E-002	2.32526E-004	..........a	-327.66
	14	3.875	-6.06971E-002	-6.08052E-002	2.48259E-004	..........a	-327.66
	15	4.13333	-6.07310E-002	-6.08360E-002	2.50126E-004	..........a	-327.66
	16	4.39167	-6.07656E-002	-6.08798E-002	2.56326E-004	..........a	-327.66
	17	4.65	-6.08009E-002	-6.09074E-002	2.46526E-004	..........a	-327.66
	18	4.90833	-6.08367E-002	-6.09507E-002	2.58526E-004	..........a	-327.66
	19	5.16667	-6.08725E-002	-6.09744E-002	2.57259E-004	..........a	-327.66
	20	5.425	-6.09077E-002	-6.10075E-002	2.49926E-004	..........a	-327.66
	21	5.68333	-6.09416E-002	-6.10437E-002	2.42592E-004	..........a	-327.66
	22	5.94167	-6.09744E-002	-6.10728E-002	2.56859E-004	..........a	-327.66
	23	6.2	-6.10069E-002	-6.11159E-002	2.50792E-004	..........a	-327.66
	24	6.45833	-6.10400E-002	-6.11411E-002	2.51392E-004	..........a	-327.66
	25	6.71667	-6.10738E-002	-6.11762E-002	2.46126E-004	..........a	-327.66
	26	6.975	-6.11076E-002	-6.12127E-002	2.59392E-004	..........a	-327.66
	27	7.23333	-6.11411E-002	-6.12412E-002	2.41326E-004	..........a	-327.66
	28	7.49167	-6.11745E-002	-6.12804E-002	2.52659E-004	..........a	-327.66
	29	7.75	-6.12078E-002	-6.13040E-002	2.60459E-004	..........a	-327.66
	30	8.00833	-6.12409E-002	-6.13438E-002	2.43926E-004	..........a	-327.66
	31	8.26667	-6.12736E-002	-6.13748E-002	2.59192E-004	..........a	-327.66
	32	8.525	-6.13062E-002	-6.14018E-002	2.58926E-004	..........a	-327.66
	33	8.78333	-6.13387E-002	-6.14442E-002	2.54326E-004	..........a	-327.66
	34	9.04167	-6.13713E-002	-6.14743E-002	2.52392E-004	..........a	-327.66
	35	9.3	-6.14048E-002	-6.15264E-002	2.39592E-004	..........a	-327.66
	36	9.5583	-6.14401E-002	-6.15486E-002	2.73059E-004	..........a	-327.66
	37	9.8167	-6.14767E-002	-6.15737E-002	2.45059E-004	..........a	-327.66
	38	10.075	-6.15120E-002	-6.16067E-002	2.54059E-004	..........a	-327.66
EOC	QUANT	-0.061512	Open Circuit (V)
PSTATMODEL	IQUANT	7	Pstat Model
PSTATSECTION	LABEL	REF600P-43058	Pstat Section
PSTATSERIALNO	LABEL	43058	Pstat Serial Number
CTRLMODE	IQUANT	1	Control Mode
ELECTROMETER	IQUANT	0	RE=0 or CS=1
IESTAB	IQUANT	2	I/E Stability
CASPEED	IQUANT	4	Control Amp Speed
CONVENTION	IQUANT	1	Current Convention
ICHRANGE	IQUANT	2	Ich Range
ICHRANGEMODE	TOGGLE	F	Ich Auto Range
ICHOFFSETENABLE	TOGGLE	F	Ich Offset Enable
ICHOFFSET	QUANT	0	Ich Offset (V)
ICHFILTER	IQUANT	2	Ich Filter
VCHRANGE	IQUANT	2	Vch Range
VCHRANGEMODE	TOGGLE	F	Vch Auto Range
VCHOFFSETENABLE	TOGGLE	F	Vch Offset Enable
VCHOFFSET	QUANT	0	Vch Offset (V)
VCHFILTER	IQUANT	2	Vch Filter
ACHRANGE	IQUANT	2	Ach Range
ACHOFFSETENABLE	TOGGLE	F	Ach Offset Enable
ACHOFFSET	QUANT	0	Ach Offset (V)
ACHFILTER	IQUANT	1	Ach Filter
IERANGELOWERLIMIT	IQUANT	1	I/E Range Lower Limit
IERANGEMODE	TOGGLE	T	I/E AutoRange
IERANGE	IQUANT	4	I/E Range
POSFEEDENABLE	TOGGLE	F	Positive Feedback IR Comp
POSFEEDRESISTANCE	QUANT	0	Positive Feedback Resistance (ohm)
ACHSELECT	IQUANT	4	Ach Select
SENSECABLEID	IQUANT	7	Sense Cable ID
PWRCABLEID	IQUANT	7	Power Cable ID
DCCALDATE	LABEL	3/22/2024	DC Calibration Date
ACCALDATE	LABEL	3/22/2024	AC Calibration Date
THERMOSELECT	IQUANT	1	Thermo Select
FRAMEWORKVERSION	LABEL	7.8.4	Framework Version
INSTRUMENTVERSION	LABEL	4.42	Instrument Version
CURVE1	TABLE
	Pt	T	Vf	Im	Vu	Sig	Ach	IERange	Over	Temp
	#	s	V vs. Ref.	A	V	V	V	#	bits	deg C
	0	0.2	-6.13097E-002	2.88277E-010	0.00000E+000	-6.15000E-002	1.00359E-003	5	..........a	-327.66
	1	0.4	-5.14433E-002	1.10749E-008	0.00000E+000	-5.15000E-002	1.00519E-003	5	..........a	-327.66
	2	0.6	-4.14462E-002	1.74668E-008	0.00000E+000	-4.15000E-002	1.03529E-003	5	..........a	-327.66
	3	0.8	-3.14597E-002	2.21168E-008	0.00000E+000	-3.15000E-002	1.00029E-003	5	..........a	-327.66
	4	1	-2.13798E-002	2.59007E-008	0.00000E+000	-2.15000E-002	9.99992E-004	5	..........a	-327.66
	5	1.2	-1.14318E-002	2.91905E-008	0.00000E+000	-1.15000E-002	1.02199E-003	5	..........a	-327.66
	6	1.4	-1.46536E-003	3.21791E-008	0.00000E+000	-1.50000E-003	1.01389E-003	5	..........a	-327.66
	7	1.6	8.57869E-003	3.50012E-008	0.00000E+000	8.50000E-003	9.86492E-004	5	..........a	-327.66
	8	1.8	1.86764E-002	3.77287E-008	0.00000E+000	1.85000E-002	9.98492E-004	5	..........a	-327.66
	9	2	2.85197E-002	4.04065E-008	0.00000E+000	2.85000E-002	1.01689E-003	5	..........a	-327.66
	10	2.2	3.85762E-002	4.31106E-008	0.00000E+000	3.85000E-002	1.00429E-003	5	..........a	-327.66
	11	2.4	4.85563E-002	4.58006E-008	0.00000E+000	4.85000E-002	1.01829E-003	5	..........a	-327.66
	12	2.6	5.86199E-002	4.84968E-008	0.00000E+000	5.85000E-002	9.95392E-004	5	..........a	-327.66
	13	2.8	6.85059E-002	5.12300E-008	0.00000E+000	6.85000E-002	1.02309E-003	5	..........a	-327.66
	14	3	7.84894E-002	5.39585E-008	0.00000E+000	7.85000E-002	1.02079E-003	5	..........a	-327.66
	15	3.2	8.85608E-002	5.67230E-008	0.00000E+000	8.85000E-002	1.00019E-003	5	..........a	-327.66
	16	3.4	9.86520E-002	5.95206E-008	0.00000E+000	9.85000E-002	1.02199E-003	5	..........a	-327.66
	17	3.6	1.08549E-001	6.23985E-008	0.00000E+000	1.08500E-001	9.88792E-004	5	..........a	-327.66
	18	3.8	1.18533E-001	6.52918E-008	0.00000E+000	1.18500E-001	1.00969E-003	5	..........a	-327.66
	19	4	1.28515E-001	6.82488E-008	0.00000E+000	1.28500E-001	1.01709E-003	5	..........a	-327.66
	20	4.2	1.38602E-001	7.13637E-008	0.00000E+000	1.38500E-001	1.00959E-003	5	..........a	-327.66
	21	4.4	1.48544E-001	7.44045E-008	0.00000E+000	1.48500E-001	1.01489E-003	5	..........a	-327.66
	22	4.6	1.58535E-001	7.74837E-008	0.00000E+000	1.58500E-001	1.01149E-003	5	..........a	-327.66
	23	4.8	1.68523E-001	8.06266E-008	0.00000E+000	1.68500E-001	9.99692E-004	5	..........a	-327.66
	24	5	1.78623E-001	8.38863E-008	0.00000E+000	1.78500E-001	9.82092E-004	5	..........a	-327.66
	25	5.2	1.88552E-001	8.71566E-008	0.00000E+000	1.88500E-001	1.01039E-003	5	..........a	-327.66
	26	5.4	1.98450E-001	9.03952E-008	0.00000E+000	1.98500E-001	1.01709E-003	5	..........a	-327.66
	27	5.6	2.08482E-001	9.36021E-008	0.00000E+000	2.08500E-001	1.01369E-003	5	..........a	-327.66
	28	5.8	2.18609E-001	9.67578E-008	0.00000E+000	2.18500E-001	1.00209E-003	5	..........a	-327.66
	29	6	2.28431E-001	9.99334E-008	0.00000E+000	2.28500E-001	1.03389E-003	5	..........a	-327.66
	30	6.2	2.38490E-001	1.03047E-007	0.00000E+000	2.38500E-001	1.02129E-003	5	..........a	-327.66
	31	6.4	2.48451E-001	1.05832E-007	0.00000E+000	2.48500E-001	1.00909E-003	5	..........a	-327.66
	32	6.6	2.58554E-001	1.08721E-007	0.00000E+000	2.58500E-001	1.01639E-003	5	..........a	-327.66
	33	6.8	2.68518E-001	1.11355E-007	0.00000E+000	2.68500E-001	1.01449E-003	5	..........a	-327.66
	34	7	2.78433E-001	1.13576E-007	0.00000E+000	2.78500E-001	1.02099E-003	5	..........a	-327.66
	35	7.2	2.88463E-001	1.15814E-007	0.00000E+000	2.88500E-001	1.01249E-003	5	..........a	-327.66
	36	7.4	2.98574E-001	1.18052E-007	0.00000E+000	2.98500E-001	9.77892E-004	5	..........a	-327.66
	37	7.6	3.08498E-001	1.19904E-007	0.00000E+000	3.08500E-001	1.00729E-003	5	..........a	-327.66
	38	7.8	3.18478E-001	1.21503E-007	0.00000E+000	3.18500E-001	9.87992E-004	5	..........a	-327.66
	39	8	3.28470E-001	1.23352E-007	0.00000E+000	3.28500E-001	1.02219E-003	5	..........a	-327.66
	40	8.2	3.38539E-001	1.25883E-007	0.00000E+000	3.38500E-001	9.89692E-004	5	..........a	-327.66
	41	8.4	3.48499E-001	1.27805E-007	0.00000E+000	3.48500E-001	9.98492E-004	5	..........a	-327.66
	42	8.6	3.58416E-001	1.29830E-007	0.00000E+000	3.58500E-001	1.02179E-003	5	..........a	-327.66
	43	8.8	3.68479E-001	1.31770E-007	0.00000E+000	3.68500E-001	1.01639E-003	5	..........a	-327.66
	44	9	3.78583E-001	1.33975E-007	0.00000E+000	3.78500E-001	1.00909E-003	5	..........a	-327.66
	45	9.2	3.88442E-001	1.36241E-007	0.00000E+000	3.88500E-001	1.01479E-003	5	..........a	-327.66
	46	9.4	3.98505E-001	1.38577E-007	0.00000E+000	3.98500E-001	1.03099E-003	5	..........a	-327.66
	47	9.6	4.08441E-001	1.40985E-007	0.00000E+000	4.08500E-001	1.01069E-003	5	..........a	-327.66
	48	9.8	4.18484E-001	1.43332E-007	0.00000E+000	4.18500E-001	1.01279E-003	5	..........a	-327.66
	49	10	4.28365E-001	1.45572E-007	0.00000E+000	4.28500E-001	1.02589E-003	5	..........a	-327.66
	50	10.2	4.38382E-001	1.47635E-007	0.00000E+000	4.38500E-001	1.00169E-003	5	..........a	-327.66
	51	10.4	4.48479E-001	1.49875E-007	0.00000E+000	4.48500E-001	1.00289E-003	5	..........a	-327.66
	52	10.6	4.58493E-001	1.52288E-007	0.00000E+000	4.58500E-001	1.02259E-003	5	..........a	-327.66
	53	10.8	4.68461E-001	1.54153E-007	0.00000E+000	4.68500E-001	1.01939E-003	5	..........a	-327.66
	54	11	4.78366E-001	1.56029E-007	0.00000E+000	4.78500E-001	1.02599E-003	5	..........a	-327.66
	55	11.2	4.88415E-001	1.58023E-007	0.00000E+000	4.88500E-001	1.01429E-003	5	..........a	-327.66
	56	11.4	4.98470E-001	1.59845E-007	0.00000E+000	4.98500E-001	1.00179E-003	5	..........a	-327.66
	57	11.6	5.08401E-001	1.61826E-007	0.00000E+000	5.08500E-001	1.01439E-003	5	..........a	-327.66
	58	11.8	5.18396E-001	1.64091E-007	0.00000E+000	5.18500E-001	1.02219E-003	5	..........a	-327.66
	59	12	5.28428E-001	1.66385E-007	0.00000E+000	5.28500E-001	1.01319E-003	5	..........a	-327.66
	60	12.2	5.38436E-001	1.67972E-007	0.00000E+000	5.38500E-001	1.00709E-003	5	..........a	-327.66
	61	12.4	5.48468E-001	1.69981E-007	0.00000E+000	5.48500E-001	1.02199E-003	5	..........a	-327.66
	62	12.6	5.58371E-001	1.72767E-007	0.00000E+000	5.58500E-001	1.02119E-003	5	..........a	-327.66
	63	12.8	5.68400E-001	1.74766E-007	0.00000E+000	5.68500E-001	1.00229E-003	5	..........a	-327.66
	64	13	5.78404E-001	1.76715E-007	0.00000E+000	5.78500E-001	1.01679E-003	5	..........a	-327.66
	65	13.2	5.88389E-001	1.78496E-007	0.00000E+000	5.88500E-001	1.02939E-003	5	..........a	-327.66
	66	13.4	5.98419E-001	1.79579E-007	0.00000E+000	5.98500E-001	1.00649E-003	5	..........a	-327.66
	67	13.6	6.08378E-001	1.80919E-007	0.00000E+000	6.08500E-001	1.02189E-003	5	..........a	-327.66
	68	13.8	6.18386E-001	1.82356E-007	0.00000E+000	6.18500E-001	1.01269E-003	5	..........a	-327.66
	69	14	6.28363E-001	1.83842E-007	0.00000E+000	6.28500E-001	1.00349E-003	5	..........a	-327.66
	70	14.2	6.38316E-001	1.85552E-007	0.00000E+000	6.38500E-001	1.01729E-003	5	..........a	-327.66
	71	14.4	6.48357E-001	1.87443E-007	0.00000E+000	6.48500E-001	1.01219E-003	5	..........a	-327.66
	72	14.6	6.58427E-001	1.89514E-007	0.00000E+000	6.58500E-001	1.00499E-003	5	..........a	-327.66
	73	14.8	6.68375E-001	1.91669E-007	0.00000E+000	6.68500E-001	1.01529E-003	5	..........a	-327.66
	74	15	6.78362E-001	1.93750E-007	0.00000E+000	6.78500E-001	1.02059E-003	5	..........a	-327.66
	75	15.2	6.88350E-001	1.96065E-007	0.00000E+000	6.88500E-001	1.00799E-003	5	..........a	-327.66
	76	15.4	6.98380E-001	1.98656E-007	0.00000E+000	6.98500E-001	1.00639E-003	5	..........a	-327.66
	77	15.6	7.08392E-001	2.01286E-007	0.00000E+000	7.08500E-001	1.03699E-003	5	..........a	-327.66
	78	15.8	7.18332E-001	2.03977E-007	0.00000E+000	7.18500E-001	1.00739E-003	5	..........a	-327.66
	79	16	7.28374E-001	2.06782E-007	0.00000E+000	7.28500E-001	1.01119E-003	5	..........a	-327.66
	80	16.2	7.38393E-001	2.09557E-007	0.00000E+000	7.38500E-001	1.00199E-003	5	..........a	-327.66
	81	16.4	7.48395E-001	2.12400E-007	0.00000E+000	7.48500E-001	1.00489E-003	5	..........a	-327.66
	82	16.6	7.58349E-001	2.15251E-007	0.00000E+000	7.58500E-001	1.01239E-003	5	..........a	-327.66
	83	16.8	7.68327E-001	2.18114E-007	0.00000E+000	7.68500E-001	1.02339E-003	5	..........a	-327.66
	84	17	7.78364E-001	2.21062E-007	0.00000E+000	7.78500E-001	1.02009E-003	5	..........a	-327.66
	85	17.2	7.88377E-001	2.23882E-007	0.00000E+000	7.88500E-001	1.01119E-003	5	..........a	-327.66
	86	17.4	7.98340E-001	2.26852E-007	0.00000E+000	7.98500E-001	1.02219E-003	5	..........a	-327.66
	87	17.6	7.88385E-001	1.98220E-007	0.00000E+000	7.88500E-001	1.02609E-003	5	..........a	-327.66
	88	17.8	7.78390E-001	1.78927E-007	0.00000E+000	7.78500E-001	9.99692E-004	5	..........a	-327.66
	89	18	7.68347E-001	1.63874E-007	0.00000E+000	7.68500E-001	1.02059E-003	5	..........a	-327.66
	90	18.2	7.58350E-001	1.51545E-007	0.00000E+000	7.58500E-001	9.99392E-004	5	..........a	-327.66
	91	18.4	7.48414E-001	1.41053E-007	0.00000E+000	7.48500E-001	1.02039E-003	5	..........a	-327.66
	92	18.6	7.38460E-001	1.31996E-007	0.00000E+000	7.38500E-001	9.97992E-004	5	..........a	-327.66
	93	18.8	7.28445E-001	1.24003E-007	0.00000E+000	7.28500E-001	1.00779E-003	5	..........a	-327.66
	94	19	7.18381E-001	1.16846E-007	0.00000E+000	7.18500E-001	1.01279E-003	5	..........a	-327.66
	95	19.2	7.08382E-001	1.10508E-007	0.00000E+000	7.08500E-001	1.00759E-003	5	..........a	-327.66
	96	19.4	6.98432E-001	1.04669E-007	0.00000E+000	6.98500E-001	1.00729E-003	5	..........a	-327.66
	97	19.6	6.88373E-001	9.93535E-008	0.00000E+000	6.88500E-001	1.01429E-003	5	..........a	-327.66
	98	19.8	6.78414E-001	9.44705E-008	0.00000E+000	6.78500E-001	1.00389E-003	5	..........a	-327.66
	99	20	6.68386E-001	8.99238E-008	0.00000E+000	6.68500E-001	1.01869E-003	5	..........a	-327.66
	100	20.2	6.58502E-001	8.57447E-008	0.00000E+000	6.58500E-001	1.00249E-003	5	..........a	-327.66
	101	20.4	6.48421E-001	8.19093E-008	0.00000E+000	6.48500E-001	1.01209E-003	5	..........a	-327.66
	102	20.6	6.38388E-001	7.82961E-008	0.00000E+000	6.38500E-001	1.02279E-003	5	..........a	-327.66
	103	20.8	6.28402E-001	7.46396E-008	0.00000E+000	6.28500E-001	1.01589E-003	5	..........a	-327.66
	104	21	6.18469E-001	7.12885E-008	0.00000E+000	6.18500E-001	1.00439E-003	5	..........a	-327.66
	105	21.2	6.08441E-001	6.80907E-008	0.00000E+000	6.08500E-001	1.00779E-003	5	..........a	-327.66
	106	21.4	5.98451E-001	6.50561E-008	0.00000E+000	5.98500E-001	1.00969E-003	5	..........a	-327.66
	107	21.6	5.88440E-001	6.21030E-008	0.00000E+000	5.88500E-001	1.02619E-003	5	..........a	-327.66
	108	21.8	5.78551E-001	5.92880E-008	0.00000E+000	5.78500E-001	9.90592E-004	5	..........a	-327.66
	109	22	5.68467E-001	5.65382E-008	0.00000E+000	5.68500E-001	1.01599E-003	5	..........a	-327.66
	110	22.2	5.58432E-001	5.38763E-008	0.00000E+000	5.58500E-001	1.01999E-003	5	..........a	-327.66
	111	22.4	5.48524E-001	5.12713E-008	0.00000E+000	5.48500E-001	1.01409E-003	5	..........a	-327.66
	112	22.6	5.38533E-001	4.87729E-008	0.00000E+000	5.38500E-001	1.01079E-003	5	..........a	-327.66
	113	22.8	5.28506E-001	4.63011E-008	0.00000E+000	5.28500E-001	9.99792E-004	5	..........a	-327.66
	114	23	5.18430E-001	4.39175E-008	0.00000E+000	5.18500E-001	1.01359E-003	5	..........a	-327.66
	115	23.2	5.08452E-001	4.15539E-008	0.00000E+000	5.08500E-001	1.01619E-003	5	..........a	-327.66
	116	23.4	4.98519E-001	3.92087E-008	0.00000E+000	4.98500E-001	9.85192E-004	5	..........a	-327.66
	117	23.6	4.88469E-001	3.69335E-008	0.00000E+000	4.88500E-001	1.02789E-003	5	..........a	-327.66
	118	23.8	4.78409E-001	3.47036E-008	0.00000E+000	4.78500E-001	1.03379E-003	5	..........a	-327.66
	119	24	4.68489E-001	3.24886E-008	0.00000E+000	4.68500E-001	1.00949E-003	5	..........a	-327.66
	120	24.2	4.58595E-001	3.03107E-008	0.00000E+000	4.58500E-001	1.01169E-003	5	..........a	-327.66
	121	24.4	4.48508E-001	2.81440E-008	0.00000E+000	4.48500E-001	1.01409E-003	5	..........a	-327.66
	122	24.6	4.38441E-001	2.60182E-008	0.00000E+000	4.38500E-001	1.02899E-003	5	..........a	-327.66
	123	24.8	4.28414E-001	2.39026E-008	0.00000E+000	4.28500E-001	1.01609E-003	5	..........a	-327.66
	124	25	4.18557E-001	2.18161E-008	0.00000E+000	4.18500E-001	1.00609E-003	5	..........a	-327.66
	125	25.2	4.08502E-001	1.97266E-008	0.00000E+000	4.08500E-001	1.01759E-003	5	..........a	-327.66
	126	25.4	3.98529E-001	1.76921E-008	0.00000E+000	3.98500E-001	1.00569E-003	5	..........a	-327.66
	127	25.6	3.88511E-001	1.56542E-008	0.00000E+000	3.88500E-001	1.02359E-003	5	..........a	-327.66
	128	25.8	3.78631E-001	1.36548E-008	0.00000E+000	3.78500E-001	1.01189E-003	5	..........a	-327.66
	129	26	3.68546E-001	1.16396E-008	0.00000E+000	3.68500E-001	1.01609E-003	5	..........a	-327.66
	130	26.2	3.58465E-001	9.63263E-009	0.00000E+000	3.58500E-001	1.02459E-003	5	..........a	-327.66
	131	26.4	3.48519E-001	7.66003E-009	0.00000E+000	3.48500E-001	1.00949E-003	5	..........a	-327.66
	132	26.6	3.38620E-001	5.70078E-009	0.00000E+000	3.38500E-001	9.88092E-004	5	..........a	-327.66
	133	26.8	3.28525E-001	3.74557E-009	0.00000E+000	3.28500E-001	1.01789E-003	5	..........a	-327.66
	134	27	3.18521E-001	1.76984E-009	0.00000E+000	3.18500E-001	1.00029E-003	5	..........a	-327.66
	135	27.2	3.08535E-001	-2.24002E-010	0.00000E+000	3.08500E-001	9.99592E-004	5	..........a	-327.66
	136	27.4	2.98640E-001	-2.16139E-009	0.00000E+000	2.98500E-001	9.90092E-004	5	..........a	-327.66
	137	27.6	2.88557E-001	-4.10991E-009	0.00000E+000	2.88500E-001	1.00949E-003	5	..........a	-327.66
	138	27.8	2.78525E-001	-6.03866E-009	0.00000E+000	2.78500E-001	1.00869E-003	5	..........a	-327.66
	139	28	2.68559E-001	-7.98913E-009	0.00000E+000	2.68500E-001	1.00869E-003	5	..........a	-327.66
	140	28.2	2.58620E-001	-9.91587E-009	0.00000E+000	2.58500E-001	1.02699E-003	5	..........a	-327.66
	141	28.4	2.48529E-001	-1.18806E-008	0.00000E+000	2.48500E-001	1.00009E-003	5	..........a	-327.66
	142	28.6	2.38557E-001	-1.38321E-008	0.00000E+000	2.38500E-001	1.03499E-003	5	..........a	-327.66
	143	28.8	2.28526E-001	-1.57982E-008	0.00000E+000	2.28500E-001	1.01439E-003	5	..........a	-327.66
	144	29	2.18665E-001	-1.77405E-008	0.00000E+000	2.18500E-001	1.02749E-003	5	..........a	-327.66
	145	29.2	2.08566E-001	-1.97292E-008	0.00000E+000	2.08500E-001	9.98792E-004	5	..........a	-327.66
	146	29.4	1.98555E-001	-2.17102E-008	0.00000E+000	1.98500E-001	1.00429E-003	5	..........a	-327.66
	147	29.6	1.88594E-001	-2.36783E-008	0.00000E+000	1.88500E-001	1.01309E-003	5	..........a	-327.66
	148	29.8	1.78693E-001	-2.56514E-008	0.00000E+000	1.78500E-001	1.02099E-003	5	..........a	-327.66
	149	30	1.68505E-001	-2.76159E-008	0.00000E+000	1.68500E-001	1.01019E-003	5	..........a	-327.66
	150	30.2	1.58577E-001	-2.95766E-008	0.00000E+000	1.58500E-001	1.00199E-003	5	..........a	-327.66
	151	30.4	1.48597E-001	-3.16722E-008	0.00000E+000	1.48500E-001	1.01109E-003	5	..........a	-327.66
	152	30.6	1.38658E-001	-3.38309E-008	0.00000E+000	1.38500E-001	9.98592E-004	5	..........a	-327.66
	153	30.8	1.28582E-001	-3.59619E-008	0.00000E+000	1.28500E-001	1.01809E-003	5	..........a	-327.66
	154	31	1.18599E-001	-3.79967E-008	0.00000E+000	1.18500E-001	1.01769E-003	5	..........a	-327.66
	155	31.2	1.08600E-001	-3.99673E-008	0.00000E+000	1.08500E-001	1.02299E-003	5	..........a	-327.66
	156	31.4	9.87086E-002	-4.18915E-008	0.00000E+000	9.85000E-002	1.01009E-003	5	..........a	-327.66
	157	31.6	8.85971E-002	-4.37799E-008	0.00000E+000	8.85000E-002	9.91292E-004	5	..........a	-327.66
	158	31.8	7.86012E-002	-4.55851E-008	0.00000E+000	7.85000E-002	1.02709E-003	5	..........a	-327.66
	159	32	6.85718E-002	-4.73895E-008	0.00000E+000	6.85000E-002	1.00599E-003	5	..........a	-327.66
	160	32.2	5.86688E-002	-4.92180E-008	0.00000E+000	5.85000E-002	9.98592E-004	5	..........a	-327.66
	161	32.4	4.86141E-002	-5.12166E-008	0.00000E+000	4.85000E-002	9.93092E-004	5	..........a	-327.66
	162	32.6	3.86247E-002	-5.33608E-008	0.00000E+000	3.85000E-002	9.99592E-004	5	..........a	-327.66
	163	32.8	2.86028E-002	-5.56658E-008	0.00000E+000	2.85000E-002	1.00999E-003	5	..........a	-327.66
	164	33	1.87011E-002	-5.79528E-008	0.00000E+000	1.85000E-002	1.01999E-003	5	..........a	-327.66
	165	33.2	8.61314E-003	-5.97602E-008	0.00000E+000	8.50000E-003	1.01339E-003	5	..........a	-327.66
	166	33.4	-1.40416E-003	-6.15362E-008	0.00000E+000	-1.50000E-003	1.00009E-003	5	..........a	-327.66
	167	33.6	-1.13728E-002	-6.32120E-008	0.00000E+000	-1.15000E-002	9.90192E-004	5	..........a	-327.66
	168	33.8	-2.13357E-002	-6.46349E-008	0.00000E+000	-2.15000E-002	1.01239E-003	5	..........a	-327.66
	169	34	-3.14097E-002	-6.61537E-008	0.00000E+000	-3.15000E-002	1.01239E-003	5	..........a	-327.66
	170	34.2	-4.13960E-002	-6.75594E-008	0.00000E+000	-4.15000E-002	9.94792E-004	5	..........a	-327.66
	171	34.4	-5.14114E-002	-6.89794E-008	0.00000E+000	-5.15000E-002	9.98192E-004	5	..........a	-327.66
	172	34.6	-6.12907E-002	-7.02414E-008	0.00000E+000	-6.15000E-002	1.02009E-003	5	..........a	-327.66
	173	34.8	-7.14013E-002	-7.16410E-008	0.00000E+000	-7.15000E-002	9.97192E-004	5	..........a	-327.66
	174	35	-8.14168E-002	-7.29947E-008	0.00000E+000	-8.15000E-002	1.01099E-003	5	..........a	-327.66
	175	35.2	-9.14076E-002	-7.44401E-008	0.00000E+000	-9.15000E-002	1.00939E-003	5	..........a	-327.66
	176	35.4	-1.01319E-001	-7.57592E-008	0.00000E+000	-1.01500E-001	1.02159E-003	5	..........a	-327.66
	177	35.6	-1.11415E-001	-7.69720E-008	0.00000E+000	-1.11500E-001	1.02309E-003	5	..........a	-327.66
	178	35.8	-1.21431E-001	-7.81975E-008	0.00000E+000	-1.21500E-001	1.01779E-003	5	..........a	-327.66
	179	36	-1.31428E-001	-7.95254E-008	0.00000E+000	-1.31500E-001	9.97892E-004	5	..........a	-327.66
	180	36.2	-1.41384E-001	-8.08405E-008	0.00000E+000	-1.41500E-001	1.01309E-003	5	..........a	-327.66
	181	36.4	-1.51413E-001	-8.21912E-008	0.00000E+000	-1.51500E-001	9.97592E-004	5	..........a	-327.66
	182	36.6	-1.61418E-001	-8.35691E-008	0.00000E+000	-1.61500E-001	1.00959E-003	5	..........a	-327.66
	183	36.8	-1.71400E-001	-8.50470E-008	0.00000E+000	-1.71500E-001	1.01729E-003	5	..........a	-327.66
	184	37	-1.81298E-001	-8.64296E-008	0.00000E+000	-1.81500E-001	1.01439E-003	5	..........a	-327.66
	185	37.2	-1.91414E-001	-8.80087E-008	0.00000E+000	-1.91500E-001	1.02199E-003	5	..........a	-327.66
	186	37.4	-2.01412E-001	-8.95775E-008	0.00000E+000	-2.01500E-001	1.00759E-003	5	..........a	-327.66
	187	37.6	-2.11370E-001	-9.12096E-008	0.00000E+000	-2.11500E-001	1.03209E-003	5	..........a	-327.66
	188	37.8	-2.21314E-001	-9.27815E-008	0.00000E+000	-2.21500E-001	1.01239E-003	5	..........a	-327.66
	189	38	-2.31366E-001	-9.43339E-008	0.00000E+000	-2.31500E-001	9.88392E-004	5	..........a	-327.66
	190	38.2	-2.41292E-001	-9.58301E-008	0.00000E+000	-2.41500E-001	1.01839E-003	5	..........a	-327.66
	191	38.4	-2.51370E-001	-9.74614E-008	0.00000E+000	-2.51500E-001	9.92892E-004	5	..........a	-327.66
	192	38.6	-2.61254E-001	-9.92100E-008	0.00000E+000	-2.61500E-001	1.02289E-003	5	..........a	-327.66
	193	38.8	-2.71361E-001	-1.01041E-007	0.00000E+000	-2.71500E-001	1.00689E-003	5	..........a	-327.66
	194	39	-2.81355E-001	-1.03001E-007	0.00000E+000	-2.81500E-001	1.01869E-003	5	..........a	-327.66
	195	39.2	-2.91334E-001	-1.05006E-007	0.00000E+000	-2.91500E-001	1.00689E-003	5	..........a	-327.66
	196	39.4	-3.01286E-001	-1.07171E-007	0.00000E+000	-3.01500E-001	1.00589E-003	5	..........a	-327.66
	197	39.6	-3.11355E-001	-1.09495E-007	0.00000E+000	-3.11500E-001	1.00069E-003	5	..........a	-327.66
	198	39.8	-3.21328E-001	-1.11704E-007	0.00000E+000	-3.21500E-001	1.01889E-003	5	..........a	-327.66
	199	40	-3.31371E-001	-1.14216E-007	0.00000E+000	-3.31500E-001	1.02399E-003	5	..........a	-327.66
	200	40.2	-3.41255E-001	-1.16622E-007	0.00000E+000	-3.41500E-001	9.92892E-004	5	..........a	-327.66
	201	40.4	-3.51361E-001	-1.19199E-007	0.00000E+000	-3.51500E-001	9.98192E-004	5	..........a	-327.66
	202	40.6	-3.61348E-001	-1.21918E-007	0.00000E+000	-3.61500E-001	1.03489E-003	5	..........a	-327.66
	203	40.8	-3.71356E-001	-1.24704E-007	0.00000E+000	-3.71500E-001	9.86192E-004	5	..........a	-327.66
	204	41	-3.81256E-001	-1.27740E-007	0.00000E+000	-3.81500E-001	9.94692E-004	5	..........a	-327.66
	205	41.2	-3.91342E-001	-1.30513E-007	0.00000E+000	-3.91500E-001	9.98992E-004	5	..........a	-327.66
	206	41.4	-4.01335E-001	-1.33459E-007	0.00000E+000	-4.01500E-001	1.02549E-003	5	..........a	-327.66
	207	41.6	-4.11329E-001	-1.36494E-007	0.00000E+000	-4.11500E-001	1.01339E-003	5	..........a	-327.66
	208	41.8	-4.21238E-001	-1.39598E-007	0.00000E+000	-4.21500E-001	1.01089E-003	5	..........a	-327.66
	209	42	-4.31316E-001	-1.42815E-007	0.00000E+000	-4.31500E-001	1.01279E-003	5	..........a	-327.66
	210	42.2	-4.41335E-001	-1.46049E-007	0.00000E+000	-4.41500E-001	1.02749E-003	5	..........a	-327.66
	211	42.4	-4.51323E-001	-1.49292E-007	0.00000E+000	-4.51500E-001	1.01279E-003	5	..........a	-327.66
	212	42.6	-4.61227E-001	-1.52674E-007	0.00000E+000	-4.61500E-001	1.01949E-003	5	..........a	-327.66
	213	42.8	-4.71352E-001	-1.56083E-007	0.00000E+000	-4.71500E-001	9.83492E-004	5	..........a	-327.66
	214	43	-4.81316E-001	-1.59486E-007	0.00000E+000	-4.81500E-001	1.01569E-003	5	..........a	-327.66
	215	43.2	-4.91317E-001	-1.62818E-007	0.00000E+000	-4.91500E-001	9.97392E-004	5	..........a	-327.66
	216	43.4	-5.01255E-001	-1.66287E-007	0.00000E+000	-5.01500E-001	1.01599E-003	5	..........a	-327.66
	217	43.6	-5.11326E-001	-1.69742E-007	0.00000E+000	-5.11500E-001	1.01739E-003	5	..........a	-327.66
	218	43.8	-5.21258E-001	-1.73252E-007	0.00000E+000	-5.21500E-001	1.00719E-003	5	..........a	-327.66
	219	44	-5.31313E-001	-1.76691E-007	0.00000E+000	-5.31500E-001	1.02569E-003	5	..........a	-327.66
	220	44.2	-5.41228E-001	-1.80142E-007	0.00000E+000	-5.41500E-001	1.01479E-003	5	..........a	-327.66
	221	44.4	-5.51310E-001	-1.83638E-007	0.00000E+000	-5.51500E-001	1.01449E-003	5	..........a	-327.66
	222	44.6	-5.61318E-001	-1.87108E-007	0.00000E+000	-5.61500E-001	1.02139E-003	5	..........a	-327.66
	223	44.8	-5.71309E-001	-1.90585E-007	0.00000E+000	-5.71500E-001	9.98592E-004	5	..........a	-327.66
	224	45	-5.81229E-001	-1.94062E-007	0.00000E+000	-5.81500E-001	1.02509E-003	5	..........a	-327.66
	225	45.2	-5.91291E-001	-1.97670E-007	0.00000E+000	-5.91500E-001	1.01029E-003	5	..........a	-327.66
	226	45.4	-6.01299E-001	-2.01078E-007	0.00000E+000	-6.01500E-001	1.02429E-003	5	..........a	-327.66
CURVE2	TABLE
	Pt	T	Vf	Im	Vu	Sig	Ach	IERange	Over	Temp
	#	s	V vs. Ref.	A	V	V	V	#	bits	deg C
	227	45.6	-5.89807E-001	-1.72438E-007	0.00000E+000	-5.90000E-001	9.89192E-004	5	..........a	-327.66
	228	45.8	-5.79749E-001	-1.55146E-007	0.00000E+000	-5.80000E-001	1.00979E-003	5	..........a	-327.66
	229	46	-5.69829E-001	-1.41183E-007	0.00000E+000	-5.70000E-001	1.00609E-003	5	..........a	-327.66
	230	46.2	-5.59840E-001	-1.29338E-007	0.00000E+000	-5.60000E-001	1.00399E-003	5	..........a	-327.66
	231	46.4	-5.49837E-001	-1.19057E-007	0.00000E+000	-5.50000E-001	1.00399E-003	5	..........a	-327.66
	232	46.6	-5.39737E-001	-1.09963E-007	0.00000E+000	-5.40000E-001	1.00229E-003	5	..........a	-327.66
	233	46.8	-5.29819E-001	-1.01754E-007	0.00000E+000	-5.30000E-001	9.96092E-004	5	..........a	-327.66
	234	47	-5.19877E-001	-9.43139E-008	0.00000E+000	-5.20000E-001	1.00139E-003	5	..........a	-327.66
	235	47.2	-5.09833E-001	-8.74910E-008	0.00000E+000	-5.10000E-001	9.96392E-004	5	..........a	-327.66
	236	47.4	-4.99804E-001	-8.11608E-008	0.00000E+000	-5.00000E-001	9.96292E-004	5	..........a	-327.66
	237	47.6	-4.89829E-001	-7.53310E-008	0.00000E+000	-4.90000E-001	1.02929E-003	5	..........a	-327.66
	238	47.8	-4.79846E-001	-6.99314E-008	0.00000E+000	-4.80000E-001	1.00809E-003	5	..........a	-327.66
	239	48	-4.69835E-001	-6.48752E-008	0.00000E+000	-4.70000E-001	1.00649E-003	5	..........a	-327.66
	240	48.2	-4.59786E-001	-6.01345E-008	0.00000E+000	-4.60000E-001	1.00269E-003	5	..........a	-327.66
	241	48.4	-4.49833E-001	-5.56647E-008	0.00000E+000	-4.50000E-001	1.01489E-003	5	..........a	-327.66
	242	48.6	-4.39841E-001	-5.14124E-008	0.00000E+000	-4.40000E-001	1.02409E-003	5	..........a	-327.66
	243	48.8	-4.29860E-001	-4.74389E-008	0.00000E+000	-4.30000E-001	1.02409E-003	5	..........a	-327.66
	244	49	-4.19768E-001	-4.36504E-008	0.00000E+000	-4.20000E-001	1.01239E-003	5	..........a	-327.66
	245	49.2	-4.09859E-001	-3.99844E-008	0.00000E+000	-4.10000E-001	1.00599E-003	5	..........a	-327.66
	246	49.4	-3.99858E-001	-3.65338E-008	0.00000E+000	-4.00000E-001	1.01519E-003	5	..........a	-327.66
	247	49.6	-3.89919E-001	-3.32550E-008	0.00000E+000	-3.90000E-001	1.01809E-003	5	..........a	-327.66
	248	49.8	-3.79829E-001	-3.01107E-008	0.00000E+000	-3.80000E-001	9.86892E-004	5	..........a	-327.66
	249	50	-3.69865E-001	-2.70856E-008	0.00000E+000	-3.70000E-001	9.97392E-004	5	..........a	-327.66
	250	50.2	-3.59890E-001	-2.41857E-008	0.00000E+000	-3.60000E-001	1.02149E-003	5	..........a	-327.66
	251	50.4	-3.49876E-001	-2.13637E-008	0.00000E+000	-3.50000E-001	1.00079E-003	5	..........a	-327.66
	252	50.6	-3.39797E-001	-1.86800E-008	0.00000E+000	-3.40000E-001	1.00959E-003	5	..........a	-327.66
	253	50.8	-3.29892E-001	-1.60487E-008	0.00000E+000	-3.30000E-001	1.00589E-003	5	..........a	-327.66
	254	51	-3.19863E-001	-1.35300E-008	0.00000E+000	-3.20000E-001	1.01919E-003	5	..........a	-327.66
	255	51.2	-3.09909E-001	-1.10564E-008	0.00000E+000	-3.10000E-001	1.02959E-003	5	..........a	-327.66
	256	51.4	-2.99841E-001	-8.70428E-009	0.00000E+000	-3.00000E-001	9.86092E-004	5	..........a	-327.66
	257	51.6	-2.89903E-001	-6.35897E-009	0.00000E+000	-2.90000E-001	1.00719E-003	5	..........a	-327.66
	258	51.8	-2.79872E-001	-4.07676E-009	0.00000E+000	-2.80000E-001	9.83792E-004	5	..........a	-327.66
	259	52	-2.69884E-001	-1.85666E-009	0.00000E+000	-2.70000E-001	9.89992E-004	5	..........a	-327.66
	260	52.2	-2.59821E-001	3.34459E-010	0.00000E+000	-2.60000E-001	1.01309E-003	5	..........a	-327.66
	261	52.4	-2.49921E-001	2.47800E-009	0.00000E+000	-2.50000E-001	1.01569E-003	5	..........a	-327.66
	262	52.6	-2.39947E-001	4.60742E-009	0.00000E+000	-2.40000E-001	1.01539E-003	5	..........a	-327.66
	263	52.8	-2.29957E-001	6.67416E-009	0.00000E+000	-2.30000E-001	1.01669E-003	5	..........a	-327.66
	264	53	-2.19890E-001	8.73423E-009	0.00000E+000	-2.20000E-001	1.00129E-003	5	..........a	-327.66
	265	53.2	-2.09919E-001	1.07759E-008	0.00000E+000	-2.10000E-001	1.01089E-003	5	..........a	-327.66
	266	53.4	-1.99993E-001	1.28094E-008	0.00000E+000	-2.00000E-001	1.01539E-003	5	..........a	-327.66
	267	53.6	-1.89998E-001	1.47994E-008	0.00000E+000	-1.90000E-001	1.01459E-003	5	..........a	-327.66
	268	53.8	-1.79913E-001	1.68093E-008	0.00000E+000	-1.80000E-001	1.01209E-003	5	..........a	-327.66
	269	54	-1.69917E-001	1.87756E-008	0.00000E+000	-1.70000E-001	1.01919E-003	5	..........a	-327.66
	270	54.2	-1.60000E-001	2.07666E-008	0.00000E+000	-1.60000E-001	1.01809E-003	5	..........a	-327.66
	271	54.4	-1.49991E-001	2.27927E-008	0.00000E+000	-1.50000E-001	1.00489E-003	5	..........a	-327.66
	272	54.6	-1.39888E-001	2.47791E-008	0.00000E+000	-1.40000E-001	1.02499E-003	5	..........a	-327.66
	273	54.8	-1.29960E-001	2.67739E-008	0.00000E+000	-1.30000E-001	1.01859E-003	5	..........a	-327.66
	274	55	-1.19977E-001	2.88108E-008	0.00000E+000	-1.20000E-001	1.02489E-003	5	..........a	-327.66
	275	55.2	-1.09980E-001	3.08591E-008	0.00000E+000	-1.10000E-001	1.01759E-003	5	..........a	-327.66
	276	55.4	-9.99180E-002	3.29239E-008	0.00000E+000	-1.00000E-001	1.00429E-003	5	..........a	-327.66
	277	55.6	-8.99050E-002	3.50192E-008	0.00000E+000	-9.00000E-002	1.01269E-003	5	..........a	-327.66
	278	55.8	-7.99755E-002	3.71450E-008	0.00000E+000	-8.00000E-002	1.02029E-003	5	..........a	-327.66
	279	56	-6.99543E-002	3.92971E-008	0.00000E+000	-7.00000E-002	1.02879E-003	5	..........a	-327.66
	280	56.2	-5.98904E-002	4.15149E-008	0.00000E+000	-6.00000E-002	1.01169E-003	5	..........a	-327.66
	281	56.4	-4.99536E-002	4.37774E-008	0.00000E+000	-5.00000E-002	1.01249E-003	5	..........a	-327.66
	282	56.6	-3.99342E-002	4.60695E-008	0.00000E+000	-4.00000E-002	1.00779E-003	5	..........a	-327.66
	283	56.8	-2.99824E-002	4.84071E-008	0.00000E+000	-3.00000E-002	1.01359E-003	5	..........a	-327.66
	284	57	-1.99455E-002	5.07941E-008	0.00000E+000	-2.00000E-002	1.00939E-003	5	..........a	-327.66
	285	57.2	-9.92166E-003	5.32657E-008	0.00000E+000	-1.00000E-002	1.00649E-003	5	..........a	-327.66
	286	57.4	-1.01583E-005	5.58238E-008	0.00000E+000	7.45058E-009	1.01439E-003	5	..........a	-327.66
	287	57.6	1.00684E-002	5.84057E-008	0.00000E+000	1.00000E-002	1.00129E-003	5	..........a	-327.66
	288	57.8	2.01290E-002	6.11087E-008	0.00000E+000	2.00000E-002	9.94692E-004	5	..........a	-327.66
	289	58	2.99977E-002	6.38106E-008	0.00000E+000	3.00000E-002	1.01649E-003	5	..........a	-327.66
	290	58.2	4.00221E-002	6.66535E-008	0.00000E+000	4.00000E-002	1.00809E-003	5	..........a	-327.66
	291	58.4	5.00025E-002	6.92073E-008	0.00000E+000	5.00000E-002	1.01739E-003	5	..........a	-327.66
	292	58.6	6.00720E-002	7.17427E-008	0.00000E+000	6.00000E-002	9.99692E-004	5	..........a	-327.66
	293	58.8	6.99834E-002	7.44987E-008	0.00000E+000	7.00000E-002	1.00119E-003	5	..........a	-327.66
	294	59	8.00120E-002	7.72768E-008	0.00000E+000	8.00000E-002	1.00029E-003	5	..........a	-327.66
	295	59.2	9.00317E-002	8.01426E-008	0.00000E+000	9.00000E-002	1.01789E-003	5	..........a	-327.66
	296	59.4	1.00063E-001	8.29957E-008	0.00000E+000	1.00000E-001	1.01929E-003	5	..........a	-327.66
	297	59.6	1.10036E-001	8.58944E-008	0.00000E+000	1.10000E-001	9.93492E-004	5	..........a	-327.66
	298	59.8	1.19968E-001	8.86831E-008	0.00000E+000	1.20000E-001	1.01459E-003	5	..........a	-327.66
	299	60	1.29994E-001	9.13396E-008	0.00000E+000	1.30000E-001	1.01819E-003	5	..........a	-327.66
	300	60.2	1.40063E-001	9.41051E-008	0.00000E+000	1.40000E-001	9.93092E-004	5	..........a	-327.66
	301	60.4	1.50022E-001	9.69271E-008	0.00000E+000	1.50000E-001	1.02169E-003	5	..........a	-327.66
	302	60.6	1.59986E-001	9.96897E-008	0.00000E+000	1.60000E-001	1.02149E-003	5	..........a	-327.66
	303	60.8	1.70021E-001	1.02470E-007	0.00000E+000	1.70000E-001	1.02509E-003	5	..........a	-327.66
	304	61	1.80015E-001	1.05213E-007	0.00000E+000	1.80000E-001	1.00199E-003	5	..........a	-327.66
	305	61.2	1.90076E-001	1.08049E-007	0.00000E+000	1.90000E-001	1.02019E-003	5	..........a	-327.66
	306	61.4	1.99971E-001	1.10632E-007	0.00000E+000	2.00000E-001	1.01979E-003	5	..........a	-327.66
	307	61.6	2.09972E-001	1.13201E-007	0.00000E+000	2.10000E-001	1.02129E-003	5	..........a	-327.66
	308	61.8	2.19989E-001	1.15870E-007	0.00000E+000	2.20000E-001	9.91392E-004	5	..........a	-327.66
	309	62	2.29996E-001	1.18532E-007	0.00000E+000	2.30000E-001	1.01249E-003	5	..........a	-327.66
	310	62.2	2.39977E-001	1.20967E-007	0.00000E+000	2.40000E-001	1.01439E-003	5	..........a	-327.66
	311	62.4	2.49941E-001	1.23365E-007	0.00000E+000	2.50000E-001	1.00449E-003	5	..........a	-327.66
	312	62.6	2.59973E-001	1.25862E-007	0.00000E+000	2.60000E-001	1.00299E-003	5	..........a	-327.66
	313	62.8	2.70038E-001	1.28031E-007	0.00000E+000	2.70000E-001	1.02579E-003	5	..........a	-327.66
	314	63	2.79924E-001	1.29831E-007	0.00000E+000	2.80000E-001	1.01359E-003	5	..........a	-327.66
	315	63.2	2.89951E-001	1.31500E-007	0.00000E+000	2.90000E-001	1.01929E-003	5	..........a	-327.66
	316	63.4	2.99988E-001	1.32904E-007	0.00000E+000	3.00000E-001	1.00529E-003	5	..........a	-327.66
	317	63.6	3.09993E-001	1.34164E-007	0.00000E+000	3.10000E-001	1.00899E-003	5	..........a	-327.66
	318	63.8	3.19974E-001	1.35219E-007	0.00000E+000	3.20000E-001	1.03289E-003	5	..........a	-327.66
	319	64	3.29934E-001	1.36856E-007	0.00000E+000	3.30000E-001	1.01699E-003	5	..........a	-327.66
	320	64.2	3.40005E-001	1.37931E-007	0.00000E+000	3.40000E-001	1.02339E-003	5	..........a	-327.66
	321	64.4	3.49988E-001	1.37931E-007	0.00000E+000	3.50000E-001	1.03469E-003	5	..........a	-327.66
	322	64.6	3.59954E-001	1.39034E-007	0.00000E+000	3.60000E-001	1.02579E-003	5	..........a	-327.66
	323	64.8	3.69984E-001	1.40070E-007	0.00000E+000	3.70000E-001	1.02019E-003	5	..........a	-327.66
	324	65	3.79988E-001	1.41434E-007	0.00000E+000	3.80000E-001	9.98892E-004	5	..........a	-327.66
	325	65.2	3.90006E-001	1.42941E-007	0.00000E+000	3.90000E-001	1.01829E-003	5	..........a	-327.66
	326	65.4	3.99951E-001	1.44698E-007	0.00000E+000	4.00000E-001	1.00509E-003	5	..........a	-327.66
	327	65.6	4.09917E-001	1.46230E-007	0.00000E+000	4.10000E-001	1.00569E-003	5	..........a	-327.66
	328	65.8	4.19944E-001	1.47857E-007	0.00000E+000	4.20000E-001	1.00299E-003	5	..........a	-327.66
	329	66	4.29965E-001	1.49367E-007	0.00000E+000	4.30000E-001	1.02109E-003	5	..........a	-327.66
	330	66.2	4.39910E-001	1.50781E-007	0.00000E+000	4.40000E-001	1.02429E-003	5	..........a	-327.66
	331	66.4	4.49964E-001	1.52168E-007	0.00000E+000	4.50000E-001	1.00439E-003	5	..........a	-327.66
	332	66.6	4.59938E-001	1.54195E-007	0.00000E+000	4.60000E-001	1.00289E-003	5	..........a	-327.66
	333	66.8	4.69991E-001	1.55010E-007	0.00000E+000	4.70000E-001	1.01829E-003	5	..........a	-327.66
	334	67	4.79896E-001	1.56402E-007	0.00000E+000	4.80000E-001	1.01739E-003	5	..........a	-327.66
	335	67.2	4.89922E-001	1.57980E-007	0.00000E+000	4.90000E-001	1.00719E-003	5	..........a	-327.66
	336	67.4	4.99957E-001	1.59641E-007	0.00000E+000	5.00000E-001	9.92892E-004	5	..........a	-327.66
	337	67.6	5.09967E-001	1.60841E-007	0.00000E+000	5.10000E-001	1.02209E-003	5	..........a	-327.66
	338	67.8	5.19919E-001	1.62457E-007	0.00000E+000	5.20000E-001	1.01489E-003	5	..........a	-327.66
	339	68	5.29896E-001	1.64221E-007	0.00000E+000	5.30000E-001	1.02129E-003	5	..........a	-327.66
	340	68.2	5.39930E-001	1.66306E-007	0.00000E+000	5.40000E-001	9.96192E-004	5	..........a	-327.66
	341	68.4	5.49977E-001	1.67895E-007	0.00000E+000	5.50000E-001	9.95992E-004	5	..........a	-327.66
	342	68.6	5.59907E-001	1.69470E-007	0.00000E+000	5.60000E-001	1.01949E-003	5	..........a	-327.66
	343	68.8	5.69890E-001	1.71072E-007	0.00000E+000	5.70000E-001	1.02119E-003	5	..........a	-327.66
	344	69	5.79933E-001	1.72831E-007	0.00000E+000	5.80000E-001	9.95892E-004	5	..........a	-327.66
	345	69.2	5.89979E-001	1.74072E-007	0.00000E+000	5.90000E-001	1.01809E-003	5	..........a	-327.66
	346	69.4	5.99911E-001	1.75733E-007	0.00000E+000	6.00000E-001	1.01939E-003	5	..........a	-327.66
	347	69.6	6.09889E-001	1.77424E-007	0.00000E+000	6.10000E-001	1.01329E-003	5	..........a	-327.66
	348	69.8	6.19883E-001	1.79628E-007	0.00000E+000	6.20000E-001	1.00589E-003	5	..........a	-327.66
	349	70	6.29989E-001	1.80865E-007	0.00000E+000	6.30000E-001	1.00959E-003	5	..........a	-327.66
	350	70.2	6.39854E-001	1.82736E-007	0.00000E+000	6.40000E-001	1.03479E-003	5	..........a	-327.66
	351	70.4	6.49883E-001	1.84772E-007	0.00000E+000	6.50000E-001	1.01639E-003	5	..........a	-327.66
	352	70.6	6.59887E-001	1.86793E-007	0.00000E+000	6.60000E-001	1.01439E-003	5	..........a	-327.66
	353	70.8	6.69948E-001	1.88800E-007	0.00000E+000	6.70000E-001	1.01359E-003	5	..........a	-327.66
	354	71	6.79853E-001	1.90823E-007	0.00000E+000	6.80000E-001	1.00279E-003	5	..........a	-327.66
[...]
	922	184.6	7.59873E-001	2.09460E-007	0.00000E+000	7.60000E-001	1.01439E-003	5	..........a	-327.66
	923	184.8	7.69861E-001	2.11928E-007	0.00000E+000	7.70000E-001	1.01979E-003	5	..........a	-327.66
	924	185	7.79860E-001	2.14429E-007	0.00000E+000	7.80000E-001	9.81692E-004	5	..........a	-327.66
	925	185.2	7.89952E-001	2.16947E-007	0.00000E+000	7.90000E-001	1.03319E-003	5	..........a	-327.66
	926	185.4	7.99854E-001	2.19562E-007	0.00000E+000	8.00000E-001	1.01429E-003	5	..........a	-327.66
	927	185.6	7.89968E-001	1.91608E-007	0.00000E+000	7.90000E-001	1.03249E-003	5	..........a	-327.66
	928	185.8	7.79890E-001	1.72795E-007	0.00000E+000	7.80000E-001	1.01449E-003	5	..........a	-327.66
	929	186	7.69913E-001	1.58161E-007	0.00000E+000	7.70000E-001	1.01379E-003	5	..........a	-327.66
	930	186.2	7.59872E-001	1.46197E-007	0.00000E+000	7.60000E-001	1.01509E-003	5	..........a	-327.66
	931	186.4	7.49970E-001	1.36085E-007	0.00000E+000	7.50000E-001	1.01599E-003	5	..........a	-327.66
	932	186.6	7.39924E-001	1.27303E-007	0.00000E+000	7.40000E-001	1.01019E-003	5	..........a	-327.66
	933	186.8	7.29933E-001	1.19592E-007	0.00000E+000	7.30000E-001	1.01449E-003	5	..........a	-327.66
	934	187	7.19908E-001	1.12751E-007	0.00000E+000	7.20000E-001	1.00879E-003	5	..........a	-327.66
	935	187.2	7.09967E-001	1.06613E-007	0.00000E+000	7.10000E-001	1.01829E-003	5	..........a	-327.66
	936	187.4	6.99923E-001	1.01022E-007	0.00000E+000	7.00000E-001	1.02289E-003	5	..........a	-327.66
	937	187.6	6.89902E-001	9.59196E-008	0.00000E+000	6.90000E-001	1.02669E-003	5	..........a	-327.66
	938	187.8	6.79949E-001	9.12221E-008	0.00000E+000	6.80000E-001	1.02399E-003	5	..........a	-327.66
	939	188	6.69978E-001	8.68671E-008	0.00000E+000	6.70000E-001	1.02369E-003	5	..........a	-327.66
	940	188.2	6.59969E-001	8.27936E-008	0.00000E+000	6.60000E-001	9.98492E-004	5	..........a	-327.66
	941	188.4	6.49949E-001	7.89896E-008	0.00000E+000	6.50000E-001	1.01739E-003	5	..........a	-327.66
	942	188.6	6.39904E-001	7.54133E-008	0.00000E+000	6.40000E-001	1.02619E-003	5	..........a	-327.66
	943	188.8	6.30037E-001	7.20156E-008	0.00000E+000	6.30000E-001	1.00649E-003	5	..........a	-327.66
	944	189	6.19946E-001	6.87872E-008	0.00000E+000	6.20000E-001	1.00649E-003	5	..........a	-327.66
	945	189.2	6.09965E-001	6.56969E-008	0.00000E+000	6.10000E-001	1.00959E-003	5	..........a	-327.66
	946	189.4	5.99981E-001	6.27469E-008	0.00000E+000	6.00000E-001	1.01049E-003	5	..........a	-327.66
	947	189.6	5.89997E-001	5.98740E-008	0.00000E+000	5.90000E-001	1.00899E-003	5	..........a	-327.66
	948	189.8	5.80023E-001	5.71195E-008	0.00000E+000	5.80000E-001	1.00719E-003	5	..........a	-327.66
	949	190	5.69952E-001	5.44611E-008	0.00000E+000	5.70000E-001	1.00689E-003	5	..........a	-327.66
	950	190.2	5.59948E-001	5.18931E-008	0.00000E+000	5.60000E-001	1.02349E-003	5	..........a	-327.66
	951	190.4	5.50027E-001	4.93427E-008	0.00000E+000	5.50000E-001	1.00989E-003	5	..........a	-327.66
	952	190.6	5.40018E-001	4.68891E-008	0.00000E+000	5.40000E-001	1.01029E-003	5	..........a	-327.66
	953	190.8	5.29936E-001	4.44752E-008	0.00000E+000	5.30000E-001	1.03779E-003	5	..........a	-327.66
	954	191	5.19983E-001	4.21180E-008	0.00000E+000	5.20000E-001	1.00189E-003	5	..........a	-327.66
	955	191.2	5.09981E-001	3.97636E-008	0.00000E+000	5.10000E-001	1.01989E-003	5	..........a	-327.66
	956	191.4	5.00057E-001	3.74870E-008	0.00000E+000	5.00000E-001	1.01189E-003	5	..........a	-327.66
	957	191.6	4.89969E-001	3.52352E-008	0.00000E+000	4.90000E-001	1.00769E-003	5	..........a	-327.66
	958	191.8	4.79919E-001	3.30231E-008	0.00000E+000	4.80000E-001	1.03899E-003	5	..........a	-327.66
	959	192	4.70037E-001	3.08338E-008	0.00000E+000	4.70000E-001	1.01789E-003	5	..........a	-327.66
	960	192.2	4.60014E-001	2.86908E-008	0.00000E+000	4.60000E-001	1.02759E-003	5	..........a	-327.66
	961	192.4	4.49820E-001	2.65526E-008	0.00000E+000	4.50000E-001	1.00729E-003	5	..........a	-327.66
	962	192.6	4.39953E-001	2.44495E-008	0.00000E+000	4.40000E-001	1.04219E-003	5	..........a	-327.66
	963	192.8	4.29967E-001	2.23778E-008	0.00000E+000	4.30000E-001	1.03489E-003	5	..........a	-327.66
	964	193	4.20028E-001	2.03009E-008	0.00000E+000	4.20000E-001	1.00659E-003	5	..........a	-327.66
	965	193.2	4.09968E-001	1.82568E-008	0.00000E+000	4.10000E-001	1.02729E-003	5	..........a	-327.66
	966	193.4	4.00004E-001	1.62380E-008	0.00000E+000	4.00000E-001	1.00819E-003	5	..........a	-327.66
	967	193.6	3.90023E-001	1.42384E-008	0.00000E+000	3.90000E-001	1.01639E-003	5	..........a	-327.66
	968	193.8	3.80110E-001	1.22547E-008	0.00000E+000	3.80000E-001	9.90592E-004	5	..........a	-327.66
	969	194	3.70053E-001	1.02532E-008	0.00000E+000	3.70000E-001	1.00179E-003	5	..........a	-327.66
	970	194.2	3.59973E-001	8.30171E-009	0.00000E+000	3.60000E-001	1.00259E-003	5	..........a	-327.66
	971	194.4	3.49998E-001	6.33176E-009	0.00000E+000	3.50000E-001	1.02589E-003	5	..........a	-327.66
	972	194.6	3.40079E-001	4.38228E-009	0.00000E+000	3.40000E-001	1.01409E-003	5	..........a	-327.66
	973	194.8	3.29985E-001	2.44081E-009	0.00000E+000	3.30000E-001	1.02329E-003	5	..........a	-327.66
	974	195	3.20037E-001	5.06925E-010	0.00000E+000	3.20000E-001	1.00569E-003	5	..........a	-327.66
	975	195.2	3.10015E-001	-1.41721E-009	0.00000E+000	3.10000E-001	1.01409E-003	5	..........a	-327.66
	976	195.4	3.00087E-001	-3.33370E-009	0.00000E+000	3.00000E-001	9.99392E-004	5	..........a	-327.66
	977	195.6	2.90065E-001	-5.25053E-009	0.00000E+000	2.90000E-001	1.01889E-003	5	..........a	-327.66
	978	195.8	2.79991E-001	-7.15544E-009	0.00000E+000	2.80000E-001	1.01109E-003	5	..........a	-327.66
	979	196	2.70078E-001	-9.07614E-009	0.00000E+000	2.70000E-001	1.00449E-003	5	..........a	-327.66
	980	196.2	2.60070E-001	-1.10154E-008	0.00000E+000	2.60000E-001	9.89992E-004	5	..........a	-327.66
	981	196.4	2.50024E-001	-1.29427E-008	0.00000E+000	2.50000E-001	1.00879E-003	5	..........a	-327.66
	982	196.6	2.40079E-001	-1.48574E-008	0.00000E+000	2.40000E-001	1.00969E-003	5	..........a	-327.66
	983	196.8	2.30002E-001	-1.68367E-008	0.00000E+000	2.30000E-001	1.01549E-003	5	..........a	-327.66
	984	197	2.20059E-001	-1.87918E-008	0.00000E+000	2.20000E-001	1.00179E-003	5	..........a	-327.66
	985	197.2	2.10038E-001	-2.07790E-008	0.00000E+000	2.10000E-001	1.02669E-003	5	..........a	-327.66
	986	197.4	2.00063E-001	-2.27628E-008	0.00000E+000	2.00000E-001	9.99792E-004	5	..........a	-327.66
	987	197.6	1.90135E-001	-2.48024E-008	0.00000E+000	1.90000E-001	1.01269E-003	5	..........a	-327.66
	988	197.8	1.80137E-001	-2.69410E-008	0.00000E+000	1.80000E-001	1.00999E-003	5	..........a	-327.66
	989	198	1.70101E-001	-2.91618E-008	0.00000E+000	1.70000E-001	1.00799E-003	5	..........a	-327.66
	990	198.2	1.60077E-001	-3.13238E-008	0.00000E+000	1.60000E-001	1.01959E-003	5	..........a	-327.66
	991	198.4	1.50068E-001	-3.34513E-008	0.00000E+000	1.50000E-001	1.03089E-003	5	..........a	-327.66
	992	198.6	1.40154E-001	-3.55386E-008	0.00000E+000	1.40000E-001	9.88192E-004	5	..........a	-327.66
	993	198.8	1.30075E-001	-3.76578E-008	0.00000E+000	1.30000E-001	1.00959E-003	5	..........a	-327.66
	994	199	1.20069E-001	-3.98496E-008	0.00000E+000	1.20000E-001	1.01769E-003	5	..........a	-327.66
	995	199.2	1.10114E-001	-4.22069E-008	0.00000E+000	1.10000E-001	1.03189E-003	5	..........a	-327.66
	996	199.4	1.00179E-001	-4.49734E-008	0.00000E+000	1.00000E-001	1.00369E-003	5	..........a	-327.66
	997	199.6	9.01163E-002	-4.81119E-008	0.00000E+000	9.00000E-002	1.01259E-003	5	..........a	-327.66
	998	199.8	8.00776E-002	-5.11335E-008	0.00000E+000	8.00000E-002	1.02539E-003	5	..........a	-327.66
	999	200	7.00396E-002	-5.37230E-008	0.00000E+000	7.00000E-002	1.03829E-003	5	..........a	-327.66
	1000	200.2	6.01588E-002	-5.60916E-008	0.00000E+000	6.00000E-002	9.96092E-004	5	..........a	-327.66
	1001	200.4	5.00844E-002	-5.83179E-008	0.00000E+000	5.00000E-002	1.00929E-003	5	..........a	-327.66
	1002	200.6	4.00614E-002	-6.04414E-008	0.00000E+000	4.00000E-002	1.01389E-003	5	..........a	-327.66
	1003	200.8	3.00894E-002	-6.24344E-008	0.00000E+000	3.00000E-002	1.01099E-003	5	..........a	-327.66
	1004	201	2.02157E-002	-6.43721E-008	0.00000E+000	2.00000E-002	1.00559E-003	5	..........a	-327.66
	1005	201.2	1.01469E-002	-6.61700E-008	0.00000E+000	1.00000E-002	1.01719E-003	5	..........a	-327.66
	1006	201.4	4.68917E-005	-6.78362E-008	0.00000E+000	7.45058E-009	1.01249E-003	5	..........a	-327.66
	1007	201.6	-9.87666E-003	-6.94978E-008	0.00000E+000	-1.00000E-002	9.92392E-004	5	..........a	-327.66
	1008	201.8	-1.98493E-002	-7.12656E-008	0.00000E+000	-2.00000E-002	9.98892E-004	5	..........a	-327.66
	1009	202	-2.99184E-002	-7.29737E-008	0.00000E+000	-3.00000E-002	1.02689E-003	5	..........a	-327.66
	1010	202.2	-3.98736E-002	-7.45635E-008	0.00000E+000	-4.00000E-002	1.01039E-003	5	..........a	-327.66
	1011	202.4	-4.98688E-002	-7.61968E-008	0.00000E+000	-5.00000E-002	1.00769E-003	5	..........a	-327.66
	1012	202.6	-5.97898E-002	-7.76689E-008	0.00000E+000	-6.00000E-002	9.97392E-004	5	..........a	-327.66
	1013	202.8	-6.98792E-002	-7.90420E-008	0.00000E+000	-7.00000E-002	1.00719E-003	5	..........a	-327.66
	1014	203	-7.99231E-002	-8.04778E-008	0.00000E+000	-8.00000E-002	1.02489E-003	5	..........a	-327.66
	1015	203.2	-8.98601E-002	-8.18731E-008	0.00000E+000	-9.00000E-002	1.00349E-003	5	..........a	-327.66
	1016	203.4	-9.98408E-002	-8.32795E-008	0.00000E+000	-1.00000E-001	1.01119E-003	5	..........a	-327.66
	1017	203.6	-1.09921E-001	-8.47006E-008	0.00000E+000	-1.10000E-001	1.02429E-003	5	..........a	-327.66
	1018	203.8	-1.19858E-001	-8.60894E-008	0.00000E+000	-1.20000E-001	1.00819E-003	5	..........a	-327.66
	1019	204	-1.29893E-001	-8.75713E-008	0.00000E+000	-1.30000E-001	1.02749E-003	5	..........a	-327.66
	1020	204.2	-1.39844E-001	-8.88331E-008	0.00000E+000	-1.40000E-001	1.01859E-003	5	..........a	-327.66
	1021	204.4	-1.49907E-001	-9.01495E-008	0.00000E+000	-1.50000E-001	9.96492E-004	5	..........a	-327.66
	1022	204.6	-1.59899E-001	-9.15377E-008	0.00000E+000	-1.60000E-001	9.92592E-004	5	..........a	-327.66
	1023	204.8	-1.69857E-001	-9.28389E-008	0.00000E+000	-1.70000E-001	1.00879E-003	5	..........a	-327.66
	1024	205	-1.79823E-001	-9.42497E-008	0.00000E+000	-1.80000E-001	9.92792E-004	5	..........a	-327.66
	1025	205.2	-1.89907E-001	-9.56664E-008	0.00000E+000	-1.90000E-001	1.01899E-003	5	..........a	-327.66
	1026	205.4	-1.99884E-001	-9.69641E-008	0.00000E+000	-2.00000E-001	1.02669E-003	5	..........a	-327.66
	1027	205.6	-2.09864E-001	-9.82446E-008	0.00000E+000	-2.10000E-001	9.97592E-004	5	..........a	-327.66
	1028	205.8	-2.19820E-001	-9.95505E-008	0.00000E+000	-2.20000E-001	1.00569E-003	5	..........a	-327.66
	1029	206	-2.29881E-001	-1.00832E-007	0.00000E+000	-2.30000E-001	9.99292E-004	5	..........a	-327.66
	1030	206.2	-2.39830E-001	-1.02209E-007	0.00000E+000	-2.40000E-001	1.00139E-003	5	..........a	-327.66
	1031	206.4	-2.49851E-001	-1.03590E-007	0.00000E+000	-2.50000E-001	1.00789E-003	5	..........a	-327.66
	1032	206.6	-2.59747E-001	-1.05203E-007	0.00000E+000	-2.60000E-001	1.00619E-003	5	..........a	-327.66
	1033	206.8	-2.69833E-001	-1.06463E-007	0.00000E+000	-2.70000E-001	1.00999E-003	5	..........a	-327.66
	1034	207	-2.79849E-001	-1.07898E-007	0.00000E+000	-2.80000E-001	1.01509E-003	5	..........a	-327.66
	1035	207.2	-2.89872E-001	-1.09436E-007	0.00000E+000	-2.90000E-001	1.02919E-003	5	..........a	-327.66
	1036	207.4	-2.99797E-001	-1.11001E-007	0.00000E+000	-3.00000E-001	9.96192E-004	5	..........a	-327.66
	1037	207.6	-3.09842E-001	-1.12620E-007	0.00000E+000	-3.10000E-001	1.00569E-003	5	..........a	-327.66
	1038	207.8	-3.19825E-001	-1.14382E-007	0.00000E+000	-3.20000E-001	1.00739E-003	5	..........a	-327.66
	1039	208	-3.29856E-001	-1.16116E-007	0.00000E+000	-3.30000E-001	1.02869E-003	5	..........a	-327.66
	1040	208.2	-3.39739E-001	-1.17968E-007	0.00000E+000	-3.40000E-001	1.01629E-003	5	..........a	-327.66
	1041	208.4	-3.49838E-001	-1.19879E-007	0.00000E+000	-3.50000E-001	1.00309E-003	5	..........a	-327.66
	1042	208.6	-3.59845E-001	-1.21916E-007	0.00000E+000	-3.60000E-001	1.00759E-003	5	..........a	-327.66
	1043	208.8	-3.69816E-001	-1.24003E-007	0.00000E+000	-3.70000E-001	9.96992E-004	5	..........a	-327.66
	1044	209	-3.79762E-001	-1.26168E-007	0.00000E+000	-3.80000E-001	1.01569E-003	5	..........a	-327.66
	1045	209.2	-3.89857E-001	-1.28568E-007	0.00000E+000	-3.90000E-001	1.01219E-003	5	..........a	-327.66
	1046	209.4	-3.99830E-001	-1.30792E-007	0.00000E+000	-4.00000E-001	1.00279E-003	5	..........a	-327.66
	1047	209.6	-4.09822E-001	-1.33257E-007	0.00000E+000	-4.10000E-001	1.00219E-003	5	..........a	-327.66
	1048	209.8	-4.19704E-001	-1.35759E-007	0.00000E+000	-4.20000E-001	9.94992E-004	5	..........a	-327.66
	1049	210	-4.29811E-001	-1.38396E-007	0.00000E+000	-4.30000E-001	1.01159E-003	5	..........a	-327.66
	1050	210.2	-4.39829E-001	-1.41105E-007	0.00000E+000	-4.40000E-001	9.98992E-004	5	..........a	-327.66
	1051	210.4	-4.49811E-001	-1.43920E-007	0.00000E+000	-4.50000E-001	1.01139E-003	5	..........a	-327.66
	1052	210.6	-4.59722E-001	-1.46772E-007	0.00000E+000	-4.60000E-001	1.00439E-003	5	..........a	-327.66
	1053	210.8	-4.69796E-001	-1.49732E-007	0.00000E+000	-4.70000E-001	1.01459E-003	5	..........a	-327.66
	1054	211	-4.79797E-001	-1.52785E-007	0.00000E+000	-4.80000E-001	1.01499E-003	5	..........a	-327.66
	1055	211.2	-4.89806E-001	-1.55942E-007	0.00000E+000	-4.90000E-001	1.01369E-003	5	..........a	-327.66
	1056	211.4	-4.99757E-001	-1.59191E-007	0.00000E+000	-5.00000E-001	1.01289E-003	5	..........a	-327.66
	1057	211.6	-5.09799E-001	-1.62461E-007	0.00000E+000	-5.10000E-001	1.01389E-003	5	..........a	-327.66
	1058	211.8	-5.19809E-001	-1.65812E-007	0.00000E+000	-5.20000E-001	1.00749E-003	5	..........a	-327.66
	1059	212	-5.29804E-001	-1.69218E-007	0.00000E+000	-5.30000E-001	1.01549E-003	5	..........a	-327.66
	1060	212.2	-5.39705E-001	-1.72683E-007	0.00000E+000	-5.40000E-001	9.98392E-004	5	..........a	-327.66
	1061	212.4	-5.49804E-001	-1.76199E-007	0.00000E+000	-5.50000E-001	1.01729E-003	5	..........a	-327.66
	1062	212.6	-5.59805E-001	-1.79848E-007	0.00000E+000	-5.60000E-001	1.01139E-003	5	..........a	-327.66
	1063	212.8	-5.69786E-001	-1.83336E-007	0.00000E+000	-5.70000E-001	1.03509E-003	5	..........a	-327.66
	1064	213	-5.79728E-001	-1.86970E-007	0.00000E+000	-5.80000E-001	9.94492E-004	5	..........a	-327.66
	1065	213.2	-5.89783E-001	-1.90631E-007	0.00000E+000	-5.90000E-001	1.01979E-003	5	..........a	-327.66
	1066	213.4	-5.99793E-001	-1.94323E-007	0.00000E+000	-6.00000E-001	9.92992E-004	5	..........a	-327.66
CURVE5	TABLE
	Pt	T	Vf	Im	Vu	Sig	Ach	IERange	Over	Temp
	#	s	V vs. Ref.	A	V	V	V	#	bits	deg C
	1067	213.6	-5.89814E-001	-1.68750E-007	0.00000E+000	-5.90000E-001	1.02029E-003	5	..........a	-327.66
	1068	213.8	-5.79746E-001	-1.51458E-007	0.00000E+000	-5.80000E-001	1.01419E-003	5	..........a	-327.66
	1069	214	-5.69817E-001	-1.37834E-007	0.00000E+000	-5.70000E-001	1.02749E-003	5	..........a	-327.66
	1070	214.2	-5.59811E-001	-1.26336E-007	0.00000E+000	-5.60000E-001	1.00279E-003	5	..........a	-327.66
	1071	214.4	-5.49818E-001	-1.16388E-007	0.00000E+000	-5.50000E-001	1.01169E-003	5	..........a	-327.66
	1072	214.6	-5.39732E-001	-1.07622E-007	0.00000E+000	-5.40000E-001	1.01159E-003	5	..........a	-327.66
	1073	214.8	-5.29830E-001	-9.97188E-008	0.00000E+000	-5.30000E-001	1.01449E-003	5	..........a	-327.66
	1074	215	-5.19819E-001	-9.25522E-008	0.00000E+000	-5.20000E-001	1.00899E-003	5	..........a	-327.66
	1075	215.2	-5.09819E-001	-8.60037E-008	0.00000E+000	-5.10000E-001	1.00139E-003	5	..........a	-327.66
	1076	215.4	-4.99801E-001	-7.99301E-008	0.00000E+000	-5.00000E-001	1.00729E-003	5	..........a	-327.66
	1077	215.6	-4.89843E-001	-7.43350E-008	0.00000E+000	-4.90000E-001	1.02159E-003	5	..........a	-327.66
	1078	215.8	-4.79843E-001	-6.91257E-008	0.00000E+000	-4.80000E-001	1.02869E-003	5	..........a	-327.66
	1079	216	-4.69826E-001	-6.42300E-008	0.00000E+000	-4.70000E-001	1.00029E-003	5	..........a	-327.66
	1080	216.2	-4.59782E-001	-5.96979E-008	0.00000E+000	-4.60000E-001	9.93492E-004	5	..........a	-327.66
	1081	216.4	-4.49829E-001	-5.53229E-008	0.00000E+000	-4.50000E-001	9.97692E-004	5	..........a	-327.66
	1082	216.6	-4.39843E-001	-5.12297E-008	0.00000E+000	-4.40000E-001	1.01809E-003	5	..........a	-327.66
	1083	216.8	-4.29852E-001	-4.73515E-008	0.00000E+000	-4.30000E-001	1.01469E-003	5	..........a	-327.66
	1084	217	-4.19756E-001	-4.36617E-008	0.00000E+000	-4.20000E-001	9.89292E-004	5	..........a	-327.66
	1085	217.2	-4.09852E-001	-4.01128E-008	0.00000E+000	-4.10000E-001	1.02879E-003	5	..........a	-327.66
	1086	217.4	-3.99859E-001	-3.67678E-008	0.00000E+000	-4.00000E-001	1.01279E-003	5	..........a	-327.66
	1087	217.6	-3.89918E-001	-3.35528E-008	0.00000E+000	-3.90000E-001	1.02829E-003	5	..........a	-327.66
	1088	217.8	-3.79829E-001	-3.04640E-008	0.00000E+000	-3.80000E-001	1.01009E-003	5	..........a	-327.66
	1089	218	-3.69868E-001	-2.74978E-008	0.00000E+000	-3.70000E-001	1.03119E-003	5	..........a	-327.66
	1090	218.2	-3.59875E-001	-2.46270E-008	0.00000E+000	-3.60000E-001	1.00569E-003	5	..........a	-327.66
	1091	218.4	-3.49878E-001	-2.18609E-008	0.00000E+000	-3.50000E-001	1.01749E-003	5	..........a	-327.66
	1092	218.6	-3.39809E-001	-1.91935E-008	0.00000E+000	-3.40000E-001	1.00709E-003	5	..........a	-327.66
	1093	218.8	-3.29902E-001	-1.65861E-008	0.00000E+000	-3.30000E-001	1.00619E-003	5	..........a	-327.66
	1094	219	-3.19847E-001	-1.40620E-008	0.00000E+000	-3.20000E-001	1.01459E-003	5	..........a	-327.66
	1095	219.2	-3.09907E-001	-1.16059E-008	0.00000E+000	-3.10000E-001	1.01629E-003	5	..........a	-327.66
	1096	219.4	-2.99838E-001	-9.21930E-009	0.00000E+000	-3.00000E-001	9.93692E-004	5	..........a	-327.66
	1097	219.6	-2.89909E-001	-6.87444E-009	0.00000E+000	-2.90000E-001	1.01949E-003	5	..........a	-327.66
	1098	219.8	-2.79855E-001	-4.56411E-009	0.00000E+000	-2.80000E-001	1.00419E-003	5	..........a	-327.66
	1099	220	-2.69874E-001	-2.31985E-009	0.00000E+000	-2.70000E-001	1.00719E-003	5	..........a	-327.66
	1100	220.2	-2.59811E-001	-7.33962E-011	0.00000E+000	-2.60000E-001	1.00179E-003	5	..........a	-327.66
	1101	220.4	-2.49911E-001	2.14095E-009	0.00000E+000	-2.50000E-001	1.02769E-003	5	..........a	-327.66
	1102	220.6	-2.39943E-001	4.30255E-009	0.00000E+000	-2.40000E-001	1.00539E-003	5	..........a	-327.66
	1103	220.8	-2.29938E-001	6.41157E-009	0.00000E+000	-2.30000E-001	1.01129E-003	5	..........a	-327.66
	1104	221	-2.19888E-001	8.54337E-009	0.00000E+000	-2.20000E-001	1.01839E-003	5	..........a	-327.66
	1105	221.2	-2.09919E-001	1.06583E-008	0.00000E+000	-2.10000E-001	1.00299E-003	5	..........a	-327.66
	1106	221.4	-1.99986E-001	1.27522E-008	0.00000E+000	-2.00000E-001	1.01279E-003	5	..........a	-327.66
	1107	221.6	-1.89982E-001	1.48225E-008	0.00000E+000	-1.90000E-001	1.00029E-003	5	..........a	-327.66
	1108	221.8	-1.79910E-001	1.69363E-008	0.00000E+000	-1.80000E-001	1.00349E-003	5	..........a	-327.66
	1109	222	-1.69906E-001	1.90177E-008	0.00000E+000	-1.70000E-001	1.01679E-003	5	..........a	-327.66
	1110	222.2	-1.59995E-001	2.11150E-008	0.00000E+000	-1.60000E-001	1.01079E-003	5	..........a	-327.66
	1111	222.4	-1.49994E-001	2.32297E-008	0.00000E+000	-1.50000E-001	1.02469E-003	5	..........a	-327.66
	1112	222.6	-1.39898E-001	2.53381E-008	0.00000E+000	-1.40000E-001	1.01279E-003	5	..........a	-327.66
	1113	222.8	-1.29975E-001	2.74678E-008	0.00000E+000	-1.30000E-001	1.03089E-003	5	..........a	-327.66
	1114	223	-1.19961E-001	2.96284E-008	0.00000E+000	-1.20000E-001	1.02119E-003	5	..........a	-327.66
	1115	223.2	-1.09969E-001	3.18015E-008	0.00000E+000	-1.10000E-001	1.02589E-003	5	..........a	-327.66
	1116	223.4	-9.99164E-002	3.40070E-008	0.00000E+000	-1.00000E-001	1.00149E-003	5	..........a	-327.66
	1117	223.6	-8.99063E-002	3.62452E-008	0.00000E+000	-9.00000E-002	1.02819E-003	5	..........a	-327.66
	1118	223.8	-7.99924E-002	3.84994E-008	0.00000E+000	-8.00000E-002	1.02259E-003	5	..........a	-327.66
	1119	224	-6.99312E-002	4.08086E-008	0.00000E+000	-7.00000E-002	1.01009E-003	5	..........a	-327.66
	1120	224.2	-5.98789E-002	4.31769E-008	0.00000E+000	-6.00000E-002	1.00569E-003	5	..........a	-327.66