File: data/raw/batch_data/20240509_ZZY_GM0016_HL03_E13_CV50.DTA
EXPLAIN
TAG	CV
TITLE	LABEL	Cyclic Voltammetry	Test &Identifier
DATE	LABEL	5/9/2024	Date
TIME	LABEL	15:09:27	Time
NOTES	NOTES	1	&Notes...

PSTAT	PSTAT	REF600P-43058	Potentiostat
VINIT	POTEN	0.00000E+000	T	Initial &E (V)
VLIMIT1	POTEN	8.00000E-001	F	Scan Limit &1 (V)
VLIMIT2	POTEN	-6.00000E-001	F	Scan Limit &2 (V)
VFINAL	POTEN	0.00000E+000	T	Final &E (V)
SCANRATE	QUANT	4.99999E+001	&Scan Rate (mV/s)
STEPSIZE	QUANT	1.00000E+001	St&ep Size (mV)
CYCLES	IQUANT	4	C&ycles (#)
IMODE	SELECTOR	0	I/E Range &Mode
IRANGE	QUANT	1.00000E-005	&Max Current (mA)
AREA	QUANT	1.00000E+000	Electrode &Area (cm^2)
ELECTRODETYPE	SELECTOR	0	Electrode Type
STRIPPING	TOGGLE	F	Used for Stripping
POLARITY	TOGGLE	F	Signal Polarity
CONDIT	TWOPARAM	F	1.50000E+001	0.00000E+000	Conditionin&g	Time(s)	E(V)
DELAY	TWOPARAM	T	1.00000E+001	0.00000E+000	Init. De&lay	Time(s)	Stab.(mV/s)
EQDELAY	QUANT	1.00000E+001	Equil. &Time (s)
IRCOMP	SELECTOR	0	IRCom&p
PFCOR	QUANT	5.00000E+001	PF Corr. (ohm)
SAMPLINGMODE	SELECTOR	1	Sampling &Mode
OCVCURVE	TABLE	39
	Pt	T	Vf	Vm	Ach	Over	Temp
	#	s	V vs. Ref.	V	V	bits	deg C
	0	0.258333	-9.48231E-002	-9.48231E-002	2.40659E-004	..........a	-327.66
	1	0.516667	-9.48283E-002	-9.50949E-002	2.30126E-004	..........a	-327.66
	2	0.775	-9.48604E-002	-9.53619E-002	2.33192E-004	..........a	-327.66
	3	1.03333	-9.49512E-002	-9.55946E-002	2.27326E-004	..........a	-327.66
	4	1.29167	-9.51135E-002	-9.58448E-002	2.31526E-004	..........a	-327.66
	5	1.55	-9.53296E-002	-9.61074E-002	2.35126E-004	..........a	-327.66
	6	1.80833	-9.55733E-002	-9.63695E-002	2.34326E-004	..........a	-327.66
	7	2.06667	-9.58283E-002	-9.66399E-002	2.34392E-004	..........a	-327.66
	8	2.325	-9.60884E-002	-9.68981E-002	2.33192E-004	..........a	-327.66
	9	2.58333	-9.63507E-002	-9.71337E-002	2.44059E-004	..........a	-327.66
	10	2.84167	-9.66115E-002	-9.73898E-002	2.33326E-004	..........a	-327.66
	11	3.1	-9.68674E-002	-9.76169E-002	2.49592E-004	..........a	-327.66
	12	3.35833	-9.71171E-002	-9.78558E-002	2.46192E-004	..........a	-327.66
	13	3.61667	-9.73612E-002	-9.80966E-002	2.33192E-004	..........a	-327.66
	14	3.875	-9.76013E-002	-9.83410E-002	2.43526E-004	..........a	-327.66
	15	4.13333	-9.78406E-002	-9.85959E-002	2.45059E-004	..........a	-327.66
	16	4.39167	-9.80821E-002	-9.88487E-002	2.24726E-004	..........a	-327.66
	17	4.65	-9.83265E-002	-9.90488E-002	2.41392E-004	..........a	-327.66
	18	4.90833	-9.85700E-002	-9.92681E-002	2.27526E-004	..........a	-327.66
	19	5.16667	-9.88065E-002	-9.95045E-002	2.23526E-004	..........a	-327.66
	20	5.425	-9.90354E-002	-9.97469E-002	2.34659E-004	..........a	-327.66
	21	5.68333	-9.92455E-002	-9.90985E-002	2.30392E-004	..........a	-327.66
	22	5.94167	-9.93853E-002	-9.91962E-002	2.31659E-004	..........a	-327.66
	23	6.2	-9.94097E-002	-9.93708E-002	2.43326E-004	..........a	-327.66
	24	6.45833	-9.93625E-002	-9.95406E-002	2.39526E-004	..........a	-327.66
	25	6.71667	-9.93418E-002	-9.97119E-002	2.28059E-004	..........a	-327.66
	26	6.975	-9.94003E-002	-9.98891E-002	2.34992E-004	..........a	-327.66
	27	7.23333	-9.95272E-002	-1.00044E-001	2.27792E-004	..........a	-327.66
	28	7.49167	-9.96891E-002	-1.00207E-001	2.34992E-004	..........a	-327.66
	29	7.75	-9.98604E-002	-1.00369E-001	2.38059E-004	..........a	-327.66
	30	8.00833	-1.00030E-001	-1.00573E-001	2.34659E-004	..........a	-327.66
	31	8.26667	-1.00200E-001	-1.00792E-001	2.38992E-004	..........a	-327.66
	32	8.525	-1.00378E-001	-1.00966E-001	2.22726E-004	..........a	-327.66
	33	8.78333	-1.00566E-001	-1.01133E-001	2.36792E-004	..........a	-327.66
	34	9.04167	-1.00755E-001	-1.01286E-001	2.41192E-004	..........a	-327.66
	35	9.3	-1.00939E-001	-1.01446E-001	2.30992E-004	..........a	-327.66
	36	9.5583	-1.01111E-001	-1.01598E-001	2.24726E-004	..........a	-327.66
	37	9.8167	-1.01274E-001	-1.01766E-001	2.40726E-004	..........a	-327.66
	38	10.075	-1.01434E-001	-1.01937E-001	2.38259E-004	..........a	-327.66
EOC	QUANT	-0.1014337	Open Circuit (V)
PSTATMODEL	IQUANT	7	Pstat Model
PSTATSECTION	LABEL	REF600P-43058	Pstat Section
PSTATSERIALNO	LABEL	43058	Pstat Serial Number
CTRLMODE	IQUANT	1	Control Mode
ELECTROMETER	IQUANT	0	RE=0 or CS=1
IESTAB	IQUANT	2	I/E Stability
CASPEED	IQUANT	4	Control Amp Speed
CONVENTION	IQUANT	1	Current Convention
ICHRANGE	IQUANT	2	Ich Range
ICHRANGEMODE	TOGGLE	F	Ich Auto Range
ICHOFFSETENABLE	TOGGLE	F	Ich Offset Enable
ICHOFFSET	QUANT	0	Ich Offset (V)
ICHFILTER	IQUANT	2	Ich Filter
VCHRANGE	IQUANT	2	Vch Range
VCHRANGEMODE	TOGGLE	F	Vch Auto Range
VCHOFFSETENABLE	TOGGLE	F	Vch Offset Enable
VCHOFFSET	QUANT	0	Vch Offset (V)
VCHFILTER	IQUANT	2	Vch Filter
ACHRANGE	IQUANT	2	Ach Range
ACHOFFSETENABLE	TOGGLE	F	Ach Offset Enable
ACHOFFSET	QUANT	0	Ach Offset (V)
ACHFILTER	IQUANT	1	Ach Filter
IERANGELOWERLIMIT	IQUANT	1	I/E Range Lower Limit
IERANGEMODE	TOGGLE	T	I/E AutoRange
IERANGE	IQUANT	4	I/E Range
POSFEEDENABLE	TOGGLE	F	Positive Feedback IR Comp
POSFEEDRESISTANCE	QUANT	0	Positive Feedback Resistance (ohm)
ACHSELECT	IQUANT	4	Ach Select
SENSECABLEID	IQUANT	7	Sense Cable ID
PWRCABLEID	IQUANT	7	Power Cable ID
DCCALDATE	LABEL	3/22/2024	DC Calibration Date
ACCALDATE	LABEL	3/22/2024	AC Calibration Date
THERMOSELECT	IQUANT	1	Thermo Select
FRAMEWORKVERSION	LABEL	7.8.4	Framework Version
INSTRUMENTVERSION	LABEL	4.42	Instrument Version
CURVE1	TABLE
	Pt	T	Vf	Im	Vu	Sig	Ach	IERange	Over	Temp
	#	s	V vs. Ref.	A	V	V	V	#	bits	deg C
	0	0.2	-1.01304E-001	3.30504E-009	0.00000E+000	-1.01450E-001	9.95292E-004	5	..........a	-327.66
	1	0.4	-9.13997E-002	1.64636E-008	0.00000E+000	-9.14500E-002	9.92792E-004	5	..........a	-327.66
	2	0.6	-8.13909E-002	2.57325E-008	0.00000E+000	-8.14500E-002	1.00219E-003	5	..........a	-327.66
	3	0.8	-7.14090E-002	3.35218E-008	0.00000E+000	-7.14500E-002	9.75392E-004	5	..........a	-327.66
	4	1	-6.13129E-002	4.04917E-008	0.00000E+000	-6.14500E-002	9.67692E-004	5	..........a	-327.66
	5	1.2	-5.14014E-002	4.69621E-008	0.00000E+000	-5.14500E-002	9.83392E-004	5	..........a	-327.66
	6	1.4	-4.14197E-002	5.35178E-008	0.00000E+000	-4.14500E-002	9.71192E-004	5	..........a	-327.66
	7	1.6	-3.14322E-002	6.11078E-008	0.00000E+000	-3.14500E-002	9.90092E-004	5	..........a	-327.66
	8	1.8	-2.13557E-002	6.62747E-008	0.00000E+000	-2.14500E-002	9.76992E-004	5	..........a	-327.66
	9	2	-1.13865E-002	7.11522E-008	0.00000E+000	-1.14500E-002	9.78992E-004	5	..........a	-327.66
	10	2.2	-1.40091E-003	7.57786E-008	0.00000E+000	-1.44999E-003	9.83192E-004	5	..........a	-327.66
	11	2.4	8.59159E-003	8.04283E-008	0.00000E+000	8.55000E-003	9.73392E-004	5	..........a	-327.66
	12	2.6	1.86673E-002	8.49948E-008	0.00000E+000	1.85500E-002	9.93892E-004	5	..........a	-327.66
	13	2.8	2.85544E-002	8.97342E-008	0.00000E+000	2.85500E-002	9.82192E-004	5	..........a	-327.66
	14	3	3.86073E-002	9.42420E-008	0.00000E+000	3.85500E-002	9.84792E-004	5	..........a	-327.66
	15	3.2	4.86017E-002	9.88040E-008	0.00000E+000	4.85500E-002	9.87792E-004	5	..........a	-327.66
	16	3.4	5.86363E-002	1.05301E-007	0.00000E+000	5.85500E-002	9.76992E-004	5	..........a	-327.66
	17	3.6	6.85439E-002	1.09331E-007	0.00000E+000	6.85500E-002	9.97892E-004	5	..........a	-327.66
	18	3.8	7.85534E-002	1.13644E-007	0.00000E+000	7.85500E-002	9.86392E-004	5	..........a	-327.66
	19	4	8.85763E-002	1.18135E-007	0.00000E+000	8.85500E-002	9.90492E-004	5	..........a	-327.66
	20	4.2	9.86809E-002	1.23042E-007	0.00000E+000	9.85500E-002	1.00459E-003	5	..........a	-327.66
	21	4.4	1.08567E-001	1.29753E-007	0.00000E+000	1.08550E-001	9.77292E-004	5	..........a	-327.66
	22	4.6	1.18586E-001	1.33992E-007	0.00000E+000	1.18550E-001	9.86792E-004	5	..........a	-327.66
	23	4.8	1.28545E-001	1.40627E-007	0.00000E+000	1.28550E-001	9.89792E-004	5	..........a	-327.66
	24	5	1.38607E-001	1.48805E-007	0.00000E+000	1.38550E-001	9.84192E-004	5	..........a	-327.66
	25	5.2	1.48556E-001	1.52596E-007	0.00000E+000	1.48550E-001	9.87192E-004	5	..........a	-327.66
	26	5.4	1.58545E-001	1.57873E-007	0.00000E+000	1.58550E-001	9.86692E-004	5	..........a	-327.66
	27	5.6	1.68473E-001	1.63455E-007	0.00000E+000	1.68550E-001	9.80692E-004	5	..........a	-327.66
	28	5.8	1.78642E-001	1.71354E-007	0.00000E+000	1.78550E-001	9.81292E-004	5	..........a	-327.66
	29	6	1.88550E-001	1.76560E-007	0.00000E+000	1.88550E-001	9.89292E-004	5	..........a	-327.66
	30	6.2	1.98481E-001	1.82031E-007	0.00000E+000	1.98550E-001	9.89692E-004	5	..........a	-327.66
	31	6.4	2.08483E-001	1.87896E-007	0.00000E+000	2.08550E-001	9.69492E-004	5	..........a	-327.66
	32	6.6	2.18635E-001	1.94403E-007	0.00000E+000	2.18550E-001	9.90592E-004	5	..........a	-327.66
	33	6.8	2.28454E-001	1.98782E-007	0.00000E+000	2.28550E-001	1.00749E-003	5	..........a	-327.66
	34	7	2.38491E-001	2.03098E-007	0.00000E+000	2.38550E-001	1.00939E-003	5	..........a	-327.66
	35	7.2	2.48482E-001	2.06891E-007	0.00000E+000	2.48550E-001	9.91692E-004	5	..........a	-327.66
	36	7.4	2.58541E-001	2.10425E-007	0.00000E+000	2.58550E-001	9.87092E-004	5	..........a	-327.66
	37	7.6	2.68515E-001	2.13792E-007	0.00000E+000	2.68550E-001	9.83792E-004	5	..........a	-327.66
	38	7.8	2.78427E-001	2.17570E-007	0.00000E+000	2.78550E-001	9.91892E-004	5	..........a	-327.66
	39	8	2.88481E-001	2.21633E-007	0.00000E+000	2.88550E-001	9.85892E-004	5	..........a	-327.66
	40	8.2	2.98519E-001	2.73697E-007	0.00000E+000	2.98550E-001	9.77792E-004	5	..........a	-327.66
	41	8.4	3.08488E-001	2.60116E-007	0.00000E+000	3.08550E-001	9.86092E-004	5	..........a	-327.66
	42	8.6	3.18480E-001	2.61864E-007	0.00000E+000	3.18550E-001	9.94692E-004	5	..........a	-327.66
	43	8.8	3.28438E-001	3.00008E-007	0.00000E+000	3.28550E-001	1.00559E-003	5	..........a	-327.66
	44	9	3.38498E-001	2.80169E-007	0.00000E+000	3.38550E-001	9.92292E-004	5	..........a	-327.66
	45	9.2	3.48488E-001	2.80200E-007	0.00000E+000	3.48550E-001	9.91092E-004	5	..........a	-327.66
	46	9.4	3.58423E-001	2.84207E-007	0.00000E+000	3.58550E-001	9.78992E-004	5	..........a	-327.66
	47	9.6	3.68465E-001	2.88265E-007	0.00000E+000	3.68550E-001	9.87292E-004	5	..........a	-327.66
	48	9.8	3.78511E-001	2.92050E-007	0.00000E+000	3.78550E-001	9.82492E-004	5	..........a	-327.66
	49	10	3.88458E-001	2.97205E-007	0.00000E+000	3.88550E-001	9.80992E-004	5	..........a	-327.66
	50	10.2	3.98473E-001	3.02837E-007	0.00000E+000	3.98550E-001	9.94292E-004	5	..........a	-327.66
	51	10.4	4.08381E-001	3.26851E-007	0.00000E+000	4.08550E-001	9.81092E-004	5	..........a	-327.66
	52	10.6	4.18418E-001	3.35953E-007	0.00000E+000	4.18550E-001	9.66492E-004	5	..........a	-327.66
	53	10.8	4.28342E-001	3.40799E-007	0.00000E+000	4.28550E-001	1.00549E-003	5	..........a	-327.66
	54	11	4.38328E-001	3.46846E-007	0.00000E+000	4.38550E-001	1.00029E-003	5	..........a	-327.66
	55	11.2	4.48422E-001	3.52155E-007	0.00000E+000	4.48550E-001	9.85092E-004	5	..........a	-327.66
	56	11.4	4.58400E-001	3.58318E-007	0.00000E+000	4.58550E-001	9.91792E-004	5	..........a	-327.66
	57	11.6	4.68403E-001	3.69004E-007	0.00000E+000	4.68550E-001	9.78092E-004	5	..........a	-327.66
	58	11.8	4.78316E-001	3.71963E-007	0.00000E+000	4.78550E-001	9.90392E-004	5	..........a	-327.66
	59	12	4.88330E-001	3.77110E-007	0.00000E+000	4.88550E-001	9.81592E-004	5	..........a	-327.66
	60	12.2	4.98369E-001	3.86023E-007	0.00000E+000	4.98550E-001	9.79692E-004	5	..........a	-327.66
	61	12.4	5.08379E-001	3.89338E-007	0.00000E+000	5.08550E-001	9.98292E-004	5	..........a	-327.66
	62	12.6	5.18342E-001	3.94585E-007	0.00000E+000	5.18550E-001	9.99892E-004	5	..........a	-327.66
	63	12.8	5.28372E-001	4.00592E-007	0.00000E+000	5.28550E-001	9.83192E-004	5	..........a	-327.66
	64	13	5.38337E-001	4.07833E-007	0.00000E+000	5.38550E-001	9.95692E-004	5	..........a	-327.66
	65	13.2	5.48409E-001	4.14003E-007	0.00000E+000	5.48550E-001	1.00129E-003	5	..........a	-327.66
	66	13.4	5.58326E-001	4.19677E-007	0.00000E+000	5.58550E-001	9.91392E-004	5	..........a	-327.66
	67	13.6	5.68321E-001	4.27652E-007	0.00000E+000	5.68550E-001	9.93592E-004	5	..........a	-327.66
	68	13.8	5.78277E-001	4.36024E-007	0.00000E+000	5.78550E-001	9.85092E-004	5	..........a	-327.66
	69	14	5.88370E-001	4.43052E-007	0.00000E+000	5.88550E-001	9.83992E-004	5	..........a	-327.66
	70	14.2	5.98307E-001	4.49301E-007	0.00000E+000	5.98550E-001	9.75792E-004	5	..........a	-327.66
	71	14.4	6.08305E-001	4.54997E-007	0.00000E+000	6.08550E-001	9.89092E-004	5	..........a	-327.66
	72	14.6	6.18279E-001	4.60403E-007	0.00000E+000	6.18550E-001	9.75992E-004	5	..........a	-327.66
	73	14.8	6.28339E-001	4.65311E-007	0.00000E+000	6.28550E-001	1.00309E-003	5	..........a	-327.66
	74	15	6.38260E-001	4.70559E-007	0.00000E+000	6.38550E-001	9.97092E-004	5	..........a	-327.66
	75	15.2	6.48272E-001	4.75745E-007	0.00000E+000	6.48550E-001	9.83892E-004	5	..........a	-327.66
	76	15.4	6.58279E-001	4.80965E-007	0.00000E+000	6.58550E-001	9.79992E-004	5	..........a	-327.66
	77	15.6	6.68334E-001	4.85026E-007	0.00000E+000	6.68550E-001	9.81392E-004	5	..........a	-327.66
	78	15.8	6.78237E-001	4.89667E-007	0.00000E+000	6.78550E-001	9.82092E-004	5	..........a	-327.66
	79	16	6.88236E-001	4.95000E-007	0.00000E+000	6.88550E-001	9.94092E-004	5	..........a	-327.66
	80	16.2	6.98255E-001	5.02054E-007	0.00000E+000	6.98550E-001	9.98592E-004	5	..........a	-327.66
	81	16.4	7.08341E-001	5.11274E-007	0.00000E+000	7.08550E-001	9.79892E-004	5	..........a	-327.66
	82	16.6	7.18248E-001	5.16150E-007	0.00000E+000	7.18550E-001	9.86892E-004	5	..........a	-327.66
	83	16.8	7.28257E-001	5.23872E-007	0.00000E+000	7.28550E-001	9.85092E-004	5	..........a	-327.66
	84	17	7.38251E-001	5.39497E-007	0.00000E+000	7.38550E-001	9.89992E-004	5	..........a	-327.66
	85	17.2	7.48520E-001	5.61683E-007	0.00000E+000	7.48550E-001	9.91592E-004	6	..........a	-327.66
	86	17.4	7.58501E-001	5.58113E-007	0.00000E+000	7.58550E-001	9.86692E-004	6	..........a	-327.66
	87	17.6	7.68496E-001	5.53988E-007	0.00000E+000	7.68550E-001	9.88092E-004	6	..........a	-327.66
	88	17.8	7.78524E-001	5.59927E-007	0.00000E+000	7.78550E-001	9.87592E-004	6	..........a	-327.66
	89	18	7.88500E-001	5.67547E-007	0.00000E+000	7.88550E-001	9.81692E-004	6	..........a	-327.66
	90	18.2	7.98472E-001	5.76320E-007	0.00000E+000	7.98550E-001	9.83592E-004	6	..........a	-327.66
	91	18.4	7.88512E-001	5.04113E-007	0.00000E+000	7.88550E-001	9.91492E-004	6	..........a	-327.66
	92	18.6	7.78528E-001	4.54228E-007	0.00000E+000	7.78550E-001	9.69792E-004	6	..........a	-327.66
	93	18.8	7.68243E-001	4.11771E-007	0.00000E+000	7.68550E-001	9.87592E-004	5	..........a	-327.66
	94	19	7.58332E-001	3.78802E-007	0.00000E+000	7.58550E-001	1.00149E-003	5	..........a	-327.66
	95	19.2	7.48381E-001	3.51462E-007	0.00000E+000	7.48550E-001	9.87392E-004	5	..........a	-327.66
	96	19.4	7.38371E-001	3.27415E-007	0.00000E+000	7.38550E-001	9.86192E-004	5	..........a	-327.66
	97	19.6	7.28374E-001	3.04843E-007	0.00000E+000	7.28550E-001	9.81292E-004	5	..........a	-327.66
	98	19.8	7.18338E-001	2.85090E-007	0.00000E+000	7.18550E-001	9.91792E-004	5	..........a	-327.66
	99	20	7.08406E-001	2.67422E-007	0.00000E+000	7.08550E-001	1.00459E-003	5	..........a	-327.66
	100	20.2	6.98407E-001	2.51352E-007	0.00000E+000	6.98550E-001	9.91192E-004	5	..........a	-327.66
	101	20.4	6.88385E-001	2.36508E-007	0.00000E+000	6.88550E-001	9.88392E-004	5	..........a	-327.66
	102	20.6	6.78390E-001	2.22858E-007	0.00000E+000	6.78550E-001	9.87092E-004	5	..........a	-327.66
	103	20.8	6.68418E-001	2.10300E-007	0.00000E+000	6.68550E-001	9.90992E-004	5	..........a	-327.66
	104	21	6.58479E-001	1.98207E-007	0.00000E+000	6.58550E-001	9.82292E-004	5	..........a	-327.66
	105	21.2	6.48404E-001	1.86983E-007	0.00000E+000	6.48550E-001	9.94092E-004	5	..........a	-327.66
	106	21.4	6.38363E-001	1.78603E-007	0.00000E+000	6.38550E-001	1.00929E-003	5	..........a	-327.66
	107	21.6	6.28403E-001	1.69996E-007	0.00000E+000	6.28550E-001	9.90492E-004	5	..........a	-327.66
	108	21.8	6.18475E-001	1.59108E-007	0.00000E+000	6.18550E-001	9.67092E-004	5	..........a	-327.66
	109	22	6.08449E-001	1.52173E-007	0.00000E+000	6.08550E-001	9.78492E-004	5	..........a	-327.66
	110	22.2	5.98479E-001	1.43118E-007	0.00000E+000	5.98550E-001	9.70592E-004	5	..........a	-327.66
	111	22.4	5.88454E-001	1.34660E-007	0.00000E+000	5.88550E-001	9.80092E-004	5	..........a	-327.66
	112	22.6	5.78522E-001	1.25805E-007	0.00000E+000	5.78550E-001	9.70392E-004	5	..........a	-327.66
	113	22.8	5.68479E-001	1.17019E-007	0.00000E+000	5.68550E-001	9.79392E-004	5	..........a	-327.66
	114	23	5.58478E-001	1.08893E-007	0.00000E+000	5.58550E-001	9.91592E-004	5	..........a	-327.66
	115	23.2	5.48535E-001	1.00955E-007	0.00000E+000	5.48550E-001	9.97992E-004	5	..........a	-327.66
	116	23.4	5.38562E-001	9.37289E-008	0.00000E+000	5.38550E-001	9.74892E-004	5	..........a	-327.66
	117	23.6	5.28516E-001	8.64243E-008	0.00000E+000	5.28550E-001	9.72292E-004	5	..........a	-327.66
	118	23.8	5.18502E-001	7.92696E-008	0.00000E+000	5.18550E-001	9.97492E-004	5	..........a	-327.66
	119	24	5.08508E-001	7.23151E-008	0.00000E+000	5.08550E-001	1.00559E-003	5	..........a	-327.66
	120	24.2	4.98558E-001	6.53572E-008	0.00000E+000	4.98550E-001	9.86692E-004	5	..........a	-327.66
	121	24.4	4.88515E-001	5.88684E-008	0.00000E+000	4.88550E-001	9.92992E-004	5	..........a	-327.66
	122	24.6	4.78476E-001	5.25347E-008	0.00000E+000	4.78550E-001	9.89092E-004	5	..........a	-327.66
	123	24.8	4.68541E-001	4.56020E-008	0.00000E+000	4.68550E-001	9.85792E-004	5	..........a	-327.66
	124	25	4.58642E-001	3.84271E-008	0.00000E+000	4.58550E-001	9.82892E-004	5	..........a	-327.66
	125	25.2	4.48581E-001	3.18260E-008	0.00000E+000	4.48550E-001	9.65592E-004	5	..........a	-327.66
	126	25.4	4.38505E-001	2.53951E-008	0.00000E+000	4.38550E-001	9.88792E-004	5	..........a	-327.66
	127	25.6	4.28484E-001	1.90985E-008	0.00000E+000	4.28550E-001	9.96492E-004	5	..........a	-327.66
	128	25.8	4.18617E-001	1.30131E-008	0.00000E+000	4.18550E-001	9.68492E-004	5	..........a	-327.66
	129	26	4.08577E-001	6.95539E-009	0.00000E+000	4.08550E-001	9.80492E-004	5	..........a	-327.66
	130	26.2	3.98558E-001	9.75553E-010	0.00000E+000	3.98550E-001	9.91692E-004	5	..........a	-327.66
	131	26.4	3.88588E-001	-4.88107E-009	0.00000E+000	3.88550E-001	9.86192E-004	5	..........a	-327.66
	132	26.6	3.78704E-001	-1.06711E-008	0.00000E+000	3.78550E-001	9.94692E-004	5	..........a	-327.66
	133	26.8	3.68601E-001	-1.64048E-008	0.00000E+000	3.68550E-001	9.66992E-004	5	..........a	-327.66
	134	27	3.58594E-001	-2.21961E-008	0.00000E+000	3.58550E-001	9.87992E-004	5	..........a	-327.66
	135	27.2	3.48612E-001	-2.77135E-008	0.00000E+000	3.48550E-001	9.90992E-004	5	..........a	-327.66
	136	27.4	3.38682E-001	-3.31956E-008	0.00000E+000	3.38550E-001	9.80692E-004	5	..........a	-327.66
	137	27.6	3.28621E-001	-3.87042E-008	0.00000E+000	3.28550E-001	9.64792E-004	5	..........a	-327.66
	138	27.8	3.18619E-001	-4.42138E-008	0.00000E+000	3.18550E-001	9.87892E-004	5	..........a	-327.66
	139	28	3.08622E-001	-4.97369E-008	0.00000E+000	3.08550E-001	9.78492E-004	5	..........a	-327.66
	140	28.2	2.98715E-001	-5.50690E-008	0.00000E+000	2.98550E-001	9.76192E-004	5	..........a	-327.66
	141	28.4	2.88614E-001	-6.05371E-008	0.00000E+000	2.88550E-001	9.68892E-004	5	..........a	-327.66
	142	28.6	2.78604E-001	-6.58464E-008	0.00000E+000	2.78550E-001	9.73192E-004	5	..........a	-327.66
	143	28.8	2.68603E-001	-7.13283E-008	0.00000E+000	2.68550E-001	9.59492E-004	5	..........a	-327.66
	144	29	2.58709E-001	-7.67469E-008	0.00000E+000	2.58550E-001	9.86392E-004	5	..........a	-327.66
	145	29.2	2.48630E-001	-8.20893E-008	0.00000E+000	2.48550E-001	9.74292E-004	5	..........a	-327.66
	146	29.4	2.38642E-001	-8.74280E-008	0.00000E+000	2.38550E-001	9.95492E-004	5	..........a	-327.66
	147	29.6	2.28614E-001	-9.27394E-008	0.00000E+000	2.28550E-001	9.81792E-004	5	..........a	-327.66
	148	29.8	2.18736E-001	-9.79720E-008	0.00000E+000	2.18550E-001	9.86492E-004	5	..........a	-327.66
	149	30	2.08641E-001	-1.03320E-007	0.00000E+000	2.08550E-001	9.78892E-004	5	..........a	-327.66
	150	30.2	1.98665E-001	-1.08729E-007	0.00000E+000	1.98550E-001	9.71692E-004	5	..........a	-327.66
	151	30.4	1.88665E-001	-1.13981E-007	0.00000E+000	1.88550E-001	9.85692E-004	5	..........a	-327.66
	152	30.6	1.78748E-001	-1.19162E-007	0.00000E+000	1.78550E-001	9.76992E-004	5	..........a	-327.66
	153	30.8	1.68609E-001	-1.24308E-007	0.00000E+000	1.68550E-001	9.71792E-004	5	..........a	-327.66
	154	31	1.58667E-001	-1.29180E-007	0.00000E+000	1.58550E-001	9.93292E-004	5	..........a	-327.66
	155	31.2	1.48688E-001	-1.33855E-007	0.00000E+000	1.48550E-001	1.00539E-003	5	..........a	-327.66
	156	31.4	1.38757E-001	-1.38311E-007	0.00000E+000	1.38550E-001	9.78092E-004	5	..........a	-327.66
	157	31.6	1.28686E-001	-1.42521E-007	0.00000E+000	1.28550E-001	9.85692E-004	5	..........a	-327.66
	158	31.8	1.18722E-001	-1.46441E-007	0.00000E+000	1.18550E-001	9.79792E-004	5	..........a	-327.66
	159	32	1.08687E-001	-1.50137E-007	0.00000E+000	1.08550E-001	9.81792E-004	5	..........a	-327.66
	160	32.2	9.87633E-002	-1.53597E-007	0.00000E+000	9.85500E-002	1.00679E-003	5	..........a	-327.66
	161	32.4	8.86926E-002	-1.56828E-007	0.00000E+000	8.85500E-002	9.80992E-004	5	..........a	-327.66
	162	32.6	7.86690E-002	-1.59961E-007	0.00000E+000	7.85500E-002	9.80292E-004	5	..........a	-327.66
	163	32.8	6.86803E-002	-1.63031E-007	0.00000E+000	6.85500E-002	9.79092E-004	5	..........a	-327.66
	164	33	5.87619E-002	-1.65924E-007	0.00000E+000	5.85500E-002	9.81892E-004	5	..........a	-327.66
	165	33.2	4.87096E-002	-1.68693E-007	0.00000E+000	4.85500E-002	9.69292E-004	5	..........a	-327.66
	166	33.4	3.87799E-002	-1.71435E-007	0.00000E+000	3.85500E-002	9.76492E-004	5	..........a	-327.66
	167	33.6	2.87036E-002	-1.74140E-007	0.00000E+000	2.85500E-002	9.91592E-004	5	..........a	-327.66
	168	33.8	1.87538E-002	-1.76654E-007	0.00000E+000	1.85500E-002	9.96992E-004	5	..........a	-327.66
	169	34	8.71429E-003	-1.79134E-007	0.00000E+000	8.55000E-003	9.82992E-004	5	..........a	-327.66
	170	34.2	-1.30341E-003	-1.81637E-007	0.00000E+000	-1.44999E-003	9.81192E-004	5	..........a	-327.66
	171	34.4	-1.12352E-002	-1.84015E-007	0.00000E+000	-1.14500E-002	9.85592E-004	5	..........a	-327.66
	172	34.6	-2.12550E-002	-1.86429E-007	0.00000E+000	-2.14500E-002	9.85792E-004	5	..........a	-327.66
	173	34.8	-3.13213E-002	-1.88767E-007	0.00000E+000	-3.14500E-002	9.72892E-004	5	..........a	-327.66
	174	35	-4.12849E-002	-1.91062E-007	0.00000E+000	-4.14500E-002	9.75192E-004	5	..........a	-327.66
	175	35.2	-5.13083E-002	-1.93319E-007	0.00000E+000	-5.14500E-002	9.70292E-004	5	..........a	-327.66
	176	35.4	-6.11856E-002	-1.95609E-007	0.00000E+000	-6.14500E-002	9.96492E-004	5	..........a	-327.66
	177	35.6	-7.12960E-002	-1.97950E-007	0.00000E+000	-7.14500E-002	9.65692E-004	5	..........a	-327.66
	178	35.8	-8.12926E-002	-2.00381E-007	0.00000E+000	-8.14500E-002	1.00309E-003	5	..........a	-327.66
	179	36	-9.13066E-002	-2.02907E-007	0.00000E+000	-9.14500E-002	9.84492E-004	5	..........a	-327.66
	180	36.2	-1.01228E-001	-2.05537E-007	0.00000E+000	-1.01450E-001	9.85392E-004	5	..........a	-327.66
	181	36.4	-1.11320E-001	-2.08200E-007	0.00000E+000	-1.11450E-001	9.75592E-004	5	..........a	-327.66
	182	36.6	-1.21290E-001	-2.10959E-007	0.00000E+000	-1.21450E-001	9.81892E-004	5	..........a	-327.66
	183	36.8	-1.31305E-001	-2.13836E-007	0.00000E+000	-1.31450E-001	9.92792E-004	5	..........a	-327.66
	184	37	-1.41273E-001	-2.16854E-007	0.00000E+000	-1.41450E-001	9.96692E-004	5	..........a	-327.66
	185	37.2	-1.51287E-001	-2.19902E-007	0.00000E+000	-1.51450E-001	9.88792E-004	5	..........a	-327.66
	186	37.4	-1.61303E-001	-2.23064E-007	0.00000E+000	-1.61450E-001	9.98292E-004	5	..........a	-327.66
	187	37.6	-1.71291E-001	-2.26375E-007	0.00000E+000	-1.71450E-001	9.74792E-004	5	..........a	-327.66
	188	37.8	-1.81218E-001	-2.29695E-007	0.00000E+000	-1.81450E-001	9.99492E-004	5	..........a	-327.66
	189	38	-1.91256E-001	-2.33148E-007	0.00000E+000	-1.91450E-001	9.86792E-004	5	..........a	-327.66
	190	38.2	-2.01289E-001	-2.36682E-007	0.00000E+000	-2.01450E-001	9.88192E-004	5	..........a	-327.66
	191	38.4	-2.11261E-001	-2.40228E-007	0.00000E+000	-2.11450E-001	9.89192E-004	5	..........a	-327.66
	192	38.6	-2.21192E-001	-2.43737E-007	0.00000E+000	-2.21450E-001	9.97092E-004	5	..........a	-327.66
	193	38.8	-2.31248E-001	-2.47223E-007	0.00000E+000	-2.31450E-001	9.75392E-004	5	..........a	-327.66
	194	39	-2.41158E-001	-2.50543E-007	0.00000E+000	-2.41450E-001	9.76592E-004	5	..........a	-327.66
	195	39.2	-2.51244E-001	-2.53701E-007	0.00000E+000	-2.51450E-001	9.74192E-004	5	..........a	-327.66
	196	39.4	-2.61180E-001	-2.56716E-007	0.00000E+000	-2.61450E-001	9.97592E-004	5	..........a	-327.66
	197	39.6	-2.71203E-001	-2.59599E-007	0.00000E+000	-2.71450E-001	9.79292E-004	5	..........a	-327.66
	198	39.8	-2.81245E-001	-2.62421E-007	0.00000E+000	-2.81450E-001	9.79092E-004	5	..........a	-327.66
	199	40	-2.91190E-001	-2.64997E-007	0.00000E+000	-2.91450E-001	9.85892E-004	5	..........a	-327.66
	200	40.2	-3.01179E-001	-2.67491E-007	0.00000E+000	-3.01450E-001	9.94692E-004	5	..........a	-327.66
	201	40.4	-3.11221E-001	-2.69886E-007	0.00000E+000	-3.11450E-001	9.69792E-004	5	..........a	-327.66
	202	40.6	-3.21211E-001	-2.72125E-007	0.00000E+000	-3.21450E-001	9.83292E-004	5	..........a	-327.66
	203	40.8	-3.31242E-001	-2.74227E-007	0.00000E+000	-3.31450E-001	9.96792E-004	5	..........a	-327.66
	204	41	-3.41198E-001	-2.76285E-007	0.00000E+000	-3.41450E-001	1.00629E-003	5	..........a	-327.66
	205	41.2	-3.51200E-001	-2.78172E-007	0.00000E+000	-3.51450E-001	9.93992E-004	5	..........a	-327.66
	206	41.4	-3.61230E-001	-2.79898E-007	0.00000E+000	-3.61450E-001	1.01199E-003	5	..........a	-327.66
	207	41.6	-3.71199E-001	-2.81583E-007	0.00000E+000	-3.71450E-001	9.84992E-004	5	..........a	-327.66
	208	41.8	-3.81197E-001	-2.83094E-007	0.00000E+000	-3.81450E-001	9.80792E-004	5	..........a	-327.66
	209	42	-3.91181E-001	-2.84521E-007	0.00000E+000	-3.91450E-001	9.92792E-004	5	..........a	-327.66
	210	42.2	-4.01203E-001	-2.85931E-007	0.00000E+000	-4.01450E-001	9.90392E-004	5	..........a	-327.66
	211	42.4	-4.11208E-001	-2.87217E-007	0.00000E+000	-4.11450E-001	9.80892E-004	5	..........a	-327.66
	212	42.6	-4.21121E-001	-2.88495E-007	0.00000E+000	-4.21450E-001	9.78692E-004	5	..........a	-327.66
	213	42.8	-4.31152E-001	-2.89694E-007	0.00000E+000	-4.31450E-001	9.70592E-004	5	..........a	-327.66
	214	43	-4.41185E-001	-2.90926E-007	0.00000E+000	-4.41450E-001	9.86392E-004	5	..........a	-327.66
	215	43.2	-4.51159E-001	-2.92160E-007	0.00000E+000	-4.51450E-001	9.91692E-004	5	..........a	-327.66
	216	43.4	-4.61147E-001	-2.93553E-007	0.00000E+000	-4.61450E-001	9.93892E-004	5	..........a	-327.66
	217	43.6	-4.71173E-001	-2.94898E-007	0.00000E+000	-4.71450E-001	9.92992E-004	5	..........a	-327.66
	218	43.8	-4.81175E-001	-2.96209E-007	0.00000E+000	-4.81450E-001	9.82692E-004	5	..........a	-327.66
	219	44	-4.91189E-001	-2.97714E-007	0.00000E+000	-4.91450E-001	9.87592E-004	5	..........a	-327.66
	220	44.2	-5.01125E-001	-2.99269E-007	0.00000E+000	-5.01450E-001	9.94192E-004	5	..........a	-327.66
	221	44.4	-5.11177E-001	-3.00905E-007	0.00000E+000	-5.11450E-001	9.78492E-004	5	..........a	-327.66
	222	44.6	-5.21191E-001	-3.02686E-007	0.00000E+000	-5.21450E-001	9.81192E-004	5	..........a	-327.66
	223	44.8	-5.31199E-001	-3.04493E-007	0.00000E+000	-5.31450E-001	9.94892E-004	5	..........a	-327.66
	224	45	-5.41179E-001	-3.06398E-007	0.00000E+000	-5.41450E-001	9.80792E-004	5	..........a	-327.66
	225	45.2	-5.51163E-001	-3.08392E-007	0.00000E+000	-5.51450E-001	9.54692E-004	5	..........a	-327.66
	226	45.4	-5.61200E-001	-3.10472E-007	0.00000E+000	-5.61450E-001	9.97492E-004	5	..........a	-327.66
	227	45.6	-5.71195E-001	-3.12561E-007	0.00000E+000	-5.71450E-001	9.92092E-004	5	..........a	-327.66
	228	45.8	-5.81135E-001	-3.14727E-007	0.00000E+000	-5.81450E-001	9.90992E-004	5	..........a	-327.66
	229	46	-5.91132E-001	-3.16959E-007	0.00000E+000	-5.91450E-001	9.73792E-004	5	..........a	-327.66
	230	46.2	-6.01172E-001	-3.19319E-007	0.00000E+000	-6.01450E-001	9.83192E-004	5	..........a	-327.66
CURVE2	TABLE
	Pt	T	Vf	Im	Vu	Sig	Ach	IERange	Over	Temp
	#	s	V vs. Ref.	A	V	V	V	#	bits	deg C
	231	46.4	-5.89754E-001	-2.76379E-007	0.00000E+000	-5.90000E-001	9.84492E-004	5	..........a	-327.66
	232	46.6	-5.79723E-001	-2.48813E-007	0.00000E+000	-5.80000E-001	9.76892E-004	5	..........a	-327.66
	233	46.8	-5.69767E-001	-2.26092E-007	0.00000E+000	-5.70000E-001	9.80992E-004	5	..........a	-327.66
	234	47	-5.59810E-001	-2.06591E-007	0.00000E+000	-5.60000E-001	9.75692E-004	5	..........a	-327.66
	235	47.2	-5.49803E-001	-1.89368E-007	0.00000E+000	-5.50000E-001	9.87192E-004	5	..........a	-327.66
	236	47.4	-5.39717E-001	-1.73907E-007	0.00000E+000	-5.40000E-001	9.98692E-004	5	..........a	-327.66
	237	47.6	-5.29808E-001	-1.59788E-007	0.00000E+000	-5.30000E-001	9.87792E-004	5	..........a	-327.66
	238	47.8	-5.19830E-001	-1.46925E-007	0.00000E+000	-5.20000E-001	9.84992E-004	5	..........a	-327.66
	239	48	-5.09818E-001	-1.34903E-007	0.00000E+000	-5.10000E-001	9.99492E-004	5	..........a	-327.66
	240	48.2	-4.99798E-001	-1.23789E-007	0.00000E+000	-5.00000E-001	9.75092E-004	5	..........a	-327.66
	241	48.4	-4.89820E-001	-1.13339E-007	0.00000E+000	-4.90000E-001	9.76892E-004	5	..........a	-327.66
	242	48.6	-4.79819E-001	-1.03507E-007	0.00000E+000	-4.80000E-001	9.81592E-004	5	..........a	-327.66
	243	48.8	-4.69830E-001	-9.41473E-008	0.00000E+000	-4.70000E-001	9.71992E-004	5	..........a	-327.66
	244	49	-4.59785E-001	-8.52583E-008	0.00000E+000	-4.60000E-001	9.58992E-004	5	..........a	-327.66
	245	49.2	-4.49829E-001	-7.68517E-008	0.00000E+000	-4.50000E-001	9.70292E-004	5	..........a	-327.66
	246	49.4	-4.39857E-001	-6.88475E-008	0.00000E+000	-4.40000E-001	9.87692E-004	5	..........a	-327.66
	247	49.6	-4.29848E-001	-6.11549E-008	0.00000E+000	-4.30000E-001	9.88592E-004	5	..........a	-327.66
	248	49.8	-4.19788E-001	-5.39032E-008	0.00000E+000	-4.20000E-001	9.72492E-004	5	..........a	-327.66
	249	50	-4.09854E-001	-4.67952E-008	0.00000E+000	-4.10000E-001	9.80392E-004	5	..........a	-327.66
	250	50.2	-3.99854E-001	-3.99808E-008	0.00000E+000	-4.00000E-001	9.79092E-004	5	..........a	-327.66
	251	50.4	-3.89914E-001	-3.34888E-008	0.00000E+000	-3.90000E-001	9.95492E-004	5	..........a	-327.66
	252	50.6	-3.79841E-001	-2.72337E-008	0.00000E+000	-3.80000E-001	9.68792E-004	5	..........a	-327.66
	253	50.8	-3.69841E-001	-2.11962E-008	0.00000E+000	-3.70000E-001	9.70292E-004	5	..........a	-327.66
	254	51	-3.59886E-001	-1.52965E-008	0.00000E+000	-3.60000E-001	9.97192E-004	5	..........a	-327.66
	255	51.2	-3.49875E-001	-9.59839E-009	0.00000E+000	-3.50000E-001	9.75892E-004	5	..........a	-327.66
	256	51.4	-3.39838E-001	-4.07635E-009	0.00000E+000	-3.40000E-001	9.72292E-004	5	..........a	-327.66
	257	51.6	-3.29930E-001	1.28527E-009	0.00000E+000	-3.30000E-001	9.78792E-004	5	..........a	-327.66
	258	51.8	-3.19887E-001	6.52841E-009	0.00000E+000	-3.20000E-001	9.64292E-004	5	..........a	-327.66
	259	52	-3.09925E-001	1.17003E-008	0.00000E+000	-3.10000E-001	9.78792E-004	5	..........a	-327.66
	260	52.2	-2.99866E-001	1.65651E-008	0.00000E+000	-3.00000E-001	9.96692E-004	5	..........a	-327.66
	261	52.4	-2.89925E-001	2.13197E-008	0.00000E+000	-2.90000E-001	9.78292E-004	5	..........a	-327.66
	262	52.6	-2.79928E-001	2.60668E-008	0.00000E+000	-2.80000E-001	9.75092E-004	5	..........a	-327.66
	263	52.8	-2.69888E-001	3.06333E-008	0.00000E+000	-2.70000E-001	9.84592E-004	5	..........a	-327.66
	264	53	-2.59850E-001	3.51688E-008	0.00000E+000	-2.60000E-001	9.69992E-004	5	..........a	-327.66
	265	53.2	-2.49912E-001	3.95417E-008	0.00000E+000	-2.50000E-001	9.67592E-004	5	..........a	-327.66
	266	53.4	-2.39978E-001	4.39343E-008	0.00000E+000	-2.40000E-001	9.74092E-004	5	..........a	-327.66
	267	53.6	-2.29982E-001	4.81658E-008	0.00000E+000	-2.30000E-001	9.88092E-004	5	..........a	-327.66
	268	53.8	-2.19904E-001	5.23626E-008	0.00000E+000	-2.20000E-001	9.78092E-004	5	..........a	-327.66
	269	54	-2.09918E-001	5.64330E-008	0.00000E+000	-2.10000E-001	9.75992E-004	5	..........a	-327.66
	270	54.2	-1.99995E-001	6.04814E-008	0.00000E+000	-2.00000E-001	9.81292E-004	5	..........a	-327.66
	271	54.4	-1.90044E-001	6.44958E-008	0.00000E+000	-1.90000E-001	9.74292E-004	5	..........a	-327.66
	272	54.6	-1.79965E-001	6.84837E-008	0.00000E+000	-1.80000E-001	9.72292E-004	5	..........a	-327.66
	273	54.8	-1.69932E-001	7.28070E-008	0.00000E+000	-1.70000E-001	9.80092E-004	5	..........a	-327.66
	274	55	-1.60007E-001	7.66394E-008	0.00000E+000	-1.60000E-001	1.00249E-003	5	..........a	-327.66
	275	55.2	-1.50025E-001	8.01990E-008	0.00000E+000	-1.50000E-001	9.83192E-004	5	..........a	-327.66
	276	55.4	-1.39944E-001	8.39674E-008	0.00000E+000	-1.40000E-001	9.63892E-004	5	..........a	-327.66
	277	55.6	-1.29983E-001	8.76712E-008	0.00000E+000	-1.30000E-001	9.92892E-004	5	..........a	-327.66
	278	55.8	-1.20005E-001	9.14170E-008	0.00000E+000	-1.20000E-001	9.76992E-004	5	..........a	-327.66
	279	56	-1.10040E-001	9.51779E-008	0.00000E+000	-1.10000E-001	9.78192E-004	5	..........a	-327.66
	280	56.2	-9.99709E-002	9.88960E-008	0.00000E+000	-1.00000E-001	9.80292E-004	5	..........a	-327.66
	281	56.4	-8.99538E-002	1.02621E-007	0.00000E+000	-9.00000E-002	9.84692E-004	5	..........a	-327.66
	282	56.6	-8.00347E-002	1.06312E-007	0.00000E+000	-8.00000E-002	9.88592E-004	5	..........a	-327.66
	283	56.8	-6.99946E-002	1.10381E-007	0.00000E+000	-7.00000E-002	9.93092E-004	5	..........a	-327.66
	284	57	-5.99777E-002	1.13805E-007	0.00000E+000	-6.00000E-002	9.74492E-004	5	..........a	-327.66
	285	57.2	-4.99577E-002	1.17618E-007	0.00000E+000	-5.00000E-002	9.76492E-004	5	..........a	-327.66
	286	57.4	-3.99996E-002	1.21737E-007	0.00000E+000	-4.00000E-002	9.80992E-004	5	..........a	-327.66
	287	57.6	-3.00283E-002	1.25182E-007	0.00000E+000	-3.00000E-002	9.83892E-004	5	..........a	-327.66
	288	57.8	-1.99981E-002	1.28891E-007	0.00000E+000	-2.00000E-002	9.88192E-004	5	..........a	-327.66
	289	58	-9.92751E-003	1.32686E-007	0.00000E+000	-1.00000E-002	9.75292E-004	5	..........a	-327.66
	290	58.2	-6.47583E-005	1.36547E-007	0.00000E+000	7.45058E-009	9.70992E-004	5	..........a	-327.66
	291	58.4	1.00207E-002	1.40399E-007	0.00000E+000	1.00000E-002	9.79592E-004	5	..........a	-327.66
	292	58.6	2.00418E-002	1.44286E-007	0.00000E+000	2.00000E-002	9.94392E-004	5	..........a	-327.66
	293	58.8	3.00046E-002	1.48267E-007	0.00000E+000	3.00000E-002	1.00809E-003	5	..........a	-327.66
	294	59	3.99963E-002	1.52212E-007	0.00000E+000	4.00000E-002	9.86392E-004	5	..........a	-327.66
	295	59.2	4.99645E-002	1.56279E-007	0.00000E+000	5.00000E-002	1.01619E-003	5	..........a	-327.66
	296	59.4	5.99998E-002	1.60320E-007	0.00000E+000	6.00000E-002	9.84492E-004	5	..........a	-327.66
	297	59.6	6.99573E-002	1.64714E-007	0.00000E+000	7.00000E-002	9.98492E-004	5	..........a	-327.66
	298	59.8	7.99312E-002	1.68923E-007	0.00000E+000	8.00000E-002	9.88392E-004	5	..........a	-327.66
	299	60	8.99985E-002	1.73408E-007	0.00000E+000	9.00000E-002	9.85392E-004	5	..........a	-327.66
	300	60.2	9.99700E-002	1.77877E-007	0.00000E+000	1.00000E-001	9.94292E-004	5	..........a	-327.66
	301	60.4	1.10009E-001	1.82587E-007	0.00000E+000	1.10000E-001	9.84592E-004	5	..........a	-327.66
	302	60.6	1.19931E-001	1.87412E-007	0.00000E+000	1.20000E-001	9.82792E-004	5	..........a	-327.66
	303	60.8	1.29943E-001	1.92319E-007	0.00000E+000	1.30000E-001	9.78792E-004	5	..........a	-327.66
	304	61	1.39981E-001	1.97340E-007	0.00000E+000	1.40000E-001	9.83692E-004	5	..........a	-327.66
	305	61.2	1.49995E-001	2.02427E-007	0.00000E+000	1.50000E-001	9.88492E-004	5	..........a	-327.66
	306	61.4	1.59933E-001	2.07601E-007	0.00000E+000	1.60000E-001	9.85392E-004	5	..........a	-327.66
	307	61.6	1.69965E-001	2.12873E-007	0.00000E+000	1.70000E-001	9.79292E-004	5	..........a	-327.66
	308	61.8	1.79930E-001	2.18069E-007	0.00000E+000	1.80000E-001	9.80192E-004	5	..........a	-327.66
	309	62	1.89996E-001	2.23261E-007	0.00000E+000	1.90000E-001	1.00239E-003	5	..........a	-327.66
	310	62.2	1.99922E-001	2.28130E-007	0.00000E+000	2.00000E-001	9.81592E-004	5	..........a	-327.66
	311	62.4	2.09899E-001	2.32118E-007	0.00000E+000	2.10000E-001	1.00039E-003	5	..........a	-327.66
	312	62.6	2.19846E-001	2.35504E-007	0.00000E+000	2.20000E-001	9.66792E-004	5	..........a	-327.66
	313	62.8	2.29963E-001	2.38330E-007	0.00000E+000	2.30000E-001	9.85292E-004	5	..........a	-327.66
	314	63	2.39909E-001	2.40604E-007	0.00000E+000	2.40000E-001	9.89492E-004	5	..........a	-327.66
	315	63.2	2.49920E-001	2.42834E-007	0.00000E+000	2.50000E-001	9.68992E-004	5	..........a	-327.66
	316	63.4	2.59896E-001	2.45313E-007	0.00000E+000	2.60000E-001	9.77492E-004	5	..........a	-327.66
	317	63.6	2.69985E-001	2.48166E-007	0.00000E+000	2.70000E-001	9.93092E-004	5	..........a	-327.66
	318	63.8	2.79883E-001	2.51490E-007	0.00000E+000	2.80000E-001	9.84392E-004	5	..........a	-327.66
	319	64	2.89889E-001	2.54694E-007	0.00000E+000	2.90000E-001	9.98992E-004	5	..........a	-327.66
	320	64.2	2.99897E-001	2.58216E-007	0.00000E+000	3.00000E-001	9.72992E-004	5	..........a	-327.66
	321	64.4	3.09968E-001	2.61866E-007	0.00000E+000	3.10000E-001	9.91492E-004	5	..........a	-327.66
	322	64.6	3.19887E-001	2.65839E-007	0.00000E+000	3.20000E-001	9.74892E-004	5	..........a	-327.66
	323	64.8	3.29904E-001	2.72878E-007	0.00000E+000	3.30000E-001	9.69592E-004	5	..........a	-327.66
	324	65	3.39906E-001	2.78316E-007	0.00000E+000	3.40000E-001	9.79792E-004	5	..........a	-327.66
	325	65.2	3.49968E-001	2.80387E-007	0.00000E+000	3.50000E-001	9.91892E-004	5	..........a	-327.66
	326	65.4	3.59872E-001	2.85748E-007	0.00000E+000	3.60000E-001	9.76792E-004	5	..........a	-327.66
	327	65.6	3.69889E-001	2.88963E-007	0.00000E+000	3.70000E-001	9.73892E-004	5	..........a	-327.66
	328	65.8	3.79872E-001	2.93032E-007	0.00000E+000	3.80000E-001	9.78092E-004	5	..........a	-327.66
	329	66	3.89943E-001	2.97948E-007	0.00000E+000	3.90000E-001	9.69592E-004	5	..........a	-327.66
	330	66.2	3.99864E-001	3.03962E-007	0.00000E+000	4.00000E-001	9.70992E-004	5	..........a	-327.66
	331	66.4	4.09866E-001	3.10614E-007	0.00000E+000	4.10000E-001	9.77192E-004	5	..........a	-327.66
	332	66.6	4.19842E-001	3.13990E-007	0.00000E+000	4.20000E-001	9.72792E-004	5	..........a	-327.66
	333	66.8	4.29941E-001	3.18828E-007	0.00000E+000	4.30000E-001	9.83692E-004	5	..........a	-327.66
	334	67	4.39821E-001	3.26268E-007	0.00000E+000	4.40000E-001	9.80692E-004	5	..........a	-327.66
	335	67.2	4.49799E-001	3.31068E-007	0.00000E+000	4.50000E-001	9.71892E-004	5	..........a	-327.66
	336	67.4	4.59836E-001	3.35927E-007	0.00000E+000	4.60000E-001	9.84292E-004	5	..........a	-327.66
	337	67.6	4.69886E-001	3.41036E-007	0.00000E+000	4.70000E-001	9.91192E-004	5	..........a	-327.66
	338	67.8	4.79783E-001	3.46041E-007	0.00000E+000	4.80000E-001	9.64992E-004	5	..........a	-327.66
	339	68	4.89777E-001	3.70860E-007	0.00000E+000	4.90000E-001	9.91892E-004	5	..........a	-327.66
	340	68.2	4.99826E-001	3.70268E-007	0.00000E+000	5.00000E-001	9.86092E-004	5	..........a	-327.66
	341	68.4	5.09892E-001	3.73337E-007	0.00000E+000	5.10000E-001	9.96792E-004	5	..........a	-327.66
	342	68.6	5.19816E-001	3.83667E-007	0.00000E+000	5.20000E-001	9.68292E-004	5	..........a	-327.66
	343	68.8	5.29814E-001	3.88807E-007	0.00000E+000	5.30000E-001	9.81892E-004	5	..........a	-327.66
	344	69	5.39811E-001	3.92032E-007	0.00000E+000	5.40000E-001	9.76492E-004	5	..........a	-327.66
	345	69.2	5.49835E-001	3.95969E-007	0.00000E+000	5.50000E-001	9.77192E-004	5	..........a	-327.66
	346	69.4	5.59805E-001	4.02032E-007	0.00000E+000	5.60000E-001	9.76892E-004	5	..........a	-327.66
	347	69.6	5.69746E-001	4.11805E-007	0.00000E+000	5.70000E-001	9.80692E-004	5	..........a	-327.66
	348	69.8	5.79714E-001	5.57826E-007	0.00000E+000	5.80000E-001	9.68692E-004	5	..........a	-327.66
	349	70	5.90009E-001	4.81550E-007	0.00000E+000	5.90000E-001	9.84292E-004	6	..........a	-327.66
	350	70.2	5.99773E-001	4.63732E-007	0.00000E+000	6.00000E-001	9.71992E-004	5	..........a	-327.66
	351	70.4	6.09723E-001	5.01626E-007	0.00000E+000	6.10000E-001	9.75692E-004	5	..........a	-327.66
	352	70.6	6.19722E-001	4.77934E-007	0.00000E+000	6.20000E-001	9.71792E-004	5	..........a	-327.66
	353	70.8	6.29804E-001	4.68564E-007	0.00000E+000	6.30000E-001	9.87592E-004	5	..........a	-327.66
	354	71	6.39694E-001	4.64239E-007	0.00000E+000	6.40000E-001	9.90792E-004	5	..........a	-327.66
[...]
	922	184.6	7.19716E-001	4.61350E-007	0.00000E+000	7.20000E-001	9.85192E-004	5	..........a	-327.66
	923	184.8	7.29730E-001	4.69837E-007	0.00000E+000	7.30000E-001	9.70392E-004	5	..........a	-327.66
	924	185	7.39712E-001	4.76127E-007	0.00000E+000	7.40000E-001	9.72992E-004	5	..........a	-327.66
	925	185.2	7.49777E-001	4.81000E-007	0.00000E+000	7.50000E-001	9.61192E-004	5	..........a	-327.66
	926	185.4	7.59686E-001	4.96462E-007	0.00000E+000	7.60000E-001	9.78492E-004	5	..........a	-327.66
	927	185.6	7.69680E-001	5.03179E-007	0.00000E+000	7.70000E-001	9.77092E-004	5	..........a	-327.66
	928	185.8	7.79713E-001	5.19929E-007	0.00000E+000	7.80000E-001	9.64792E-004	5	..........a	-327.66
	929	186	7.89780E-001	5.27534E-007	0.00000E+000	7.90000E-001	9.65392E-004	5	..........a	-327.66
	930	186.2	7.99684E-001	5.34834E-007	0.00000E+000	8.00000E-001	9.84892E-004	5	..........a	-327.66
	931	186.4	7.89972E-001	4.73294E-007	0.00000E+000	7.90000E-001	9.84792E-004	6	..........a	-327.66
	932	186.6	7.79752E-001	4.34391E-007	0.00000E+000	7.80000E-001	9.72692E-004	5	..........a	-327.66
	933	186.8	7.69750E-001	3.99621E-007	0.00000E+000	7.70000E-001	9.79692E-004	5	..........a	-327.66
	934	187	7.59756E-001	3.69460E-007	0.00000E+000	7.60000E-001	9.79092E-004	5	..........a	-327.66
	935	187.2	7.49857E-001	3.45371E-007	0.00000E+000	7.50000E-001	9.63392E-004	5	..........a	-327.66
	936	187.4	7.39794E-001	3.22189E-007	0.00000E+000	7.40000E-001	9.74492E-004	5	..........a	-327.66
	937	187.6	7.29823E-001	3.03395E-007	0.00000E+000	7.30000E-001	9.74092E-004	5	..........a	-327.66
	938	187.8	7.19814E-001	2.84935E-007	0.00000E+000	7.20000E-001	9.70392E-004	5	..........a	-327.66
	939	188	7.09920E-001	2.67534E-007	0.00000E+000	7.10000E-001	9.76192E-004	5	..........a	-327.66
	940	188.2	6.99827E-001	2.52711E-007	0.00000E+000	7.00000E-001	9.73292E-004	5	..........a	-327.66
	941	188.4	6.89851E-001	2.40271E-007	0.00000E+000	6.90000E-001	9.71192E-004	5	..........a	-327.66
	942	188.6	6.79840E-001	2.27074E-007	0.00000E+000	6.80000E-001	9.73592E-004	5	..........a	-327.66
	943	188.8	6.69907E-001	2.13700E-007	0.00000E+000	6.70000E-001	9.80292E-004	5	..........a	-327.66
	944	189	6.59858E-001	2.02593E-007	0.00000E+000	6.60000E-001	9.75492E-004	5	..........a	-327.66
	945	189.2	6.49840E-001	1.90692E-007	0.00000E+000	6.50000E-001	9.84692E-004	5	..........a	-327.66
	946	189.4	6.39835E-001	1.79391E-007	0.00000E+000	6.40000E-001	9.85792E-004	5	..........a	-327.66
	947	189.6	6.29971E-001	1.68424E-007	0.00000E+000	6.30000E-001	9.82992E-004	5	..........a	-327.66
	948	189.8	6.19870E-001	1.58189E-007	0.00000E+000	6.20000E-001	9.51292E-004	5	..........a	-327.66
	949	190	6.09912E-001	1.51586E-007	0.00000E+000	6.10000E-001	9.78792E-004	5	..........a	-327.66
	950	190.2	5.99905E-001	1.39962E-007	0.00000E+000	6.00000E-001	9.60992E-004	5	..........a	-327.66
	951	190.4	5.89976E-001	1.30533E-007	0.00000E+000	5.90000E-001	9.86292E-004	5	..........a	-327.66
	952	190.6	5.79940E-001	1.21734E-007	0.00000E+000	5.80000E-001	9.71492E-004	5	..........a	-327.66
	953	190.8	5.69940E-001	1.13229E-007	0.00000E+000	5.70000E-001	9.82692E-004	5	..........a	-327.66
	954	191	5.59912E-001	1.04820E-007	0.00000E+000	5.60000E-001	9.69492E-004	5	..........a	-327.66
	955	191.2	5.49995E-001	9.68925E-008	0.00000E+000	5.50000E-001	9.59392E-004	5	..........a	-327.66
	956	191.4	5.39949E-001	8.94313E-008	0.00000E+000	5.40000E-001	9.70192E-004	5	..........a	-327.66
	957	191.6	5.29943E-001	8.18672E-008	0.00000E+000	5.30000E-001	9.79692E-004	5	..........a	-327.66
	958	191.8	5.19955E-001	7.41961E-008	0.00000E+000	5.20000E-001	9.81792E-004	5	..........a	-327.66
	959	192	5.09983E-001	6.68837E-008	0.00000E+000	5.10000E-001	9.89092E-004	5	..........a	-327.66
	960	192.2	5.00015E-001	5.97395E-008	0.00000E+000	5.00000E-001	9.75792E-004	5	..........a	-327.66
	961	192.4	4.89932E-001	5.27241E-008	0.00000E+000	4.90000E-001	9.81592E-004	5	..........a	-327.66
	962	192.6	4.79908E-001	4.56783E-008	0.00000E+000	4.80000E-001	9.78192E-004	5	..........a	-327.66
	963	192.8	4.70021E-001	3.86325E-008	0.00000E+000	4.70000E-001	9.85392E-004	5	..........a	-327.66
	964	193	4.59994E-001	3.20068E-008	0.00000E+000	4.60000E-001	9.89692E-004	5	..........a	-327.66
	965	193.2	4.49905E-001	2.56182E-008	0.00000E+000	4.50000E-001	9.76092E-004	5	..........a	-327.66
	966	193.4	4.39943E-001	1.92627E-008	0.00000E+000	4.40000E-001	9.92492E-004	5	..........a	-327.66
	967	193.6	4.29979E-001	1.28129E-008	0.00000E+000	4.30000E-001	9.94992E-004	5	..........a	-327.66
	968	193.8	4.20030E-001	6.61645E-009	0.00000E+000	4.20000E-001	9.66392E-004	5	..........a	-327.66
	969	194	4.09962E-001	2.48076E-010	0.00000E+000	4.10000E-001	9.90792E-004	5	..........a	-327.66
	970	194.2	4.00054E-001	-5.84084E-009	0.00000E+000	4.00000E-001	9.77692E-004	5	..........a	-327.66
	971	194.4	3.90066E-001	-1.18728E-008	0.00000E+000	3.90000E-001	9.76492E-004	5	..........a	-327.66
	972	194.6	3.80102E-001	-1.77395E-008	0.00000E+000	3.80000E-001	9.79092E-004	5	..........a	-327.66
	973	194.8	3.70065E-001	-2.37116E-008	0.00000E+000	3.70000E-001	9.73792E-004	5	..........a	-327.66
	974	195	3.60030E-001	-2.94528E-008	0.00000E+000	3.60000E-001	9.79992E-004	5	..........a	-327.66
	975	195.2	3.50046E-001	-3.52568E-008	0.00000E+000	3.50000E-001	9.72992E-004	5	..........a	-327.66
	976	195.4	3.40116E-001	-4.10396E-008	0.00000E+000	3.40000E-001	9.74992E-004	5	..........a	-327.66
	977	195.6	3.30063E-001	-4.67272E-008	0.00000E+000	3.30000E-001	9.81392E-004	5	..........a	-327.66
	978	195.8	3.20073E-001	-5.23684E-008	0.00000E+000	3.20000E-001	9.85492E-004	5	..........a	-327.66
	979	196	3.10059E-001	-5.80242E-008	0.00000E+000	3.10000E-001	9.82892E-004	5	..........a	-327.66
	980	196.2	3.00142E-001	-6.36996E-008	0.00000E+000	3.00000E-001	9.80992E-004	5	..........a	-327.66
	981	196.4	2.90080E-001	-6.92859E-008	0.00000E+000	2.90000E-001	9.71392E-004	5	..........a	-327.66
	982	196.6	2.80018E-001	-7.49241E-008	0.00000E+000	2.80000E-001	9.75392E-004	5	..........a	-327.66
	983	196.8	2.70118E-001	-8.05612E-008	0.00000E+000	2.70000E-001	9.71092E-004	5	..........a	-327.66
	984	197	2.60121E-001	-8.61756E-008	0.00000E+000	2.60000E-001	9.55992E-004	5	..........a	-327.66
	985	197.2	2.50069E-001	-9.17466E-008	0.00000E+000	2.50000E-001	9.78492E-004	5	..........a	-327.66
	986	197.4	2.40097E-001	-9.25385E-008	0.00000E+000	2.40000E-001	9.69592E-004	5	..........a	-327.66
	987	197.6	2.30045E-001	-9.83539E-008	0.00000E+000	2.30000E-001	9.79292E-004	5	..........a	-327.66
	988	197.8	2.20143E-001	-1.05183E-007	0.00000E+000	2.20000E-001	9.52792E-004	5	..........a	-327.66
	989	198	2.10092E-001	-1.11625E-007	0.00000E+000	2.10000E-001	9.69092E-004	5	..........a	-327.66
	990	198.2	2.00112E-001	-1.17717E-007	0.00000E+000	2.00000E-001	9.82992E-004	5	..........a	-327.66
	991	198.4	1.90155E-001	-1.23605E-007	0.00000E+000	1.90000E-001	9.69292E-004	5	..........a	-327.66
	992	198.6	1.80205E-001	-1.29096E-007	0.00000E+000	1.80000E-001	9.89692E-004	5	..........a	-327.66
	993	198.8	1.70155E-001	-1.34300E-007	0.00000E+000	1.70000E-001	9.61692E-004	5	..........a	-327.66
	994	199	1.60112E-001	-1.39279E-007	0.00000E+000	1.60000E-001	9.89392E-004	5	..........a	-327.66
	995	199.2	1.50136E-001	-1.43885E-007	0.00000E+000	1.50000E-001	9.84092E-004	5	..........a	-327.66
	996	199.4	1.40194E-001	-1.48096E-007	0.00000E+000	1.40000E-001	9.76592E-004	5	..........a	-327.66
	997	199.6	1.30151E-001	-1.51959E-007	0.00000E+000	1.30000E-001	9.83592E-004	5	..........a	-327.66
	998	199.8	1.20131E-001	-1.55605E-007	0.00000E+000	1.20000E-001	9.93592E-004	5	..........a	-327.66
	999	200	1.10154E-001	-1.58993E-007	0.00000E+000	1.10000E-001	9.72092E-004	5	..........a	-327.66
	1000	200.2	1.00237E-001	-1.62133E-007	0.00000E+000	1.00000E-001	9.75292E-004	5	..........a	-327.66
	1001	200.4	9.01691E-002	-1.65208E-007	0.00000E+000	9.00000E-002	9.66792E-004	5	..........a	-327.66
	1002	200.6	8.01502E-002	-1.68072E-007	0.00000E+000	8.00000E-002	9.85192E-004	5	..........a	-327.66
	1003	200.8	7.01337E-002	-1.70869E-007	0.00000E+000	7.00000E-002	9.98192E-004	5	..........a	-327.66
	1004	201	6.02057E-002	-1.73589E-007	0.00000E+000	6.00000E-002	9.78092E-004	5	..........a	-327.66
	1005	201.2	5.01575E-002	-1.76238E-007	0.00000E+000	5.00000E-002	9.72192E-004	5	..........a	-327.66
	1006	201.4	4.01436E-002	-1.78862E-007	0.00000E+000	4.00000E-002	9.69392E-004	5	..........a	-327.66
	1007	201.6	3.01463E-002	-1.81359E-007	0.00000E+000	3.00000E-002	9.68792E-004	5	..........a	-327.66
	1008	201.8	2.02671E-002	-1.83836E-007	0.00000E+000	2.00000E-002	9.81192E-004	5	..........a	-327.66
	1009	202	1.01834E-002	-1.86330E-007	0.00000E+000	1.00000E-002	9.55992E-004	5	..........a	-327.66
	1010	202.2	1.36992E-004	-1.88801E-007	0.00000E+000	7.45058E-009	9.88392E-004	5	..........a	-327.66
	1011	202.4	-9.83391E-003	-1.91225E-007	0.00000E+000	-1.00000E-002	9.73892E-004	5	..........a	-327.66
	1012	202.6	-1.97976E-002	-1.93603E-007	0.00000E+000	-2.00000E-002	9.62892E-004	5	..........a	-327.66
	1013	202.8	-2.98319E-002	-1.96023E-007	0.00000E+000	-3.00000E-002	9.57892E-004	5	..........a	-327.66
	1014	203	-3.98129E-002	-1.98428E-007	0.00000E+000	-4.00000E-002	9.85892E-004	5	..........a	-327.66
	1015	203.2	-4.98309E-002	-2.00946E-007	0.00000E+000	-5.00000E-002	9.70692E-004	5	..........a	-327.66
	1016	203.4	-5.97302E-002	-2.03474E-007	0.00000E+000	-6.00000E-002	9.76192E-004	5	..........a	-327.66
	1017	203.6	-6.98268E-002	-2.06137E-007	0.00000E+000	-7.00000E-002	9.77292E-004	5	..........a	-327.66
	1018	203.8	-7.98173E-002	-2.08664E-007	0.00000E+000	-8.00000E-002	9.97992E-004	5	..........a	-327.66
	1019	204	-8.98279E-002	-2.11303E-007	0.00000E+000	-9.00000E-002	9.75892E-004	5	..........a	-327.66
	1020	204.2	-9.97639E-002	-2.13985E-007	0.00000E+000	-1.00000E-001	9.68692E-004	5	..........a	-327.66
	1021	204.4	-1.09850E-001	-2.16755E-007	0.00000E+000	-1.10000E-001	9.79092E-004	5	..........a	-327.66
	1022	204.6	-1.19833E-001	-2.19588E-007	0.00000E+000	-1.20000E-001	9.82892E-004	5	..........a	-327.66
	1023	204.8	-1.29858E-001	-2.22434E-007	0.00000E+000	-1.30000E-001	9.69492E-004	5	..........a	-327.66
	1024	205	-1.39744E-001	-2.25369E-007	0.00000E+000	-1.40000E-001	9.76392E-004	5	..........a	-327.66
	1025	205.2	-1.49837E-001	-2.28354E-007	0.00000E+000	-1.50000E-001	9.87792E-004	5	..........a	-327.66
	1026	205.4	-1.59830E-001	-2.31398E-007	0.00000E+000	-1.60000E-001	9.78692E-004	5	..........a	-327.66
	1027	205.6	-1.69820E-001	-2.34533E-007	0.00000E+000	-1.70000E-001	9.78092E-004	5	..........a	-327.66
	1028	205.8	-1.79749E-001	-2.37587E-007	0.00000E+000	-1.80000E-001	9.53392E-004	5	..........a	-327.66
	1029	206	-1.89890E-001	-2.40860E-007	0.00000E+000	-1.90000E-001	9.77692E-004	5	..........a	-327.66
	1030	206.2	-1.99850E-001	-2.44184E-007	0.00000E+000	-2.00000E-001	9.58592E-004	5	..........a	-327.66
	1031	206.4	-2.09793E-001	-2.47489E-007	0.00000E+000	-2.10000E-001	9.73192E-004	5	..........a	-327.66
	1032	206.6	-2.19768E-001	-2.50622E-007	0.00000E+000	-2.20000E-001	9.64892E-004	5	..........a	-327.66
	1033	206.8	-2.29812E-001	-2.53737E-007	0.00000E+000	-2.30000E-001	9.79792E-004	5	..........a	-327.66
	1034	207	-2.39770E-001	-2.56614E-007	0.00000E+000	-2.40000E-001	9.85992E-004	5	..........a	-327.66
	1035	207.2	-2.49794E-001	-2.59398E-007	0.00000E+000	-2.50000E-001	9.78692E-004	5	..........a	-327.66
	1036	207.4	-2.59680E-001	-2.61992E-007	0.00000E+000	-2.60000E-001	9.75992E-004	5	..........a	-327.66
	1037	207.6	-2.69788E-001	-2.64498E-007	0.00000E+000	-2.70000E-001	9.76892E-004	5	..........a	-327.66
	1038	207.8	-2.79783E-001	-2.66823E-007	0.00000E+000	-2.80000E-001	9.79192E-004	5	..........a	-327.66
	1039	208	-2.89777E-001	-2.69133E-007	0.00000E+000	-2.90000E-001	9.88792E-004	5	..........a	-327.66
	1040	208.2	-2.99725E-001	-2.71272E-007	0.00000E+000	-3.00000E-001	9.53692E-004	5	..........a	-327.66
	1041	208.4	-3.09779E-001	-2.73298E-007	0.00000E+000	-3.10000E-001	9.79892E-004	5	..........a	-327.66
	1042	208.6	-3.19752E-001	-2.75235E-007	0.00000E+000	-3.20000E-001	9.67992E-004	5	..........a	-327.66
	1043	208.8	-3.29788E-001	-2.77026E-007	0.00000E+000	-3.30000E-001	9.76192E-004	5	..........a	-327.66
	1044	209	-3.39674E-001	-2.78682E-007	0.00000E+000	-3.40000E-001	9.73792E-004	5	..........a	-327.66
	1045	209.2	-3.49780E-001	-2.80226E-007	0.00000E+000	-3.50000E-001	9.68692E-004	5	..........a	-327.66
	1046	209.4	-3.59768E-001	-2.81644E-007	0.00000E+000	-3.60000E-001	9.83392E-004	5	..........a	-327.66
	1047	209.6	-3.69772E-001	-2.82931E-007	0.00000E+000	-3.70000E-001	9.80292E-004	5	..........a	-327.66
	1048	209.8	-3.79694E-001	-2.84079E-007	0.00000E+000	-3.80000E-001	9.66892E-004	5	..........a	-327.66
	1049	210	-3.89774E-001	-2.85218E-007	0.00000E+000	-3.90000E-001	9.68692E-004	5	..........a	-327.66
	1050	210.2	-3.99773E-001	-2.86278E-007	0.00000E+000	-4.00000E-001	9.81792E-004	5	..........a	-327.66
	1051	210.4	-4.09764E-001	-2.87156E-007	0.00000E+000	-4.10000E-001	9.85992E-004	5	..........a	-327.66
	1052	210.6	-4.19651E-001	-2.88066E-007	0.00000E+000	-4.20000E-001	9.54492E-004	5	..........a	-327.66
	1053	210.8	-4.29754E-001	-2.76872E-007	0.00000E+000	-4.30000E-001	9.78092E-004	5	..........a	-327.66
	1054	211	-4.39751E-001	-2.85301E-007	0.00000E+000	-4.40000E-001	9.86692E-004	5	..........a	-327.66
	1055	211.2	-4.49764E-001	-2.89007E-007	0.00000E+000	-4.50000E-001	9.83292E-004	5	..........a	-327.66
	1056	211.4	-4.59675E-001	-2.88365E-007	0.00000E+000	-4.60000E-001	9.80692E-004	5	..........a	-327.66
	1057	211.6	-4.69735E-001	-2.89595E-007	0.00000E+000	-4.70000E-001	9.87192E-004	5	..........a	-327.66
	1058	211.8	-4.79764E-001	-2.82820E-007	0.00000E+000	-4.80000E-001	9.88792E-004	5	..........a	-327.66
	1059	212	-4.89751E-001	-2.87331E-007	0.00000E+000	-4.90000E-001	9.78892E-004	5	..........a	-327.66
	1060	212.2	-4.99704E-001	-2.92587E-007	0.00000E+000	-5.00000E-001	9.68292E-004	5	..........a	-327.66
	1061	212.4	-5.09739E-001	-2.91856E-007	0.00000E+000	-5.10000E-001	9.70892E-004	5	..........a	-327.66
	1062	212.6	-5.19740E-001	-2.95748E-007	0.00000E+000	-5.20000E-001	9.92692E-004	5	..........a	-327.66
	1063	212.8	-5.29750E-001	-2.94437E-007	0.00000E+000	-5.30000E-001	9.78492E-004	5	..........a	-327.66
	1064	213	-5.39668E-001	-2.93318E-007	0.00000E+000	-5.40000E-001	9.87592E-004	5	..........a	-327.66
	1065	213.2	-5.49754E-001	-2.99131E-007	0.00000E+000	-5.50000E-001	9.79392E-004	5	..........a	-327.66
	1066	213.4	-5.59766E-001	-3.02347E-007	0.00000E+000	-5.60000E-001	9.96792E-004	5	..........a	-327.66
	1067	213.6	-5.69741E-001	-3.01280E-007	0.00000E+000	-5.70000E-001	9.85992E-004	5	..........a	-327.66
	1068	213.8	-5.79688E-001	-3.01660E-007	0.00000E+000	-5.80000E-001	9.89292E-004	5	..........a	-327.66
	1069	214	-5.89749E-001	-3.07194E-007	0.00000E+000	-5.90000E-001	9.81992E-004	5	..........a	-327.66
	1070	214.2	-5.99760E-001	-3.10716E-007	0.00000E+000	-6.00000E-001	9.71292E-004	5	..........a	-327.66
CURVE5	TABLE
	Pt	T	Vf	Im	Vu	Sig	Ach	IERange	Over	Temp
	#	s	V vs. Ref.	A	V	V	V	#	bits	deg C
	1071	214.4	-5.89767E-001	-2.64798E-007	0.00000E+000	-5.90000E-001	9.91492E-004	5	..........a	-327.66
	1072	214.6	-5.79716E-001	-2.35888E-007	0.00000E+000	-5.80000E-001	9.56092E-004	5	..........a	-327.66
	1073	214.8	-5.69786E-001	-2.11672E-007	0.00000E+000	-5.70000E-001	9.70992E-004	5	..........a	-327.66
	1074	215	-5.59813E-001	-1.75558E-007	0.00000E+000	-5.60000E-001	9.80592E-004	5	..........a	-327.66
	1075	215.2	-5.49815E-001	-1.65561E-007	0.00000E+000	-5.50000E-001	9.71292E-004	5	..........a	-327.66
	1076	215.4	-5.39715E-001	-1.52443E-007	0.00000E+000	-5.40000E-001	9.78092E-004	5	..........a	-327.66
	1077	215.6	-5.29809E-001	-1.39499E-007	0.00000E+000	-5.30000E-001	9.76892E-004	5	..........a	-327.66
	1078	215.8	-5.19795E-001	-1.27300E-007	0.00000E+000	-5.20000E-001	9.84292E-004	5	..........a	-327.66
	1079	216	-5.09815E-001	-1.16153E-007	0.00000E+000	-5.10000E-001	9.73992E-004	5	..........a	-327.66
	1080	216.2	-4.99797E-001	-1.05858E-007	0.00000E+000	-5.00000E-001	9.68192E-004	5	..........a	-327.66
	1081	216.4	-4.89818E-001	-9.62361E-008	0.00000E+000	-4.90000E-001	9.78792E-004	5	..........a	-327.66
	1082	216.6	-4.79805E-001	-8.72068E-008	0.00000E+000	-4.80000E-001	9.66992E-004	5	..........a	-327.66
	1083	216.8	-4.69841E-001	-7.78899E-008	0.00000E+000	-4.70000E-001	9.61192E-004	5	..........a	-327.66
	1084	217	-4.59808E-001	-6.15218E-008	0.00000E+000	-4.60000E-001	9.85692E-004	5	..........a	-327.66
	1085	217.2	-4.49842E-001	-5.82943E-008	0.00000E+000	-4.50000E-001	9.80792E-004	5	..........a	-327.66
	1086	217.4	-4.39864E-001	-5.28347E-008	0.00000E+000	-4.40000E-001	9.85092E-004	5	..........a	-327.66
	1087	217.6	-4.29848E-001	-4.67641E-008	0.00000E+000	-4.30000E-001	9.76792E-004	5	..........a	-327.66
	1088	217.8	-4.19810E-001	-4.04408E-008	0.00000E+000	-4.20000E-001	9.71592E-004	5	..........a	-327.66
	1089	218	-4.09866E-001	-3.41062E-008	0.00000E+000	-4.10000E-001	9.77992E-004	5	..........a	-327.66
	1090	218.2	-3.99876E-001	-2.79331E-008	0.00000E+000	-4.00000E-001	9.83792E-004	5	..........a	-327.66
	1091	218.4	-3.89928E-001	-2.19232E-008	0.00000E+000	-3.90000E-001	9.84192E-004	5	..........a	-327.66
	1092	218.6	-3.79844E-001	-1.59708E-008	0.00000E+000	-3.80000E-001	9.67792E-004	5	..........a	-327.66
	1093	218.8	-3.69848E-001	-1.02349E-008	0.00000E+000	-3.70000E-001	9.68892E-004	5	..........a	-327.66
	1094	219	-3.59875E-001	-4.60171E-009	0.00000E+000	-3.60000E-001	9.91992E-004	5	..........a	-327.66
	1095	219.2	-3.49898E-001	8.86000E-010	0.00000E+000	-3.50000E-001	9.57792E-004	5	..........a	-327.66
	1096	219.4	-3.39844E-001	6.28642E-009	0.00000E+000	-3.40000E-001	9.55992E-004	5	..........a	-327.66
	1097	219.6	-3.29930E-001	1.14587E-008	0.00000E+000	-3.30000E-001	1.00759E-003	5	..........a	-327.66
	1098	219.8	-3.19894E-001	1.65247E-008	0.00000E+000	-3.20000E-001	9.62692E-004	5	..........a	-327.66
	1099	220	-3.09940E-001	2.13974E-008	0.00000E+000	-3.10000E-001	9.68792E-004	5	..........a	-327.66
	1100	220.2	-2.99879E-001	2.63399E-008	0.00000E+000	-3.00000E-001	9.66892E-004	5	..........a	-327.66
	1101	220.4	-2.89927E-001	3.09622E-008	0.00000E+000	-2.90000E-001	9.69392E-004	5	..........a	-327.66
	1102	220.6	-2.79941E-001	3.55074E-008	0.00000E+000	-2.80000E-001	9.68492E-004	5	..........a	-327.66
	1103	220.8	-2.69905E-001	4.02479E-008	0.00000E+000	-2.70000E-001	9.75292E-004	5	..........a	-327.66
	1104	221	-2.59874E-001	4.48926E-008	0.00000E+000	-2.60000E-001	9.75192E-004	5	..........a	-327.66
	1105	221.2	-2.49937E-001	4.94056E-008	0.00000E+000	-2.50000E-001	9.76392E-004	5	..........a	-327.66
	1106	221.4	-2.39977E-001	5.38479E-008	0.00000E+000	-2.40000E-001	9.77492E-004	5	..........a	-327.66
	1107	221.6	-2.29964E-001	5.82329E-008	0.00000E+000	-2.30000E-001	9.68392E-004	5	..........a	-327.66
	1108	221.8	-2.19922E-001	6.84741E-008	0.00000E+000	-2.20000E-001	9.92892E-004	5	..........a	-327.66
	1109	222	-2.09945E-001	7.11647E-008	0.00000E+000	-2.10000E-001	9.93592E-004	5	..........a	-327.66
	1110	222.2	-2.00008E-001	7.45758E-008	0.00000E+000	-2.00000E-001	9.72692E-004	5	..........a	-327.66
	1111	222.4	-1.89936E-001	7.77915E-008	0.00000E+000	-1.90000E-001	9.82992E-004	5	..........a	-327.66
	1112	222.6	-1.79978E-001	8.13555E-008	0.00000E+000	-1.80000E-001	9.85292E-004	5	..........a	-327.66
	1113	222.8	-1.69951E-001	8.52507E-008	0.00000E+000	-1.70000E-001	9.84192E-004	5	..........a	-327.66
	1114	223	-1.60056E-001	8.90480E-008	0.00000E+000	-1.60000E-001	9.91092E-004	5	..........a	-327.66
	1115	223.2	-1.50017E-001	9.27765E-008	0.00000E+000	-1.50000E-001	9.76792E-004	5	..........a	-327.66
	1116	223.4	-1.39974E-001	9.64820E-008	0.00000E+000	-1.40000E-001	9.63692E-004	5	..........a	-327.66
	1117	223.6	-1.29980E-001	1.01583E-007	0.00000E+000	-1.30000E-001	9.78192E-004	5	..........a	-327.66
	1118	223.8	-1.20017E-001	1.04085E-007	0.00000E+000	-1.20000E-001	9.78592E-004	5	..........a	-327.66
	1119	224	-1.10012E-001	1.07643E-007	0.00000E+000	-1.10000E-001	9.91792E-004	5	..........a	-327.66
	1120	224.2	-9.99965E-002	1.11364E-007	0.00000E+000	-1.00000E-001	9.85892E-004	5	..........a	-327.66