File: data/raw/batch_data/20240321_ZR_GM0016_HL03_E11_CV50k.DTA
EXPLAIN
TAG	CV
TITLE	LABEL	Cyclic Voltammetry	Test &Identifier
DATE	LABEL	3/21/2024	Date
TIME	LABEL	18:59:33	Time
NOTES	NOTES	1	&Notes...

PSTAT	PSTAT	REF600P-43058	Potentiostat
VINIT	POTEN	0.00000E+000	T	Initial &E (V)
VLIMIT1	POTEN	-6.00000E-001	F	Scan Limit &1 (V)
VLIMIT2	POTEN	8.00000E-001	F	Scan Limit &2 (V)
VFINAL	POTEN	0.00000E+000	T	Final &E (V)
SCANRATE	QUANT	4.99999E+004	&Scan Rate (mV/s)
STEPSIZE	QUANT	1.00000E+001	St&ep Size (mV)
CYCLES	IQUANT	10	C&ycles (#)
IMODE	SELECTOR	1	I/E Range &Mode
IRANGE	QUANT	1.00000E-005	&Max Current (mA)
AREA	QUANT	1.00000E+000	Electrode &Area (cm^2)
ELECTRODETYPE	SELECTOR	0	Electrode Type
STRIPPING	TOGGLE	F	Used for Stripping
POLARITY	TOGGLE	F	Signal Polarity
CONDIT	TWOPARAM	F	1.50000E+001	0.00000E+000	Conditionin&g	Time(s)	E(V)
DELAY	TWOPARAM	T	1.00000E+001	0.00000E+000	Init. De&lay	Time(s)	Stab.(mV/s)
EQDELAY	QUANT	1.00000E+001	Equil. &Time (s)
IRCOMP	SELECTOR	0	IRCom&p
PFCOR	QUANT	5.00000E+001	PF Corr. (ohm)
SAMPLINGMODE	SELECTOR	1	Sampling &Mode
OCVCURVE	TABLE	39
	Pt	T	Vf	Vm	Ach	Over	Temp
	#	s	V vs. Ref.	V	V	bits	deg C
	0	0.258333	3.36919E-001	3.36919E-001	2.56822E-004	..........a	-327.66
	1	0.516667	3.36922E-001	3.37103E-001	2.54156E-004	..........a	-327.66
	2	0.775	3.36944E-001	3.37317E-001	2.39622E-004	..........a	-327.66
	3	1.03333	3.37011E-001	3.37538E-001	2.52289E-004	..........a	-327.66
	4	1.29167	3.37135E-001	3.37767E-001	2.39756E-004	..........a	-327.66
	5	1.55	3.37310E-001	3.37927E-001	2.41422E-004	..........a	-327.66
	6	1.80833	3.37514E-001	3.38218E-001	2.48289E-004	..........a	-327.66
	7	2.06667	3.37730E-001	3.38442E-001	2.51356E-004	..........a	-327.66
	8	2.325	3.37952E-001	3.38596E-001	2.57022E-004	..........a	-327.66
	9	2.58333	3.38174E-001	3.38754E-001	2.55489E-004	..........a	-327.66
	10	2.84167	3.38385E-001	3.38974E-001	2.38289E-004	..........a	-327.66
	11	3.1	3.38580E-001	3.39190E-001	2.57622E-004	..........a	-327.66
	12	3.35833	3.38770E-001	3.39405E-001	2.48156E-004	..........a	-327.66
	13	3.61667	3.38967E-001	3.39587E-001	2.38889E-004	..........a	-327.66
	14	3.875	3.39172E-001	3.39866E-001	2.39689E-004	..........a	-327.66
	15	4.13333	3.39383E-001	3.40044E-001	2.50756E-004	..........a	-327.66
	16	4.39167	3.39598E-001	3.40202E-001	2.38422E-004	..........a	-327.66
	17	4.65	3.39810E-001	3.40372E-001	2.28356E-004	..........a	-327.66
	18	4.90833	3.40008E-001	3.40593E-001	2.32422E-004	..........a	-327.66
	19	5.16667	3.40196E-001	3.40799E-001	2.31156E-004	..........a	-327.66
	20	5.425	3.40384E-001	3.41005E-001	2.41289E-004	..........a	-327.66
	21	5.68333	3.40579E-001	3.41197E-001	2.44156E-004	..........a	-327.66
	22	5.94167	3.40781E-001	3.41456E-001	2.36689E-004	..........a	-327.66
	23	6.2	3.40989E-001	3.41655E-001	2.45556E-004	..........a	-327.66
	24	6.45833	3.41202E-001	3.41808E-001	2.40556E-004	..........a	-327.66
	25	6.71667	3.41412E-001	3.41984E-001	2.40022E-004	..........a	-327.66
	26	6.975	3.41612E-001	3.42193E-001	2.27289E-004	..........a	-327.66
	27	7.23333	3.41801E-001	3.42394E-001	2.48956E-004	..........a	-327.66
	28	7.49167	3.41989E-001	3.42609E-001	2.28622E-004	..........a	-327.66
	29	7.75	3.42182E-001	3.42785E-001	2.32089E-004	..........a	-327.66
	30	8.00833	3.42381E-001	3.43029E-001	2.33489E-004	..........a	-327.66
	31	8.26667	3.42584E-001	3.43228E-001	2.44022E-004	..........a	-327.66
	32	8.525	3.42790E-001	3.43390E-001	2.38356E-004	..........a	-327.66
	33	8.78333	3.42994E-001	3.43554E-001	2.31422E-004	..........a	-327.66
	34	9.04167	3.43190E-001	3.43776E-001	2.18822E-004	..........a	-327.66
	35	9.3	3.43378E-001	3.43966E-001	2.42822E-004	..........a	-327.66
	36	9.5583	3.43565E-001	3.44174E-001	2.41956E-004	..........a	-327.66
	37	9.8167	3.43756E-001	3.44323E-001	2.37489E-004	..........a	-327.66
	38	10.075	3.43950E-001	3.44580E-001	2.26356E-004	..........a	-327.66
EOC	QUANT	0.3439499	Open Circuit (V)
PSTATMODEL	IQUANT	7	Pstat Model
PSTATSECTION	LABEL	REF600P-43058	Pstat Section
PSTATSERIALNO	LABEL	43058	Pstat Serial Number
CTRLMODE	IQUANT	1	Control Mode
ELECTROMETER	IQUANT	0	RE=0 or CS=1
IESTAB	IQUANT	2	I/E Stability
CASPEED	IQUANT	4	Control Amp Speed
CONVENTION	IQUANT	1	Current Convention
ICHRANGE	IQUANT	2	Ich Range
ICHRANGEMODE	TOGGLE	F	Ich Auto Range
ICHOFFSETENABLE	TOGGLE	F	Ich Offset Enable
ICHOFFSET	QUANT	0	Ich Offset (V)
ICHFILTER	IQUANT	1	Ich Filter
VCHRANGE	IQUANT	2	Vch Range
VCHRANGEMODE	TOGGLE	F	Vch Auto Range
VCHOFFSETENABLE	TOGGLE	F	Vch Offset Enable
VCHOFFSET	QUANT	0	Vch Offset (V)
VCHFILTER	IQUANT	1	Vch Filter
ACHRANGE	IQUANT	2	Ach Range
ACHOFFSETENABLE	TOGGLE	F	Ach Offset Enable
ACHOFFSET	QUANT	0	Ach Offset (V)
ACHFILTER	IQUANT	1	Ach Filter
IERANGELOWERLIMIT	IQUANT	1	I/E Range Lower Limit
IERANGEMODE	TOGGLE	F	I/E AutoRange
IERANGE	IQUANT	4	I/E Range
POSFEEDENABLE	TOGGLE	F	Positive Feedback IR Comp
POSFEEDRESISTANCE	QUANT	0	Positive Feedback Resistance (ohm)
ACHSELECT	IQUANT	4	Ach Select
SENSECABLEID	IQUANT	7	Sense Cable ID
PWRCABLEID	IQUANT	7	Power Cable ID
DCCALDATE	LABEL	12/18/2023	DC Calibration Date
ACCALDATE	LABEL	12/18/2023	AC Calibration Date
THERMOSELECT	IQUANT	1	Thermo Select
FRAMEWORKVERSION	LABEL	7.8.4	Framework Version
INSTRUMENTVERSION	LABEL	4.42	Instrument Version
CURVE1	TABLE
	Pt	T	Vf	Im	Vu	Sig	Ach	IERange	Over	Temp
	#	s	V vs. Ref.	A	V	V	V	#	bits	deg C
	0	0.0002	3.43970E-001	2.47886E-011	0.00000E+000	3.43950E-001	8.00223E-005	4	..........a	-327.66
	1	0.0004	3.33870E-001	-1.92131E-011	0.00000E+000	3.33950E-001	8.00223E-005	4	..........a	-327.66
	2	0.0006	3.23970E-001	-5.72146E-011	0.00000E+000	3.23950E-001	8.00223E-005	4	..........a	-327.66
	3	0.0008	3.13970E-001	-1.00216E-010	0.00000E+000	3.13950E-001	8.00223E-005	4	..........a	-327.66
	4	0.001	3.03720E-001	-1.45218E-010	0.00000E+000	3.03950E-001	8.00223E-005	4	..........a	-327.66
	5	0.0012	2.93970E-001	-1.96220E-010	0.00000E+000	2.93950E-001	8.00223E-005	4	..........a	-327.66
	6	0.0014	2.83970E-001	-2.47222E-010	0.00000E+000	2.83950E-001	8.00223E-005	4	..........a	-327.66
	7	0.0016	2.73970E-001	-2.98224E-010	0.00000E+000	2.73950E-001	8.00223E-005	4	..........a	-327.66
	8	0.0018	2.63970E-001	-3.44226E-010	0.00000E+000	2.63950E-001	8.00223E-005	4	..........a	-327.66
	9	0.002	2.53970E-001	-4.02228E-010	0.00000E+000	2.53950E-001	8.00223E-005	4	..........a	-327.66
	10	0.0022	2.43670E-001	-4.60230E-010	0.00000E+000	2.43950E-001	8.00223E-005	4	..........a	-327.66
	11	0.0024	2.33770E-001	-5.18232E-010	0.00000E+000	2.33950E-001	8.00223E-005	4	..........a	-327.66
	12	0.0026	2.23770E-001	-5.76235E-010	0.00000E+000	2.23950E-001	8.00223E-005	4	..........a	-327.66
	13	0.0028	2.13970E-001	-6.38237E-010	0.00000E+000	2.13950E-001	8.00223E-005	4	..........a	-327.66
	14	0.003	2.04070E-001	-6.96239E-010	0.00000E+000	2.03950E-001	8.00223E-005	4	..........a	-327.66
	15	0.0032	1.93870E-001	-7.62242E-010	0.00000E+000	1.93950E-001	8.00223E-005	4	..........a	-327.66
	16	0.0034	1.83870E-001	-8.26244E-010	0.00000E+000	1.83950E-001	8.00223E-005	4	..........a	-327.66
	17	0.0036	1.74070E-001	-8.95247E-010	0.00000E+000	1.73950E-001	8.00223E-005	4	..........a	-327.66
	18	0.0038	1.64070E-001	-9.68250E-010	0.00000E+000	1.63950E-001	8.00223E-005	4	..........a	-327.66
	19	0.004	1.53970E-001	-1.04225E-009	0.00000E+000	1.53950E-001	8.00223E-005	4	..........a	-327.66
	20	0.0042	1.43970E-001	-1.11626E-009	0.00000E+000	1.43950E-001	8.00223E-005	4	..........a	-327.66
	21	0.0044	1.34070E-001	-1.19326E-009	0.00000E+000	1.33950E-001	8.00223E-005	4	..........a	-327.66
	22	0.0046	1.24270E-001	-1.27126E-009	0.00000E+000	1.23950E-001	8.00223E-005	4	..........a	-327.66
	23	0.0048	1.14070E-001	-1.35126E-009	0.00000E+000	1.13950E-001	8.00223E-005	4	..........a	-327.66
	24	0.005	1.03970E-001	-1.44427E-009	0.00000E+000	1.03950E-001	8.00223E-005	4	..........a	-327.66
	25	0.0052	9.39695E-002	-1.52427E-009	0.00000E+000	9.39500E-002	8.00223E-005	4	..........a	-327.66
	26	0.0054	8.40695E-002	-1.61027E-009	0.00000E+000	8.39500E-002	8.00223E-005	4	..........a	-327.66
	27	0.0056	7.39695E-002	-1.70128E-009	0.00000E+000	7.39500E-002	8.00223E-005	4	..........a	-327.66
	28	0.0058	6.40695E-002	-1.79828E-009	0.00000E+000	6.39500E-002	8.00223E-005	4	..........a	-327.66
	29	0.006	5.40695E-002	-1.89529E-009	0.00000E+000	5.39500E-002	8.00223E-005	4	..........a	-327.66
	30	0.0062	4.37695E-002	-1.99429E-009	0.00000E+000	4.39500E-002	8.00223E-005	4	..........a	-327.66
	31	0.0064	3.38695E-002	-2.09629E-009	0.00000E+000	3.39500E-002	8.00223E-005	4	..........a	-327.66
	32	0.0066	2.40695E-002	-2.20030E-009	0.00000E+000	2.39500E-002	8.00223E-005	4	..........a	-327.66
	33	0.0068	1.40695E-002	-2.30830E-009	0.00000E+000	1.39500E-002	8.00223E-005	4	..........a	-327.66
	34	0.007	3.86952E-003	-2.42231E-009	0.00000E+000	3.95001E-003	8.00223E-005	4	..........a	-327.66
	35	0.0072	-6.03048E-003	-2.53231E-009	0.00000E+000	-6.05000E-003	8.00223E-005	4	..........a	-327.66
	36	0.0074	-1.60305E-002	-2.65031E-009	0.00000E+000	-1.60500E-002	-4.19978E-004	4	..........a	-327.66
	37	0.0076	-2.61305E-002	-2.76232E-009	0.00000E+000	-2.60500E-002	8.00223E-005	4	..........a	-327.66
	38	0.0078	-3.58305E-002	-2.89032E-009	0.00000E+000	-3.60500E-002	8.00223E-005	4	..........a	-327.66
	39	0.008	-4.59305E-002	-3.01233E-009	0.00000E+000	-4.60500E-002	-1.19978E-004	4	..........a	-327.66
	40	0.0082	-5.59305E-002	-3.13733E-009	0.00000E+000	-5.60500E-002	8.00223E-005	4	..........a	-327.66
	41	0.0084	-6.59305E-002	-3.26434E-009	0.00000E+000	-6.60500E-002	8.00223E-005	4	..........a	-327.66
	42	0.0086	-7.60305E-002	-3.39634E-009	0.00000E+000	-7.60500E-002	8.00223E-005	4	..........a	-327.66
	43	0.0088	-8.59305E-002	-3.52435E-009	0.00000E+000	-8.60500E-002	8.00223E-005	4	..........a	-327.66
	44	0.009	-9.59305E-002	-3.65935E-009	0.00000E+000	-9.60500E-002	8.00223E-005	4	..........a	-327.66
	45	0.0092	-1.05930E-001	-3.79436E-009	0.00000E+000	-1.06050E-001	8.00223E-005	4	..........a	-327.66
	46	0.0094	-1.16030E-001	-3.93236E-009	0.00000E+000	-1.16050E-001	8.00223E-005	4	..........a	-327.66
	47	0.0096	-1.25930E-001	-4.07137E-009	0.00000E+000	-1.26050E-001	8.00223E-005	4	..........a	-327.66
	48	0.0098	-1.36230E-001	-4.21037E-009	0.00000E+000	-1.36050E-001	8.00223E-005	4	..........a	-327.66
	49	0.01	-1.46030E-001	-4.35438E-009	0.00000E+000	-1.46050E-001	8.00223E-005	4	..........a	-327.66
	50	0.0102	-1.55930E-001	-4.49639E-009	0.00000E+000	-1.56050E-001	8.00223E-005	4	..........a	-327.66
	51	0.0104	-1.66030E-001	-4.64639E-009	0.00000E+000	-1.66050E-001	8.00223E-005	4	..........a	-327.66
	52	0.0106	-1.76130E-001	-4.79140E-009	0.00000E+000	-1.76050E-001	8.00223E-005	4	..........a	-327.66
	53	0.0108	-1.86130E-001	-4.93440E-009	0.00000E+000	-1.86050E-001	8.00223E-005	4	..........a	-327.66
	54	0.011	-1.95930E-001	-5.08641E-009	0.00000E+000	-1.96050E-001	8.00223E-005	4	..........a	-327.66
	55	0.0112	-2.05930E-001	-5.23041E-009	0.00000E+000	-2.06050E-001	8.00223E-005	4	..........a	-327.66
	56	0.0114	-2.15830E-001	-5.38442E-009	0.00000E+000	-2.16050E-001	8.00223E-005	4	..........a	-327.66
	57	0.0116	-2.25930E-001	-5.53843E-009	0.00000E+000	-2.26050E-001	-1.19978E-004	4	..........a	-327.66
	58	0.0118	-2.35830E-001	-5.68243E-009	0.00000E+000	-2.36050E-001	8.00223E-005	4	..........a	-327.66
	59	0.012	-2.45930E-001	-5.83744E-009	0.00000E+000	-2.46050E-001	8.00223E-005	4	..........a	-327.66
	60	0.0122	-2.55930E-001	-5.98344E-009	0.00000E+000	-2.56050E-001	8.00223E-005	4	..........a	-327.66
	61	0.0124	-2.65930E-001	-6.14545E-009	0.00000E+000	-2.66050E-001	8.00223E-005	4	..........a	-327.66
	62	0.0126	-2.75930E-001	-6.30145E-009	0.00000E+000	-2.76050E-001	8.00223E-005	4	..........a	-327.66
	63	0.0128	-2.85930E-001	-6.45646E-009	0.00000E+000	-2.86050E-001	8.00223E-005	4	..........a	-327.66
	64	0.013	-2.95830E-001	-6.61447E-009	0.00000E+000	-2.96050E-001	8.00223E-005	4	..........a	-327.66
	65	0.0132	-3.06030E-001	-6.77047E-009	0.00000E+000	-3.06050E-001	8.00223E-005	4	..........a	-327.66
	66	0.0134	-3.15930E-001	-6.92448E-009	0.00000E+000	-3.16050E-001	8.00223E-005	4	..........a	-327.66
	67	0.0136	-3.26030E-001	-7.08048E-009	0.00000E+000	-3.26050E-001	8.00223E-005	4	..........a	-327.66
	68	0.0138	-3.35930E-001	-7.23749E-009	0.00000E+000	-3.36050E-001	8.00223E-005	4	..........a	-327.66
	69	0.014	-3.45930E-001	-7.39850E-009	0.00000E+000	-3.46050E-001	8.00223E-005	4	..........a	-327.66
	70	0.0142	-3.55830E-001	-7.55950E-009	0.00000E+000	-3.56050E-001	8.00223E-005	4	..........a	-327.66
	71	0.0144	-3.66030E-001	-7.71851E-009	0.00000E+000	-3.66050E-001	8.00223E-005	4	..........a	-327.66
	72	0.0146	-3.76030E-001	-7.87552E-009	0.00000E+000	-3.76050E-001	8.00223E-005	4	..........a	-327.66
	73	0.0148	-3.86030E-001	-8.03952E-009	0.00000E+000	-3.86050E-001	8.00223E-005	4	..........a	-327.66
	74	0.015	-3.95830E-001	-8.19953E-009	0.00000E+000	-3.96050E-001	8.00223E-005	4	..........a	-327.66
	75	0.0152	-4.06030E-001	-8.36253E-009	0.00000E+000	-4.06050E-001	8.00223E-005	4	..........a	-327.66
	76	0.0154	-4.15830E-001	-8.52254E-009	0.00000E+000	-4.16050E-001	8.00223E-005	4	..........a	-327.66
	77	0.0156	-4.25980E-001	-8.67855E-009	0.00000E+000	-4.26050E-001	8.00223E-005	4	..........a	-327.66
	78	0.0158	-4.36030E-001	-8.84555E-009	0.00000E+000	-4.36050E-001	8.00223E-005	4	..........a	-327.66
	79	0.016	-4.46330E-001	-9.01256E-009	0.00000E+000	-4.46050E-001	8.00223E-005	4	..........a	-327.66
	80	0.0162	-4.55930E-001	-9.17657E-009	0.00000E+000	-4.56050E-001	8.00223E-005	4	..........a	-327.66
	81	0.0164	-4.65830E-001	-9.34057E-009	0.00000E+000	-4.66050E-001	8.00223E-005	4	..........a	-327.66
	82	0.0166	-4.75930E-001	-9.50158E-009	0.00000E+000	-4.76050E-001	8.00223E-005	4	..........a	-327.66
	83	0.0168	-4.85930E-001	-9.66958E-009	0.00000E+000	-4.86050E-001	8.00223E-005	4	..........a	-327.66
	84	0.017	-4.95830E-001	-9.84059E-009	0.00000E+000	-4.96050E-001	8.00223E-005	4	..........a	-327.66
	85	0.0172	-5.05830E-001	-1.00126E-008	0.00000E+000	-5.06050E-001	8.00223E-005	4	..........a	-327.66
	86	0.0174	-5.16131E-001	-1.01776E-008	0.00000E+000	-5.16050E-001	8.00223E-005	4	..........a	-327.66
	87	0.0176	-5.25930E-001	-1.03466E-008	0.00000E+000	-5.26050E-001	8.00223E-005	4	..........a	-327.66
	88	0.0178	-5.36030E-001	-1.05256E-008	0.00000E+000	-5.36050E-001	8.00223E-005	4	..........a	-327.66
	89	0.018	-5.45931E-001	-1.06986E-008	0.00000E+000	-5.46050E-001	8.00223E-005	4	..........a	-327.66
	90	0.0182	-5.55830E-001	-1.08746E-008	0.00000E+000	-5.56050E-001	8.00223E-005	4	..........a	-327.66
	91	0.0184	-5.66031E-001	-1.10536E-008	0.00000E+000	-5.66050E-001	8.00223E-005	4	..........a	-327.66
	92	0.0186	-5.75930E-001	-1.12316E-008	0.00000E+000	-5.76050E-001	8.00223E-005	4	..........a	-327.66
	93	0.0188	-5.85930E-001	-1.14207E-008	0.00000E+000	-5.86050E-001	8.00223E-005	4	..........a	-327.66
	94	0.019	-5.95730E-001	-1.16047E-008	0.00000E+000	-5.96050E-001	1.80022E-004	4	..........a	-327.66
	95	0.0192	-5.85930E-001	-1.16677E-008	0.00000E+000	-5.86050E-001	8.00223E-005	4	..........a	-327.66
	96	0.0194	-5.75830E-001	-1.17007E-008	0.00000E+000	-5.76050E-001	8.00223E-005	4	..........a	-327.66
	97	0.0196	-5.65930E-001	-1.17197E-008	0.00000E+000	-5.66050E-001	8.00223E-005	4	..........a	-327.66
	98	0.0198	-5.55930E-001	-1.17267E-008	0.00000E+000	-5.56050E-001	8.00223E-005	4	..........a	-327.66
	99	0.02	-5.45931E-001	-1.17227E-008	0.00000E+000	-5.46050E-001	8.00223E-005	4	..........a	-327.66
	100	0.0202	-5.36130E-001	-1.17107E-008	0.00000E+000	-5.36050E-001	8.00223E-005	4	..........a	-327.66
	101	0.0204	-5.25831E-001	-1.16867E-008	0.00000E+000	-5.26050E-001	8.00223E-005	4	..........a	-327.66
	102	0.0206	-5.15731E-001	-1.16647E-008	0.00000E+000	-5.16050E-001	8.00223E-005	4	..........a	-327.66
	103	0.0208	-5.05930E-001	-1.16337E-008	0.00000E+000	-5.06050E-001	8.00223E-005	4	..........a	-327.66
	104	0.021	-4.95930E-001	-1.15957E-008	0.00000E+000	-4.96050E-001	8.00223E-005	4	..........a	-327.66
	105	0.0212	-4.86030E-001	-1.15587E-008	0.00000E+000	-4.86050E-001	8.00223E-005	4	..........a	-327.66
	106	0.0214	-4.75730E-001	-1.15117E-008	0.00000E+000	-4.76050E-001	8.00223E-005	4	..........a	-327.66
	107	0.0216	-4.66030E-001	-1.14667E-008	0.00000E+000	-4.66050E-001	8.00223E-005	4	..........a	-327.66
	108	0.0218	-4.55830E-001	-1.14167E-008	0.00000E+000	-4.56050E-001	8.00223E-005	4	..........a	-327.66
	109	0.022	-4.45930E-001	-1.13656E-008	0.00000E+000	-4.46050E-001	8.00223E-005	4	..........a	-327.66
	110	0.0222	-4.35830E-001	-1.13106E-008	0.00000E+000	-4.36050E-001	8.00223E-005	4	..........a	-327.66
	111	0.0224	-4.25930E-001	-1.12556E-008	0.00000E+000	-4.26050E-001	8.00223E-005	4	..........a	-327.66
	112	0.0226	-4.16030E-001	-1.12026E-008	0.00000E+000	-4.16050E-001	8.00223E-005	4	..........a	-327.66
	113	0.0228	-4.05930E-001	-1.11366E-008	0.00000E+000	-4.06050E-001	8.00223E-005	4	..........a	-327.66
	114	0.023	-3.95730E-001	-1.10776E-008	0.00000E+000	-3.96050E-001	8.00223E-005	4	..........a	-327.66
	115	0.0232	-3.85830E-001	-1.10156E-008	0.00000E+000	-3.86050E-001	8.00223E-005	4	..........a	-327.66
	116	0.0234	-3.75930E-001	-1.09506E-008	0.00000E+000	-3.76050E-001	8.00223E-005	4	..........a	-327.66
	117	0.0236	-3.65930E-001	-1.08866E-008	0.00000E+000	-3.66050E-001	8.00223E-005	4	..........a	-327.66
	118	0.0238	-3.55930E-001	-1.08186E-008	0.00000E+000	-3.56050E-001	-3.19978E-004	4	..........a	-327.66
	119	0.024	-3.45830E-001	-1.07446E-008	0.00000E+000	-3.46050E-001	8.00223E-005	4	..........a	-327.66
	120	0.0242	-3.35830E-001	-1.06786E-008	0.00000E+000	-3.36050E-001	8.00223E-005	4	..........a	-327.66
	121	0.0244	-3.25930E-001	-1.06006E-008	0.00000E+000	-3.26050E-001	8.00223E-005	4	..........a	-327.66
	122	0.0246	-3.15830E-001	-1.05326E-008	0.00000E+000	-3.16050E-001	-2.19978E-004	4	..........a	-327.66
	123	0.0248	-3.06030E-001	-1.04626E-008	0.00000E+000	-3.06050E-001	8.00223E-005	4	..........a	-327.66
	124	0.025	-2.96030E-001	-1.03886E-008	0.00000E+000	-2.96050E-001	8.00223E-005	4	..........a	-327.66
	125	0.0252	-2.85830E-001	-1.03116E-008	0.00000E+000	-2.86050E-001	8.00223E-005	4	..........a	-327.66
	126	0.0254	-2.75930E-001	-1.02346E-008	0.00000E+000	-2.76050E-001	8.00223E-005	4	..........a	-327.66
	127	0.0256	-2.66030E-001	-1.01566E-008	0.00000E+000	-2.66050E-001	8.00223E-005	4	..........a	-327.66
	128	0.0258	-2.56130E-001	-1.00786E-008	0.00000E+000	-2.56050E-001	8.00223E-005	4	..........a	-327.66
	129	0.026	-2.46030E-001	-1.00026E-008	0.00000E+000	-2.46050E-001	8.00223E-005	4	..........a	-327.66
	130	0.0262	-2.35730E-001	-9.92259E-009	0.00000E+000	-2.36050E-001	8.00223E-005	4	..........a	-327.66
	131	0.0264	-2.25930E-001	-9.84159E-009	0.00000E+000	-2.26050E-001	8.00223E-005	4	..........a	-327.66
	132	0.0266	-2.15830E-001	-9.76259E-009	0.00000E+000	-2.16050E-001	8.00223E-005	4	..........a	-327.66
	133	0.0268	-2.05930E-001	-9.67658E-009	0.00000E+000	-2.06050E-001	8.00223E-005	4	..........a	-327.66
	134	0.027	-1.95930E-001	-9.59858E-009	0.00000E+000	-1.96050E-001	8.00223E-005	4	..........a	-327.66
	135	0.0272	-1.85930E-001	-9.51158E-009	0.00000E+000	-1.86050E-001	-2.19978E-004	4	..........a	-327.66
	136	0.0274	-1.76080E-001	-9.42957E-009	0.00000E+000	-1.76050E-001	8.00223E-005	4	..........a	-327.66
	137	0.0276	-1.65930E-001	-9.34657E-009	0.00000E+000	-1.66050E-001	8.00223E-005	4	..........a	-327.66
	138	0.0278	-1.55930E-001	-9.25857E-009	0.00000E+000	-1.56050E-001	8.00223E-005	4	..........a	-327.66
	139	0.028	-1.45930E-001	-9.17056E-009	0.00000E+000	-1.46050E-001	8.00223E-005	4	..........a	-327.66
	140	0.0282	-1.36130E-001	-9.08256E-009	0.00000E+000	-1.36050E-001	8.00223E-005	4	..........a	-327.66
	141	0.0284	-1.26030E-001	-8.99656E-009	0.00000E+000	-1.26050E-001	8.00223E-005	4	..........a	-327.66
	142	0.0286	-1.16130E-001	-8.90955E-009	0.00000E+000	-1.16050E-001	8.00223E-005	4	..........a	-327.66
	143	0.0288	-1.06030E-001	-8.82055E-009	0.00000E+000	-1.06050E-001	8.00223E-005	4	..........a	-327.66
	144	0.029	-9.60305E-002	-8.73355E-009	0.00000E+000	-9.60500E-002	8.00223E-005	4	..........a	-327.66
	145	0.0292	-8.59305E-002	-8.64054E-009	0.00000E+000	-8.60500E-002	8.00223E-005	4	..........a	-327.66
	146	0.0294	-7.59305E-002	-8.54354E-009	0.00000E+000	-7.60500E-002	8.00223E-005	4	..........a	-327.66
	147	0.0296	-6.61805E-002	-8.45854E-009	0.00000E+000	-6.60500E-002	8.00223E-005	4	..........a	-327.66
	148	0.0298	-5.62305E-002	-8.36753E-009	0.00000E+000	-5.60500E-002	8.00223E-005	4	..........a	-327.66
	149	0.03	-4.60305E-002	-8.27653E-009	0.00000E+000	-4.60500E-002	8.00223E-005	4	..........a	-327.66
	150	0.0302	-3.58305E-002	-8.17853E-009	0.00000E+000	-3.60500E-002	8.00223E-005	4	..........a	-327.66
	151	0.0304	-2.61305E-002	-8.08552E-009	0.00000E+000	-2.60500E-002	8.00223E-005	4	..........a	-327.66
	152	0.0306	-1.61305E-002	-7.99052E-009	0.00000E+000	-1.60500E-002	8.00223E-005	4	..........a	-327.66
	153	0.0308	-5.93048E-003	-7.89652E-009	0.00000E+000	-6.05000E-003	8.00223E-005	4	..........a	-327.66
	154	0.031	4.06952E-003	-7.80051E-009	0.00000E+000	3.95001E-003	8.00223E-005	4	..........a	-327.66
	155	0.0312	1.40695E-002	-7.70351E-009	0.00000E+000	1.39500E-002	8.00223E-005	4	..........a	-327.66
	156	0.0314	2.40695E-002	-7.60750E-009	0.00000E+000	2.39500E-002	8.00223E-005	4	..........a	-327.66
	157	0.0316	3.40695E-002	-7.51050E-009	0.00000E+000	3.39500E-002	8.00223E-005	4	..........a	-327.66
	158	0.0318	4.41695E-002	-7.40950E-009	0.00000E+000	4.39500E-002	8.00223E-005	4	..........a	-327.66
	159	0.032	5.39195E-002	-7.31349E-009	0.00000E+000	5.39500E-002	8.00223E-005	4	..........a	-327.66
	160	0.0322	6.39695E-002	-7.21249E-009	0.00000E+000	6.39500E-002	8.00223E-005	4	..........a	-327.66
	161	0.0324	7.39695E-002	-7.11149E-009	0.00000E+000	7.39500E-002	8.00223E-005	4	..........a	-327.66
	162	0.0326	8.40695E-002	-7.01048E-009	0.00000E+000	8.39500E-002	8.00223E-005	4	..........a	-327.66
	163	0.0328	9.38195E-002	-6.90848E-009	0.00000E+000	9.39500E-002	8.00223E-005	4	..........a	-327.66
	164	0.033	1.04070E-001	-6.80647E-009	0.00000E+000	1.03950E-001	8.00223E-005	4	..........a	-327.66
	165	0.0332	1.14070E-001	-6.70447E-009	0.00000E+000	1.13950E-001	8.00223E-005	4	..........a	-327.66
	166	0.0334	1.24170E-001	-6.60247E-009	0.00000E+000	1.23950E-001	-2.19978E-004	4	..........a	-327.66
	167	0.0336	1.33870E-001	-6.50046E-009	0.00000E+000	1.33950E-001	8.00223E-005	4	..........a	-327.66
	168	0.0338	1.44170E-001	-6.38846E-009	0.00000E+000	1.43950E-001	8.00223E-005	4	..........a	-327.66
	169	0.034	1.53820E-001	-6.28345E-009	0.00000E+000	1.53950E-001	8.00223E-005	4	..........a	-327.66
	170	0.0342	1.63970E-001	-6.18045E-009	0.00000E+000	1.63950E-001	8.00223E-005	4	..........a	-327.66
	171	0.0344	1.73970E-001	-6.06545E-009	0.00000E+000	1.73950E-001	8.00223E-005	4	..........a	-327.66
	172	0.0346	1.84070E-001	-5.95944E-009	0.00000E+000	1.83950E-001	8.00223E-005	4	..........a	-327.66
	173	0.0348	1.94070E-001	-5.84544E-009	0.00000E+000	1.93950E-001	8.00223E-005	4	..........a	-327.66
	174	0.035	2.04070E-001	-5.73643E-009	0.00000E+000	2.03950E-001	8.00223E-005	4	..........a	-327.66
	175	0.0352	2.13970E-001	-5.62643E-009	0.00000E+000	2.13950E-001	8.00223E-005	4	..........a	-327.66
	176	0.0354	2.23970E-001	-5.50442E-009	0.00000E+000	2.23950E-001	8.00223E-005	4	..........a	-327.66
	177	0.0356	2.33870E-001	-5.40342E-009	0.00000E+000	2.33950E-001	-2.19978E-004	4	..........a	-327.66
	178	0.0358	2.43970E-001	-5.28442E-009	0.00000E+000	2.43950E-001	8.00223E-005	4	..........a	-327.66
	179	0.036	2.53970E-001	-5.16741E-009	0.00000E+000	2.53950E-001	8.00223E-005	4	..........a	-327.66
	180	0.0362	2.63970E-001	-5.04841E-009	0.00000E+000	2.63950E-001	8.00223E-005	4	..........a	-327.66
	181	0.0364	2.73870E-001	-4.92940E-009	0.00000E+000	2.73950E-001	8.00223E-005	4	..........a	-327.66
	182	0.0366	2.84070E-001	-4.81040E-009	0.00000E+000	2.83950E-001	8.00223E-005	4	..........a	-327.66
	183	0.0368	2.93970E-001	-4.68839E-009	0.00000E+000	2.93950E-001	8.00223E-005	4	..........a	-327.66
	184	0.037	3.04070E-001	-4.57039E-009	0.00000E+000	3.03950E-001	8.00223E-005	4	..........a	-327.66
	185	0.0372	3.14070E-001	-4.44638E-009	0.00000E+000	3.13950E-001	8.00223E-005	4	..........a	-327.66
	186	0.0374	3.24270E-001	-4.32138E-009	0.00000E+000	3.23950E-001	8.00223E-005	4	..........a	-327.66
	187	0.0376	3.34070E-001	-4.19437E-009	0.00000E+000	3.33950E-001	8.00223E-005	4	..........a	-327.66
	188	0.0378	3.43670E-001	-4.06037E-009	0.00000E+000	3.43950E-001	8.00223E-005	4	..........a	-327.66
	189	0.038	3.54070E-001	-3.93636E-009	0.00000E+000	3.53950E-001	8.00223E-005	4	..........a	-327.66
	190	0.0382	3.63970E-001	-3.81336E-009	0.00000E+000	3.63950E-001	8.00223E-005	4	..........a	-327.66
	191	0.0384	3.74070E-001	-3.68135E-009	0.00000E+000	3.73950E-001	8.00223E-005	4	..........a	-327.66
	192	0.0386	3.83770E-001	-3.55035E-009	0.00000E+000	3.83950E-001	8.00223E-005	4	..........a	-327.66
	193	0.0388	3.94070E-001	-3.41834E-009	0.00000E+000	3.93950E-001	8.00223E-005	4	..........a	-327.66
	194	0.039	4.03870E-001	-3.28334E-009	0.00000E+000	4.03950E-001	8.00223E-005	4	..........a	-327.66
	195	0.0392	4.14070E-001	-3.14833E-009	0.00000E+000	4.13950E-001	8.00223E-005	4	..........a	-327.66
	196	0.0394	4.23870E-001	-3.01033E-009	0.00000E+000	4.23950E-001	8.00223E-005	4	..........a	-327.66
	197	0.0396	4.33970E-001	-2.87432E-009	0.00000E+000	4.33950E-001	8.00223E-005	4	..........a	-327.66
	198	0.0398	4.43870E-001	-2.73332E-009	0.00000E+000	4.43950E-001	8.00223E-005	4	..........a	-327.66
	199	0.04	4.53870E-001	-2.59631E-009	0.00000E+000	4.53950E-001	8.00223E-005	4	..........a	-327.66
	200	0.0402	4.63870E-001	-2.45231E-009	0.00000E+000	4.63950E-001	8.00223E-005	4	..........a	-327.66
	201	0.0404	4.73920E-001	-2.30330E-009	0.00000E+000	4.73950E-001	8.00223E-005	4	..........a	-327.66
	202	0.0406	4.83770E-001	-2.16130E-009	0.00000E+000	4.83950E-001	8.00223E-005	4	..........a	-327.66
	203	0.0408	4.93970E-001	-2.01129E-009	0.00000E+000	4.93950E-001	8.00223E-005	4	..........a	-327.66
	204	0.041	5.04070E-001	-1.85828E-009	0.00000E+000	5.03950E-001	8.00223E-005	4	..........a	-327.66
	205	0.0412	5.13869E-001	-1.70928E-009	0.00000E+000	5.13950E-001	8.00223E-005	4	..........a	-327.66
	206	0.0414	5.23969E-001	-1.55527E-009	0.00000E+000	5.23950E-001	8.00223E-005	4	..........a	-327.66
	207	0.0416	5.33969E-001	-1.39927E-009	0.00000E+000	5.33950E-001	-4.19978E-004	4	..........a	-327.66
	208	0.0418	5.43819E-001	-1.23726E-009	0.00000E+000	5.43950E-001	8.00223E-005	4	..........a	-327.66
	209	0.042	5.54069E-001	-1.07425E-009	0.00000E+000	5.53950E-001	-3.19978E-004	4	..........a	-327.66
	210	0.0422	5.63670E-001	-9.14248E-010	0.00000E+000	5.63950E-001	8.00223E-005	4	..........a	-327.66
	211	0.0424	5.73869E-001	-7.46241E-010	0.00000E+000	5.73950E-001	8.00223E-005	4	..........a	-327.66
	212	0.0426	5.83969E-001	-5.74234E-010	0.00000E+000	5.83950E-001	8.00223E-005	4	..........a	-327.66
	213	0.0428	5.93969E-001	-4.09228E-010	0.00000E+000	5.93950E-001	8.00223E-005	4	..........a	-327.66
	214	0.043	6.03769E-001	-2.30221E-010	0.00000E+000	6.03950E-001	8.00223E-005	4	..........a	-327.66
	215	0.0432	6.13869E-001	-4.92143E-011	0.00000E+000	6.13950E-001	8.00223E-005	4	..........a	-327.66
	216	0.0434	6.23869E-001	1.32793E-010	0.00000E+000	6.23950E-001	8.00223E-005	4	..........a	-327.66
	217	0.0436	6.33819E-001	3.17800E-010	0.00000E+000	6.33950E-001	8.00223E-005	4	..........a	-327.66
	218	0.0438	6.43770E-001	5.02807E-010	0.00000E+000	6.43950E-001	-3.19978E-004	4	..........a	-327.66
	219	0.044	6.53969E-001	6.92814E-010	0.00000E+000	6.53950E-001	8.00223E-005	4	..........a	-327.66
	220	0.0442	6.63870E-001	8.91822E-010	0.00000E+000	6.63950E-001	8.00223E-005	4	..........a	-327.66
	221	0.0444	6.73669E-001	1.08983E-009	0.00000E+000	6.73950E-001	8.00223E-005	4	..........a	-327.66
	222	0.0446	6.84069E-001	1.29084E-009	0.00000E+000	6.83950E-001	8.00223E-005	4	..........a	-327.66
	223	0.0448	6.93869E-001	1.49585E-009	0.00000E+000	6.93950E-001	8.00223E-005	4	..........a	-327.66
	224	0.045	7.03969E-001	1.70985E-009	0.00000E+000	7.03950E-001	8.00223E-005	4	..........a	-327.66
	225	0.0452	7.13969E-001	1.91686E-009	0.00000E+000	7.13950E-001	8.00223E-005	4	..........a	-327.66
	226	0.0454	7.23870E-001	2.14387E-009	0.00000E+000	7.23950E-001	8.00223E-005	4	..........a	-327.66
	227	0.0456	7.33920E-001	2.36188E-009	0.00000E+000	7.33950E-001	8.00223E-005	4	..........a	-327.66
	228	0.0458	7.43869E-001	2.59289E-009	0.00000E+000	7.43950E-001	8.00223E-005	4	..........a	-327.66
	229	0.046	7.53769E-001	2.81890E-009	0.00000E+000	7.53950E-001	8.00223E-005	4	..........a	-327.66
	230	0.0462	7.63969E-001	3.05691E-009	0.00000E+000	7.63950E-001	8.00223E-005	4	..........a	-327.66
	231	0.0464	7.73869E-001	3.29191E-009	0.00000E+000	7.73950E-001	8.00223E-005	4	..........a	-327.66
	232	0.0466	7.83669E-001	3.54592E-009	0.00000E+000	7.83950E-001	8.00223E-005	4	..........a	-327.66
	233	0.0468	7.94069E-001	3.79393E-009	0.00000E+000	7.93950E-001	8.00223E-005	4	..........a	-327.66
	234	0.047	8.03970E-001	4.05194E-009	0.00000E+000	8.03950E-001	8.00223E-005	4	..........a	-327.66
CURVE2	TABLE
	Pt	T	Vf	Im	Vu	Sig	Ach	IERange	Over	Temp
	#	s	V vs. Ref.	A	V	V	V	#	bits	deg C
	235	0.0472	7.89869E-001	4.16195E-009	0.00000E+000	7.90000E-001	8.00223E-005	4	..........a	-327.66
	236	0.0474	7.79669E-001	4.24995E-009	0.00000E+000	7.80000E-001	8.00223E-005	4	..........a	-327.66
	237	0.0476	7.69969E-001	4.30995E-009	0.00000E+000	7.70000E-001	8.00223E-005	4	..........a	-327.66
	238	0.0478	7.59869E-001	4.35195E-009	0.00000E+000	7.60000E-001	8.00223E-005	4	..........a	-327.66
	239	0.048	7.49869E-001	4.38496E-009	0.00000E+000	7.50000E-001	-3.19978E-004	4	..........a	-327.66
	240	0.0482	7.39869E-001	4.39896E-009	0.00000E+000	7.40000E-001	8.00223E-005	4	..........a	-327.66
	241	0.0484	7.29869E-001	4.39996E-009	0.00000E+000	7.30000E-001	8.00223E-005	4	..........a	-327.66
	242	0.0486	7.19819E-001	4.39496E-009	0.00000E+000	7.20000E-001	8.00223E-005	4	..........a	-327.66
	243	0.0488	7.09870E-001	4.38096E-009	0.00000E+000	7.10000E-001	-3.19978E-004	4	..........a	-327.66
	244	0.049	6.99869E-001	4.36295E-009	0.00000E+000	7.00000E-001	8.00223E-005	4	..........a	-327.66
	245	0.0492	6.89719E-001	4.33495E-009	0.00000E+000	6.90000E-001	8.00223E-005	4	..........a	-327.66
	246	0.0494	6.79869E-001	4.30095E-009	0.00000E+000	6.80000E-001	8.00223E-005	4	..........a	-327.66
	247	0.0496	6.69869E-001	4.26895E-009	0.00000E+000	6.70000E-001	8.00223E-005	4	..........a	-327.66
	248	0.0498	6.60269E-001	4.23195E-009	0.00000E+000	6.60000E-001	8.00223E-005	4	..........a	-327.66
	249	0.05	6.49870E-001	4.18995E-009	0.00000E+000	6.50000E-001	8.00223E-005	4	..........a	-327.66
	250	0.0502	6.39870E-001	4.14595E-009	0.00000E+000	6.40000E-001	8.00223E-005	4	..........a	-327.66
	251	0.0504	6.29869E-001	4.09594E-009	0.00000E+000	6.30000E-001	8.00223E-005	4	..........a	-327.66
	252	0.0506	6.20070E-001	4.04394E-009	0.00000E+000	6.20000E-001	8.00223E-005	4	..........a	-327.66
	253	0.0508	6.09969E-001	3.99194E-009	0.00000E+000	6.10000E-001	8.00223E-005	4	..........a	-327.66
	254	0.051	5.99970E-001	3.93394E-009	0.00000E+000	6.00000E-001	8.00223E-005	4	..........a	-327.66
	255	0.0512	5.89969E-001	3.87894E-009	0.00000E+000	5.90000E-001	8.00223E-005	4	..........a	-327.66
	256	0.0514	5.79870E-001	3.81993E-009	0.00000E+000	5.80000E-001	-4.19978E-004	4	..........a	-327.66
	257	0.0516	5.69869E-001	3.75593E-009	0.00000E+000	5.70000E-001	8.00223E-005	4	..........a	-327.66
	258	0.0518	5.59869E-001	3.69193E-009	0.00000E+000	5.60000E-001	8.00223E-005	4	..........a	-327.66
	259	0.052	5.49869E-001	3.62893E-009	0.00000E+000	5.50000E-001	8.00223E-005	4	..........a	-327.66
	260	0.0522	5.40169E-001	3.56192E-009	0.00000E+000	5.40000E-001	8.00223E-005	4	..........a	-327.66
	261	0.0524	5.29869E-001	3.49392E-009	0.00000E+000	5.30000E-001	-3.19978E-004	4	..........a	-327.66
	262	0.0526	5.19870E-001	3.42192E-009	0.00000E+000	5.20000E-001	8.00223E-005	4	..........a	-327.66
	263	0.0528	5.09820E-001	3.35092E-009	0.00000E+000	5.10000E-001	8.00223E-005	4	..........a	-327.66
	264	0.053	4.99970E-001	3.28191E-009	0.00000E+000	5.00000E-001	8.00223E-005	4	..........a	-327.66
	265	0.0532	4.89970E-001	3.20791E-009	0.00000E+000	4.90000E-001	8.00223E-005	4	..........a	-327.66
	266	0.0534	4.79870E-001	3.13191E-009	0.00000E+000	4.80000E-001	-4.19978E-004	4	..........a	-327.66
	267	0.0536	4.69970E-001	3.05291E-009	0.00000E+000	4.70000E-001	8.00223E-005	4	..........a	-327.66
	268	0.0538	4.59970E-001	2.97190E-009	0.00000E+000	4.60000E-001	8.00223E-005	4	..........a	-327.66
	269	0.054	4.49870E-001	2.89390E-009	0.00000E+000	4.50000E-001	8.00223E-005	4	..........a	-327.66
	270	0.0542	4.39870E-001	2.80990E-009	0.00000E+000	4.40000E-001	8.00223E-005	4	..........a	-327.66
	271	0.0544	4.29870E-001	2.72789E-009	0.00000E+000	4.30000E-001	8.00223E-005	4	..........a	-327.66
	272	0.0546	4.20070E-001	2.64189E-009	0.00000E+000	4.20000E-001	8.00223E-005	4	..........a	-327.66
	273	0.0548	4.10070E-001	2.55689E-009	0.00000E+000	4.10000E-001	8.00223E-005	4	..........a	-327.66
	274	0.055	3.99970E-001	2.46588E-009	0.00000E+000	4.00000E-001	8.00223E-005	4	..........a	-327.66
	275	0.0552	3.89870E-001	2.38088E-009	0.00000E+000	3.90000E-001	8.00223E-005	4	..........a	-327.66
	276	0.0554	3.80070E-001	2.28788E-009	0.00000E+000	3.80000E-001	8.00223E-005	4	..........a	-327.66
	277	0.0556	3.70070E-001	2.18887E-009	0.00000E+000	3.70000E-001	8.00223E-005	4	..........a	-327.66
	278	0.0558	3.60070E-001	2.10187E-009	0.00000E+000	3.60000E-001	8.00223E-005	4	..........a	-327.66
	279	0.056	3.50070E-001	2.00486E-009	0.00000E+000	3.50000E-001	8.00223E-005	4	..........a	-327.66
	280	0.0562	3.39770E-001	1.90286E-009	0.00000E+000	3.40000E-001	8.00223E-005	4	..........a	-327.66
	281	0.0564	3.29870E-001	1.80286E-009	0.00000E+000	3.30000E-001	8.00223E-005	4	..........a	-327.66
	282	0.0566	3.19870E-001	1.70185E-009	0.00000E+000	3.20000E-001	8.00223E-005	4	..........a	-327.66
	283	0.0568	3.09870E-001	1.59585E-009	0.00000E+000	3.10000E-001	8.00223E-005	4	..........a	-327.66
	284	0.057	2.99670E-001	1.48984E-009	0.00000E+000	3.00000E-001	8.00223E-005	4	..........a	-327.66
	285	0.0572	2.89870E-001	1.38284E-009	0.00000E+000	2.90000E-001	8.00223E-005	4	..........a	-327.66
	286	0.0574	2.79970E-001	1.27284E-009	0.00000E+000	2.80000E-001	8.00223E-005	4	..........a	-327.66
	287	0.0576	2.69970E-001	1.16183E-009	0.00000E+000	2.70000E-001	8.00223E-005	4	..........a	-327.66
	288	0.0578	2.60070E-001	1.05083E-009	0.00000E+000	2.60000E-001	8.00223E-005	4	..........a	-327.66
	289	0.058	2.49870E-001	9.33823E-010	0.00000E+000	2.50000E-001	8.00223E-005	4	..........a	-327.66
	290	0.0582	2.39970E-001	8.10819E-010	0.00000E+000	2.40000E-001	8.00223E-005	4	..........a	-327.66
	291	0.0584	2.29920E-001	6.88814E-010	0.00000E+000	2.30000E-001	8.00223E-005	4	..........a	-327.66
	292	0.0586	2.19220E-001	5.66809E-010	0.00000E+000	2.20000E-001	8.00223E-005	4	..........a	-327.66
	293	0.0588	2.10070E-001	4.43805E-010	0.00000E+000	2.10000E-001	8.00223E-005	4	..........a	-327.66
	294	0.059	1.99870E-001	3.15800E-010	0.00000E+000	2.00000E-001	-3.19978E-004	4	..........a	-327.66
	295	0.0592	1.90070E-001	1.87795E-010	0.00000E+000	1.90000E-001	8.00223E-005	4	..........a	-327.66
	296	0.0594	1.79970E-001	5.77899E-011	0.00000E+000	1.80000E-001	8.00223E-005	4	..........a	-327.66
	297	0.0596	1.70070E-001	-7.42152E-011	0.00000E+000	1.70000E-001	8.00223E-005	4	..........a	-327.66
	298	0.0598	1.60020E-001	-2.11220E-010	0.00000E+000	1.60000E-001	8.00223E-005	4	..........a	-327.66
	299	0.06	1.50070E-001	-3.44226E-010	0.00000E+000	1.50000E-001	8.00223E-005	4	..........a	-327.66
	300	0.0602	1.40020E-001	-4.79231E-010	0.00000E+000	1.40000E-001	8.00223E-005	4	..........a	-327.66
	301	0.0604	1.30070E-001	-6.28236E-010	0.00000E+000	1.30000E-001	8.00223E-005	4	..........a	-327.66
	302	0.0606	1.19970E-001	-7.67242E-010	0.00000E+000	1.20000E-001	8.00223E-005	4	..........a	-327.66
	303	0.0608	1.10070E-001	-9.08247E-010	0.00000E+000	1.10000E-001	-3.19978E-004	4	..........a	-327.66
	304	0.061	1.00070E-001	-1.05325E-009	0.00000E+000	1.00000E-001	8.00223E-005	4	..........a	-327.66
	305	0.0612	8.99695E-002	-1.19826E-009	0.00000E+000	9.00000E-002	-3.19978E-004	4	..........a	-327.66
	306	0.0614	7.99695E-002	-1.34326E-009	0.00000E+000	8.00000E-002	8.00223E-005	4	..........a	-327.66
	307	0.0616	6.99695E-002	-1.49027E-009	0.00000E+000	7.00000E-002	8.00223E-005	4	..........a	-327.66
	308	0.0618	6.01695E-002	-1.63928E-009	0.00000E+000	6.00000E-002	8.00223E-005	4	..........a	-327.66
	309	0.062	4.99195E-002	-1.78828E-009	0.00000E+000	5.00000E-002	8.00223E-005	4	..........a	-327.66
	310	0.0622	4.00695E-002	-1.93529E-009	0.00000E+000	4.00000E-002	8.00223E-005	4	..........a	-327.66
	311	0.0624	3.01695E-002	-2.08529E-009	0.00000E+000	3.00000E-002	8.00223E-005	4	..........a	-327.66
	312	0.0626	2.01695E-002	-2.23030E-009	0.00000E+000	2.00000E-002	8.00223E-005	4	..........a	-327.66
	313	0.0628	1.00695E-002	-2.37830E-009	0.00000E+000	1.00000E-002	-1.19978E-004	4	..........a	-327.66
	314	0.063	1.69519E-004	-2.52431E-009	0.00000E+000	7.45058E-009	8.00223E-005	4	..........a	-327.66
	315	0.0632	-9.93048E-003	-2.67431E-009	0.00000E+000	-1.00000E-002	8.00223E-005	4	..........a	-327.66
	316	0.0634	-1.98305E-002	-2.82632E-009	0.00000E+000	-2.00000E-002	8.00223E-005	4	..........a	-327.66
	317	0.0636	-2.99305E-002	-2.97233E-009	0.00000E+000	-3.00000E-002	8.00223E-005	4	..........a	-327.66
	318	0.0638	-4.00305E-002	-3.11233E-009	0.00000E+000	-4.00000E-002	8.00223E-005	4	..........a	-327.66
	319	0.064	-5.00305E-002	-3.25634E-009	0.00000E+000	-5.00000E-002	8.00223E-005	4	..........a	-327.66
	320	0.0642	-5.99305E-002	-3.39834E-009	0.00000E+000	-6.00000E-002	8.00223E-005	4	..........a	-327.66
	321	0.0644	-7.01305E-002	-3.54235E-009	0.00000E+000	-7.00000E-002	8.00223E-005	4	..........a	-327.66
	322	0.0646	-8.00305E-002	-3.68235E-009	0.00000E+000	-8.00000E-002	8.00223E-005	4	..........a	-327.66
	323	0.0648	-8.99305E-002	-3.82336E-009	0.00000E+000	-9.00000E-002	8.00223E-005	4	..........a	-327.66
	324	0.065	-9.98305E-002	-3.95636E-009	0.00000E+000	-1.00000E-001	8.00223E-005	4	..........a	-327.66
	325	0.0652	-1.10230E-001	-4.09837E-009	0.00000E+000	-1.10000E-001	8.00223E-005	4	..........a	-327.66
	326	0.0654	-1.19930E-001	-4.23438E-009	0.00000E+000	-1.20000E-001	8.00223E-005	4	..........a	-327.66
	327	0.0656	-1.30030E-001	-4.36538E-009	0.00000E+000	-1.30000E-001	8.00223E-005	4	..........a	-327.66
	328	0.0658	-1.39830E-001	-4.50439E-009	0.00000E+000	-1.40000E-001	-3.19978E-004	4	..........a	-327.66
	329	0.066	-1.50030E-001	-4.63439E-009	0.00000E+000	-1.50000E-001	8.00223E-005	4	..........a	-327.66
	330	0.0662	-1.59830E-001	-4.76440E-009	0.00000E+000	-1.60000E-001	8.00223E-005	4	..........a	-327.66
	331	0.0664	-1.69830E-001	-4.89840E-009	0.00000E+000	-1.70000E-001	8.00223E-005	4	..........a	-327.66
	332	0.0666	-1.79830E-001	-5.02641E-009	0.00000E+000	-1.80000E-001	8.00223E-005	4	..........a	-327.66
	333	0.0668	-1.89930E-001	-5.15241E-009	0.00000E+000	-1.90000E-001	8.00223E-005	4	..........a	-327.66
	334	0.067	-1.99830E-001	-5.27741E-009	0.00000E+000	-2.00000E-001	8.00223E-005	4	..........a	-327.66
	335	0.0672	-2.10030E-001	-5.40442E-009	0.00000E+000	-2.10000E-001	8.00223E-005	4	..........a	-327.66
	336	0.0674	-2.19930E-001	-5.53342E-009	0.00000E+000	-2.20000E-001	8.00223E-005	4	..........a	-327.66
	337	0.0676	-2.29830E-001	-5.65643E-009	0.00000E+000	-2.30000E-001	8.00223E-005	4	..........a	-327.66
	338	0.0678	-2.39830E-001	-5.77643E-009	0.00000E+000	-2.40000E-001	8.00223E-005	4	..........a	-327.66
	339	0.068	-2.49930E-001	-5.89544E-009	0.00000E+000	-2.50000E-001	8.00223E-005	4	..........a	-327.66
	340	0.0682	-2.59730E-001	-6.01644E-009	0.00000E+000	-2.60000E-001	8.00223E-005	4	..........a	-327.66
	341	0.0684	-2.69930E-001	-6.14245E-009	0.00000E+000	-2.70000E-001	8.00223E-005	4	..........a	-327.66
	342	0.0686	-2.79930E-001	-6.26045E-009	0.00000E+000	-2.80000E-001	8.00223E-005	4	..........a	-327.66
	343	0.0688	-2.90030E-001	-6.38246E-009	0.00000E+000	-2.90000E-001	8.00223E-005	4	..........a	-327.66
	344	0.069	-2.99730E-001	-6.49646E-009	0.00000E+000	-3.00000E-001	8.00223E-005	4	..........a	-327.66
	345	0.0692	-3.09930E-001	-6.61947E-009	0.00000E+000	-3.10000E-001	8.00223E-005	4	..........a	-327.66
[...]
	2605	0.5212	-5.09830E-001	-6.37446E-009	0.00000E+000	-5.10000E-001	8.00223E-005	4	..........a	-327.66
	2606	0.5214	-5.19830E-001	-6.50246E-009	0.00000E+000	-5.20000E-001	8.00223E-005	4	..........a	-327.66
	2607	0.5216	-5.29930E-001	-6.62347E-009	0.00000E+000	-5.30000E-001	8.00223E-005	4	..........a	-327.66
	2608	0.5218	-5.39930E-001	-6.76247E-009	0.00000E+000	-5.40000E-001	8.00223E-005	4	..........a	-327.66
	2609	0.522	-5.50030E-001	-6.89848E-009	0.00000E+000	-5.50000E-001	8.00223E-005	4	..........a	-327.66
	2610	0.5222	-5.60030E-001	-7.03448E-009	0.00000E+000	-5.60000E-001	8.00223E-005	4	..........a	-327.66
	2611	0.5224	-5.69930E-001	-7.17149E-009	0.00000E+000	-5.70000E-001	8.00223E-005	4	..........a	-327.66
	2612	0.5226	-5.79731E-001	-7.31049E-009	0.00000E+000	-5.80000E-001	8.00223E-005	4	..........a	-327.66
	2613	0.5228	-5.89930E-001	-7.45350E-009	0.00000E+000	-5.90000E-001	8.00223E-005	4	..........a	-327.66
	2614	0.523	-6.00130E-001	-7.60250E-009	0.00000E+000	-6.00000E-001	8.00223E-005	4	..........a	-327.66
	2615	0.5232	-5.89830E-001	-7.62851E-009	0.00000E+000	-5.90000E-001	8.00223E-005	4	..........a	-327.66
	2616	0.5234	-5.79830E-001	-7.63851E-009	0.00000E+000	-5.80000E-001	8.00223E-005	4	..........a	-327.66
	2617	0.5236	-5.69830E-001	-7.63851E-009	0.00000E+000	-5.70000E-001	8.00223E-005	4	..........a	-327.66
	2618	0.5238	-5.59931E-001	-7.62751E-009	0.00000E+000	-5.60000E-001	8.00223E-005	4	..........a	-327.66
	2619	0.524	-5.49931E-001	-7.60850E-009	0.00000E+000	-5.50000E-001	8.00223E-005	4	..........a	-327.66
	2620	0.5242	-5.39730E-001	-7.58850E-009	0.00000E+000	-5.40000E-001	8.00223E-005	4	..........a	-327.66
	2621	0.5244	-5.29930E-001	-7.55950E-009	0.00000E+000	-5.30000E-001	8.00223E-005	4	..........a	-327.66
	2622	0.5246	-5.19930E-001	-7.52450E-009	0.00000E+000	-5.20000E-001	8.00223E-005	4	..........a	-327.66
	2623	0.5248	-5.09930E-001	-7.48650E-009	0.00000E+000	-5.10000E-001	8.00223E-005	4	..........a	-327.66
	2624	0.525	-4.99830E-001	-7.45850E-009	0.00000E+000	-5.00000E-001	8.00223E-005	4	..........a	-327.66
	2625	0.5252	-4.89930E-001	-7.40650E-009	0.00000E+000	-4.90000E-001	8.00223E-005	4	..........a	-327.66
	2626	0.5254	-4.79830E-001	-7.36250E-009	0.00000E+000	-4.80000E-001	8.00223E-005	4	..........a	-327.66
	2627	0.5256	-4.69930E-001	-7.31149E-009	0.00000E+000	-4.70000E-001	8.00223E-005	4	..........a	-327.66
	2628	0.5258	-4.60030E-001	-7.26449E-009	0.00000E+000	-4.60000E-001	8.00223E-005	4	..........a	-327.66
	2629	0.526	-4.50030E-001	-7.20849E-009	0.00000E+000	-4.50000E-001	8.00223E-005	4	..........a	-327.66
	2630	0.5262	-4.39930E-001	-7.15849E-009	0.00000E+000	-4.40000E-001	8.00223E-005	4	..........a	-327.66
	2631	0.5264	-4.29930E-001	-7.10149E-009	0.00000E+000	-4.30000E-001	-3.19978E-004	4	..........a	-327.66
	2632	0.5266	-4.19730E-001	-7.04348E-009	0.00000E+000	-4.20000E-001	8.00223E-005	4	..........a	-327.66
	2633	0.5268	-4.09930E-001	-6.98348E-009	0.00000E+000	-4.10000E-001	8.00223E-005	4	..........a	-327.66
	2634	0.527	-3.99930E-001	-6.92648E-009	0.00000E+000	-4.00000E-001	8.00223E-005	4	..........a	-327.66
	2635	0.5272	-3.90030E-001	-6.86648E-009	0.00000E+000	-3.90000E-001	8.00223E-005	4	..........a	-327.66
	2636	0.5274	-3.79830E-001	-6.80247E-009	0.00000E+000	-3.80000E-001	8.00223E-005	4	..........a	-327.66
	2637	0.5276	-3.69930E-001	-6.74047E-009	0.00000E+000	-3.70000E-001	8.00223E-005	4	..........a	-327.66
	2638	0.5278	-3.60030E-001	-6.67247E-009	0.00000E+000	-3.60000E-001	8.00223E-005	4	..........a	-327.66
	2639	0.528	-3.50030E-001	-6.61347E-009	0.00000E+000	-3.50000E-001	8.00223E-005	4	..........a	-327.66
	2640	0.5282	-3.39730E-001	-6.54246E-009	0.00000E+000	-3.40000E-001	8.00223E-005	4	..........a	-327.66
	2641	0.5284	-3.30030E-001	-6.47346E-009	0.00000E+000	-3.30000E-001	8.00223E-005	4	..........a	-327.66
	2642	0.5286	-3.19930E-001	-6.40746E-009	0.00000E+000	-3.20000E-001	8.00223E-005	4	..........a	-327.66
	2643	0.5288	-3.09830E-001	-6.34046E-009	0.00000E+000	-3.10000E-001	8.00223E-005	4	..........a	-327.66
	2644	0.529	-2.99930E-001	-6.27145E-009	0.00000E+000	-3.00000E-001	8.00223E-005	4	..........a	-327.66
	2645	0.5292	-2.89930E-001	-6.19745E-009	0.00000E+000	-2.90000E-001	8.00223E-005	4	..........a	-327.66
	2646	0.5294	-2.80030E-001	-6.13045E-009	0.00000E+000	-2.80000E-001	8.00223E-005	4	..........a	-327.66
	2647	0.5296	-2.70030E-001	-6.05845E-009	0.00000E+000	-2.70000E-001	8.00223E-005	4	..........a	-327.66
	2648	0.5298	-2.59830E-001	-5.98344E-009	0.00000E+000	-2.60000E-001	8.00223E-005	4	..........a	-327.66
	2649	0.53	-2.49930E-001	-5.91744E-009	0.00000E+000	-2.50000E-001	8.00223E-005	4	..........a	-327.66
	2650	0.5302	-2.40130E-001	-5.84044E-009	0.00000E+000	-2.40000E-001	8.00223E-005	4	..........a	-327.66
	2651	0.5304	-2.29930E-001	-5.76643E-009	0.00000E+000	-2.30000E-001	8.00223E-005	4	..........a	-327.66
	2652	0.5306	-2.19930E-001	-5.68943E-009	0.00000E+000	-2.20000E-001	8.00223E-005	4	..........a	-327.66
	2653	0.5308	-2.10030E-001	-5.61643E-009	0.00000E+000	-2.10000E-001	8.00223E-005	4	..........a	-327.66
	2654	0.531	-2.00130E-001	-5.54043E-009	0.00000E+000	-2.00000E-001	8.00223E-005	4	..........a	-327.66
	2655	0.5312	-1.90330E-001	-5.45642E-009	0.00000E+000	-1.90000E-001	-2.19978E-004	4	..........a	-327.66
	2656	0.5314	-1.79930E-001	-5.38242E-009	0.00000E+000	-1.80000E-001	8.00223E-005	4	..........a	-327.66
	2657	0.5316	-1.69930E-001	-5.30342E-009	0.00000E+000	-1.70000E-001	8.00223E-005	4	..........a	-327.66
	2658	0.5318	-1.60030E-001	-5.22141E-009	0.00000E+000	-1.60000E-001	8.00223E-005	4	..........a	-327.66
	2659	0.532	-1.49930E-001	-5.14941E-009	0.00000E+000	-1.50000E-001	8.00223E-005	4	..........a	-327.66
	2660	0.5322	-1.40130E-001	-5.06441E-009	0.00000E+000	-1.40000E-001	8.00223E-005	4	..........a	-327.66
	2661	0.5324	-1.30030E-001	-4.98540E-009	0.00000E+000	-1.30000E-001	8.00223E-005	4	..........a	-327.66
	2662	0.5326	-1.19830E-001	-4.89940E-009	0.00000E+000	-1.20000E-001	8.00223E-005	4	..........a	-327.66
	2663	0.5328	-1.09930E-001	-4.82240E-009	0.00000E+000	-1.10000E-001	8.00223E-005	4	..........a	-327.66
	2664	0.533	-9.99305E-002	-4.73839E-009	0.00000E+000	-1.00000E-001	8.00223E-005	4	..........a	-327.66
	2665	0.5332	-8.99305E-002	-4.65839E-009	0.00000E+000	-9.00000E-002	8.00223E-005	4	..........a	-327.66
	2666	0.5334	-7.98305E-002	-4.57239E-009	0.00000E+000	-8.00000E-002	8.00223E-005	4	..........a	-327.66
	2667	0.5336	-7.00305E-002	-4.48438E-009	0.00000E+000	-7.00000E-002	8.00223E-005	4	..........a	-327.66
	2668	0.5338	-5.98305E-002	-4.40838E-009	0.00000E+000	-6.00000E-002	8.00223E-005	4	..........a	-327.66
	2669	0.534	-5.00305E-002	-4.32338E-009	0.00000E+000	-5.00000E-002	8.00223E-005	4	..........a	-327.66
	2670	0.5342	-3.99305E-002	-4.23738E-009	0.00000E+000	-4.00000E-002	8.00223E-005	4	..........a	-327.66
	2671	0.5344	-2.99305E-002	-4.15237E-009	0.00000E+000	-3.00000E-002	8.00223E-005	4	..........a	-327.66
	2672	0.5346	-1.99305E-002	-4.06437E-009	0.00000E+000	-2.00000E-002	8.00223E-005	4	..........a	-327.66
	2673	0.5348	-9.93048E-003	-3.97137E-009	0.00000E+000	-1.00000E-002	8.00223E-005	4	..........a	-327.66
	2674	0.535	-3.04808E-005	-3.88536E-009	0.00000E+000	7.45058E-009	8.00223E-005	4	..........a	-327.66
	2675	0.5352	9.96952E-003	-3.79836E-009	0.00000E+000	1.00000E-002	8.00223E-005	4	..........a	-327.66
	2676	0.5354	2.01695E-002	-3.71136E-009	0.00000E+000	2.00000E-002	8.00223E-005	4	..........a	-327.66
	2677	0.5356	2.98695E-002	-3.62035E-009	0.00000E+000	3.00000E-002	8.00223E-005	4	..........a	-327.66
	2678	0.5358	4.00695E-002	-3.52735E-009	0.00000E+000	4.00000E-002	8.00223E-005	4	..........a	-327.66
	2679	0.536	5.00695E-002	-3.44034E-009	0.00000E+000	5.00000E-002	8.00223E-005	4	..........a	-327.66
	2680	0.5362	5.98695E-002	-3.35034E-009	0.00000E+000	6.00000E-002	8.00223E-005	4	..........a	-327.66
	2681	0.5364	7.01695E-002	-3.25634E-009	0.00000E+000	7.00000E-002	8.00223E-005	4	..........a	-327.66
	2682	0.5366	7.99695E-002	-3.15833E-009	0.00000E+000	8.00000E-002	8.00223E-005	4	..........a	-327.66
	2683	0.5368	8.99695E-002	-3.07033E-009	0.00000E+000	9.00000E-002	8.00223E-005	4	..........a	-327.66
	2684	0.537	1.00070E-001	-2.97833E-009	0.00000E+000	1.00000E-001	8.00223E-005	4	..........a	-327.66
	2685	0.5372	1.10070E-001	-2.87932E-009	0.00000E+000	1.10000E-001	8.00223E-005	4	..........a	-327.66
	2686	0.5374	1.19870E-001	-2.78532E-009	0.00000E+000	1.20000E-001	8.00223E-005	4	..........a	-327.66
	2687	0.5376	1.30070E-001	-2.68732E-009	0.00000E+000	1.30000E-001	8.00223E-005	4	..........a	-327.66
	2688	0.5378	1.39970E-001	-2.59031E-009	0.00000E+000	1.40000E-001	8.00223E-005	4	..........a	-327.66
	2689	0.538	1.50070E-001	-2.49031E-009	0.00000E+000	1.50000E-001	8.00223E-005	4	..........a	-327.66
	2690	0.5382	1.59970E-001	-2.39130E-009	0.00000E+000	1.60000E-001	8.00223E-005	4	..........a	-327.66
	2691	0.5384	1.70070E-001	-2.29130E-009	0.00000E+000	1.70000E-001	8.00223E-005	4	..........a	-327.66
	2692	0.5386	1.80070E-001	-2.18930E-009	0.00000E+000	1.80000E-001	8.00223E-005	4	..........a	-327.66
	2693	0.5388	1.90070E-001	-2.08429E-009	0.00000E+000	1.90000E-001	8.00223E-005	4	..........a	-327.66
	2694	0.539	1.99870E-001	-1.97829E-009	0.00000E+000	2.00000E-001	8.00223E-005	4	..........a	-327.66
	2695	0.5392	2.09970E-001	-1.87628E-009	0.00000E+000	2.10000E-001	8.00223E-005	4	..........a	-327.66
	2696	0.5394	2.20170E-001	-1.76728E-009	0.00000E+000	2.20000E-001	8.00223E-005	4	..........a	-327.66
	2697	0.5396	2.29970E-001	-1.66028E-009	0.00000E+000	2.30000E-001	8.00223E-005	4	..........a	-327.66
	2698	0.5398	2.39970E-001	-1.54927E-009	0.00000E+000	2.40000E-001	8.00223E-005	4	..........a	-327.66
	2699	0.54	2.49970E-001	-1.44827E-009	0.00000E+000	2.50000E-001	8.00223E-005	4	..........a	-327.66
	2700	0.5402	2.60070E-001	-1.33026E-009	0.00000E+000	2.60000E-001	-2.19978E-004	4	..........a	-327.66
	2701	0.5404	2.70070E-001	-1.21326E-009	0.00000E+000	2.70000E-001	8.00223E-005	4	..........a	-327.66
	2702	0.5406	2.79870E-001	-1.10425E-009	0.00000E+000	2.80000E-001	8.00223E-005	4	..........a	-327.66
	2703	0.5408	2.90070E-001	-9.86250E-010	0.00000E+000	2.90000E-001	8.00223E-005	4	..........a	-327.66
	2704	0.541	3.00170E-001	-8.66246E-010	0.00000E+000	3.00000E-001	8.00223E-005	4	..........a	-327.66
	2705	0.5412	3.09970E-001	-7.50241E-010	0.00000E+000	3.10000E-001	8.00223E-005	4	..........a	-327.66
	2706	0.5414	3.19870E-001	-6.32237E-010	0.00000E+000	3.20000E-001	8.00223E-005	4	..........a	-327.66
	2707	0.5416	3.29970E-001	-5.06232E-010	0.00000E+000	3.30000E-001	8.00223E-005	4	..........a	-327.66
	2708	0.5418	3.39970E-001	-3.86227E-010	0.00000E+000	3.40000E-001	8.00223E-005	4	..........a	-327.66
	2709	0.542	3.50070E-001	-2.62222E-010	0.00000E+000	3.50000E-001	8.00223E-005	4	..........a	-327.66
	2710	0.5422	3.60070E-001	-1.35218E-010	0.00000E+000	3.60000E-001	8.00223E-005	4	..........a	-327.66
	2711	0.5424	3.69870E-001	-7.21264E-012	0.00000E+000	3.70000E-001	8.00223E-005	4	..........a	-327.66
	2712	0.5426	3.79870E-001	1.24792E-010	0.00000E+000	3.80000E-001	8.00223E-005	4	..........a	-327.66
	2713	0.5428	3.89820E-001	2.56797E-010	0.00000E+000	3.90000E-001	8.00223E-005	4	..........a	-327.66
	2714	0.543	3.99870E-001	3.88803E-010	0.00000E+000	4.00000E-001	8.00223E-005	4	..........a	-327.66
	2715	0.5432	4.09870E-001	5.22808E-010	0.00000E+000	4.10000E-001	-2.19978E-004	4	..........a	-327.66
	2716	0.5434	4.19970E-001	6.60813E-010	0.00000E+000	4.20000E-001	-5.19978E-004	4	..........a	-327.66
	2717	0.5436	4.29870E-001	7.92818E-010	0.00000E+000	4.30000E-001	8.00223E-005	4	..........a	-327.66
	2718	0.5438	4.39770E-001	9.36824E-010	0.00000E+000	4.40000E-001	8.00223E-005	4	..........a	-327.66
	2719	0.544	4.49670E-001	1.07583E-009	0.00000E+000	4.50000E-001	8.00223E-005	4	..........a	-327.66
	2720	0.5442	4.60170E-001	1.22183E-009	0.00000E+000	4.60000E-001	8.00223E-005	4	..........a	-327.66
	2721	0.5444	4.69970E-001	1.36384E-009	0.00000E+000	4.70000E-001	8.00223E-005	4	..........a	-327.66
	2722	0.5446	4.80070E-001	1.50885E-009	0.00000E+000	4.80000E-001	8.00223E-005	4	..........a	-327.66
	2723	0.5448	4.90070E-001	1.65785E-009	0.00000E+000	4.90000E-001	8.00223E-005	4	..........a	-327.66
	2724	0.545	5.00269E-001	1.81186E-009	0.00000E+000	5.00000E-001	8.00223E-005	4	..........a	-327.66
	2725	0.5452	5.09969E-001	1.96286E-009	0.00000E+000	5.10000E-001	8.00223E-005	4	..........a	-327.66
	2726	0.5454	5.19969E-001	2.11487E-009	0.00000E+000	5.20000E-001	8.00223E-005	4	..........a	-327.66
	2727	0.5456	5.29869E-001	2.27287E-009	0.00000E+000	5.30000E-001	8.00223E-005	4	..........a	-327.66
	2728	0.5458	5.39970E-001	2.43488E-009	0.00000E+000	5.40000E-001	8.00223E-005	4	..........a	-327.66
	2729	0.546	5.49969E-001	2.59689E-009	0.00000E+000	5.50000E-001	8.00223E-005	4	..........a	-327.66
	2730	0.5462	5.59969E-001	2.75589E-009	0.00000E+000	5.60000E-001	8.00223E-005	4	..........a	-327.66
	2731	0.5464	5.69869E-001	2.92590E-009	0.00000E+000	5.70000E-001	8.00223E-005	4	..........a	-327.66
	2732	0.5466	5.79870E-001	3.09591E-009	0.00000E+000	5.80000E-001	-3.19978E-004	4	..........a	-327.66
	2733	0.5468	5.89969E-001	3.27191E-009	0.00000E+000	5.90000E-001	8.00223E-005	4	..........a	-327.66
	2734	0.547	6.00069E-001	3.44392E-009	0.00000E+000	6.00000E-001	8.00223E-005	4	..........a	-327.66
	2735	0.5472	6.09869E-001	3.62593E-009	0.00000E+000	6.10000E-001	-2.19978E-004	4	..........a	-327.66
	2736	0.5474	6.19969E-001	3.80393E-009	0.00000E+000	6.20000E-001	8.00223E-005	4	..........a	-327.66
	2737	0.5476	6.29869E-001	3.98994E-009	0.00000E+000	6.30000E-001	8.00223E-005	4	..........a	-327.66
	2738	0.5478	6.39769E-001	4.17995E-009	0.00000E+000	6.40000E-001	8.00223E-005	4	..........a	-327.66
	2739	0.548	6.49870E-001	4.37496E-009	0.00000E+000	6.50000E-001	8.00223E-005	4	..........a	-327.66
	2740	0.5482	6.59869E-001	4.56396E-009	0.00000E+000	6.60000E-001	8.00223E-005	4	..........a	-327.66
	2741	0.5484	6.69869E-001	4.76097E-009	0.00000E+000	6.70000E-001	8.00223E-005	4	..........a	-327.66
	2742	0.5486	6.79869E-001	4.96298E-009	0.00000E+000	6.80000E-001	8.00223E-005	4	..........a	-327.66
	2743	0.5488	6.89969E-001	5.16799E-009	0.00000E+000	6.90000E-001	8.00223E-005	4	..........a	-327.66
	2744	0.549	6.99969E-001	5.37399E-009	0.00000E+000	7.00000E-001	8.00223E-005	4	..........a	-327.66
	2745	0.5492	7.10069E-001	5.58900E-009	0.00000E+000	7.10000E-001	8.00223E-005	4	..........a	-327.66
	2746	0.5494	7.19969E-001	5.79901E-009	0.00000E+000	7.20000E-001	8.00223E-005	4	..........a	-327.66
	2747	0.5496	7.29769E-001	6.02102E-009	0.00000E+000	7.30000E-001	8.00223E-005	4	..........a	-327.66
	2748	0.5498	7.39969E-001	6.24403E-009	0.00000E+000	7.40000E-001	8.00223E-005	4	..........a	-327.66
	2749	0.55	7.49869E-001	6.47404E-009	0.00000E+000	7.50000E-001	8.00223E-005	4	..........a	-327.66
	2750	0.5502	7.59969E-001	6.70805E-009	0.00000E+000	7.60000E-001	8.00223E-005	4	..........a	-327.66
	2751	0.5504	7.69969E-001	6.94505E-009	0.00000E+000	7.70000E-001	8.00223E-005	4	..........a	-327.66
	2752	0.5506	7.80069E-001	7.18906E-009	0.00000E+000	7.80000E-001	-2.19978E-004	4	..........a	-327.66
	2753	0.5508	7.89919E-001	7.43207E-009	0.00000E+000	7.90000E-001	8.00223E-005	4	..........a	-327.66
	2754	0.551	8.00069E-001	7.68208E-009	0.00000E+000	8.00000E-001	8.00223E-005	4	..........a	-327.66
CURVE11	TABLE
	Pt	T	Vf	Im	Vu	Sig	Ach	IERange	Over	Temp
	#	s	V vs. Ref.	A	V	V	V	#	bits	deg C
	2755	0.5512	7.89869E-001	7.81009E-009	0.00000E+000	7.90000E-001	8.00223E-005	4	..........a	-327.66
	2756	0.5514	7.79969E-001	7.90009E-009	0.00000E+000	7.80000E-001	8.00223E-005	4	..........a	-327.66
	2757	0.5516	7.69870E-001	7.96509E-009	0.00000E+000	7.70000E-001	8.00223E-005	4	..........a	-327.66
	2758	0.5518	7.59869E-001	8.00610E-009	0.00000E+000	7.60000E-001	8.00223E-005	4	..........a	-327.66
	2759	0.552	7.49869E-001	8.03110E-009	0.00000E+000	7.50000E-001	8.00223E-005	4	..........a	-327.66
	2760	0.5522	7.39869E-001	8.04610E-009	0.00000E+000	7.40000E-001	8.00223E-005	4	..........a	-327.66
	2761	0.5524	7.29819E-001	8.04310E-009	0.00000E+000	7.30000E-001	8.00223E-005	4	..........a	-327.66
	2762	0.5526	7.19869E-001	8.03510E-009	0.00000E+000	7.20000E-001	-4.19978E-004	4	..........a	-327.66
	2763	0.5528	7.09870E-001	8.01910E-009	0.00000E+000	7.10000E-001	8.00223E-005	4	..........a	-327.66
	2764	0.553	7.00069E-001	7.99309E-009	0.00000E+000	7.00000E-001	8.00223E-005	4	..........a	-327.66
	2765	0.5532	6.89819E-001	7.96109E-009	0.00000E+000	6.90000E-001	8.00223E-005	4	..........a	-327.66
	2766	0.5534	6.79669E-001	7.92809E-009	0.00000E+000	6.80000E-001	8.00223E-005	4	..........a	-327.66
	2767	0.5536	6.69869E-001	7.88209E-009	0.00000E+000	6.70000E-001	-2.19978E-004	4	..........a	-327.66
	2768	0.5538	6.59869E-001	7.84209E-009	0.00000E+000	6.60000E-001	8.00223E-005	4	..........a	-327.66
	2769	0.554	6.49969E-001	7.79409E-009	0.00000E+000	6.50000E-001	8.00223E-005	4	..........a	-327.66
	2770	0.5542	6.39870E-001	7.73808E-009	0.00000E+000	6.40000E-001	8.00223E-005	4	..........a	-327.66
	2771	0.5544	6.29969E-001	7.68208E-009	0.00000E+000	6.30000E-001	-3.19978E-004	4	..........a	-327.66
	2772	0.5546	6.19869E-001	7.62808E-009	0.00000E+000	6.20000E-001	8.00223E-005	4	..........a	-327.66
	2773	0.5548	6.09869E-001	7.56408E-009	0.00000E+000	6.10000E-001	8.00223E-005	4	..........a	-327.66
	2774	0.555	5.99970E-001	7.50308E-009	0.00000E+000	6.00000E-001	8.00223E-005	4	..........a	-327.66
	2775	0.5552	5.89819E-001	7.43407E-009	0.00000E+000	5.90000E-001	8.00223E-005	4	..........a	-327.66
	2776	0.5554	5.80069E-001	7.36407E-009	0.00000E+000	5.80000E-001	8.00223E-005	4	..........a	-327.66
	2777	0.5556	5.70069E-001	7.30107E-009	0.00000E+000	5.70000E-001	8.00223E-005	4	..........a	-327.66
	2778	0.5558	5.59969E-001	7.22807E-009	0.00000E+000	5.60000E-001	8.00223E-005	4	..........a	-327.66
	2779	0.556	5.50070E-001	7.15606E-009	0.00000E+000	5.50000E-001	8.00223E-005	4	..........a	-327.66
	2780	0.5562	5.40069E-001	7.08006E-009	0.00000E+000	5.40000E-001	8.00223E-005	4	..........a	-327.66
	2781	0.5564	5.29869E-001	7.00206E-009	0.00000E+000	5.30000E-001	8.00223E-005	4	..........a	-327.66
	2782	0.5566	5.19870E-001	6.92505E-009	0.00000E+000	5.20000E-001	8.00223E-005	4	..........a	-327.66
	2783	0.5568	5.10069E-001	6.84205E-009	0.00000E+000	5.10000E-001	8.00223E-005	4	..........a	-327.66
	2784	0.557	5.00219E-001	6.75905E-009	0.00000E+000	5.00000E-001	8.00223E-005	4	..........a	-327.66
	2785	0.5572	4.90070E-001	6.67704E-009	0.00000E+000	4.90000E-001	8.00223E-005	4	..........a	-327.66
	2786	0.5574	4.80020E-001	6.59204E-009	0.00000E+000	4.80000E-001	8.00223E-005	4	..........a	-327.66
	2787	0.5576	4.69870E-001	6.50504E-009	0.00000E+000	4.70000E-001	8.00223E-005	4	..........a	-327.66
	2788	0.5578	4.59970E-001	6.41503E-009	0.00000E+000	4.60000E-001	8.00223E-005	4	..........a	-327.66
	2789	0.558	4.49670E-001	6.32503E-009	0.00000E+000	4.50000E-001	8.00223E-005	4	..........a	-327.66
	2790	0.5582	4.39970E-001	6.23603E-009	0.00000E+000	4.40000E-001	8.00223E-005	4	..........a	-327.66
	2791	0.5584	4.29870E-001	6.13802E-009	0.00000E+000	4.30000E-001	8.00223E-005	4	..........a	-327.66
	2792	0.5586	4.19870E-001	6.04302E-009	0.00000E+000	4.20000E-001	8.00223E-005	4	..........a	-327.66
	2793	0.5588	4.10070E-001	5.94402E-009	0.00000E+000	4.10000E-001	8.00223E-005	4	..........a	-327.66
	2794	0.559	4.00070E-001	5.84701E-009	0.00000E+000	4.00000E-001	8.00223E-005	4	..........a	-327.66
	2795	0.5592	3.89970E-001	5.74401E-009	0.00000E+000	3.90000E-001	8.00223E-005	4	..........a	-327.66
	2796	0.5594	3.80020E-001	5.63900E-009	0.00000E+000	3.80000E-001	8.00223E-005	4	..........a	-327.66
	2797	0.5596	3.69770E-001	5.53100E-009	0.00000E+000	3.70000E-001	8.00223E-005	4	..........a	-327.66
	2798	0.5598	3.60070E-001	5.42800E-009	0.00000E+000	3.60000E-001	8.00223E-005	4	..........a	-327.66
	2799	0.56	3.50070E-001	5.31799E-009	0.00000E+000	3.50000E-001	8.00223E-005	4	..........a	-327.66
	2800	0.5602	3.39870E-001	5.20599E-009	0.00000E+000	3.40000E-001	8.00223E-005	4	..........a	-327.66