File: data/raw/batch_data/20240321_ZY_GM0016_HL03_E13_CV50.DTA
EXPLAIN
TAG	CV
TITLE	LABEL	Cyclic Voltammetry	Test &Identifier
DATE	LABEL	3/21/2024	Date
TIME	LABEL	19:23:37	Time
NOTES	NOTES	1	&Notes...

PSTAT	PSTAT	REF600P-43058	Potentiostat
VINIT	POTEN	0.00000E+000	T	Initial &E (V)
VLIMIT1	POTEN	-6.00000E-001	F	Scan Limit &1 (V)
VLIMIT2	POTEN	8.00000E-001	F	Scan Limit &2 (V)
VFINAL	POTEN	0.00000E+000	T	Final &E (V)
SCANRATE	QUANT	4.99999E+001	&Scan Rate (mV/s)
STEPSIZE	QUANT	1.00000E+001	St&ep Size (mV)
CYCLES	IQUANT	4	C&ycles (#)
IMODE	SELECTOR	1	I/E Range &Mode
IRANGE	QUANT	1.00000E-005	&Max Current (mA)
AREA	QUANT	1.00000E+000	Electrode &Area (cm^2)
ELECTRODETYPE	SELECTOR	0	Electrode Type
STRIPPING	TOGGLE	F	Used for Stripping
POLARITY	TOGGLE	F	Signal Polarity
CONDIT	TWOPARAM	F	1.50000E+001	0.00000E+000	Conditionin&g	Time(s)	E(V)
DELAY	TWOPARAM	T	1.00000E+001	0.00000E+000	Init. De&lay	Time(s)	Stab.(mV/s)
EQDELAY	QUANT	1.00000E+001	Equil. &Time (s)
IRCOMP	SELECTOR	0	IRCom&p
PFCOR	QUANT	5.00000E+001	PF Corr. (ohm)
SAMPLINGMODE	SELECTOR	1	Sampling &Mode
OCVCURVE	TABLE	39
	Pt	T	Vf	Vm	Ach	Over	Temp
	#	s	V vs. Ref.	V	V	bits	deg C
	0	0.258333	1.84366E-001	1.84366E-001	2.27222E-004	..........a	-327.66
	1	0.516667	1.84374E-001	1.84767E-001	2.26756E-004	..........a	-327.66
	2	0.775	1.84423E-001	1.85266E-001	2.35489E-004	..........a	-327.66
	3	1.03333	1.84571E-001	1.85798E-001	2.37956E-004	..........a	-327.66
	4	1.29167	1.84856E-001	1.86381E-001	2.36689E-004	..........a	-327.66
	5	1.55	1.85271E-001	1.86961E-001	2.38089E-004	..........a	-327.66
	6	1.80833	1.85776E-001	1.87561E-001	2.33889E-004	..........a	-327.66
	7	2.06667	1.86334E-001	1.88159E-001	2.19822E-004	..........a	-327.66
	8	2.325	1.86918E-001	1.88775E-001	2.42289E-004	..........a	-327.66
	9	2.58333	1.87515E-001	1.89377E-001	2.32956E-004	..........a	-327.66
	10	2.84167	1.88117E-001	1.89989E-001	2.20956E-004	..........a	-327.66
	11	3.1	1.88724E-001	1.90591E-001	2.35489E-004	..........a	-327.66
	12	3.35833	1.89331E-001	1.91207E-001	2.31089E-004	..........a	-327.66
	13	3.61667	1.89940E-001	1.91808E-001	2.27222E-004	..........a	-327.66
	14	3.875	1.90548E-001	1.92416E-001	2.28156E-004	..........a	-327.66
	15	4.13333	1.91155E-001	1.93025E-001	2.30022E-004	..........a	-327.66
	16	4.39167	1.91762E-001	1.93622E-001	2.30556E-004	..........a	-327.66
	17	4.65	1.92368E-001	1.94212E-001	2.33422E-004	..........a	-327.66
	18	4.90833	1.92971E-001	1.94809E-001	2.15089E-004	..........a	-327.66
	19	5.16667	1.93571E-001	1.95404E-001	2.23956E-004	..........a	-327.66
	20	5.425	1.94168E-001	1.95995E-001	2.40489E-004	..........a	-327.66
	21	5.68333	1.94762E-001	1.96578E-001	2.28222E-004	..........a	-327.66
	22	5.94167	1.95355E-001	1.97172E-001	2.41756E-004	..........a	-327.66
	23	6.2	1.95946E-001	1.97764E-001	2.27489E-004	..........a	-327.66
	24	6.45833	1.96536E-001	1.98344E-001	2.31889E-004	..........a	-327.66
	25	6.71667	1.97125E-001	1.98920E-001	2.48156E-004	..........a	-327.66
	26	6.975	1.97712E-001	1.99503E-001	2.35156E-004	..........a	-327.66
	27	7.23333	1.98296E-001	2.00074E-001	2.30089E-004	..........a	-327.66
	28	7.49167	1.98876E-001	2.00645E-001	2.15356E-004	..........a	-327.66
	29	7.75	1.99454E-001	2.01215E-001	2.38289E-004	..........a	-327.66
	30	8.00833	2.00028E-001	2.01786E-001	2.32889E-004	..........a	-327.66
	31	8.26667	2.00600E-001	2.02349E-001	2.17756E-004	..........a	-327.66
	32	8.525	2.01170E-001	2.02917E-001	2.31089E-004	..........a	-327.66
	33	8.78333	2.01739E-001	2.03473E-001	2.31756E-004	..........a	-327.66
	34	9.04167	2.02305E-001	2.04036E-001	2.52489E-004	..........a	-327.66
	35	9.3	2.02869E-001	2.04594E-001	2.37556E-004	..........a	-327.66
	36	9.5583	2.03430E-001	2.05140E-001	2.35622E-004	..........a	-327.66
	37	9.8167	2.03989E-001	2.05691E-001	2.27222E-004	..........a	-327.66
	38	10.075	2.04545E-001	2.06224E-001	2.32289E-004	..........a	-327.66
EOC	QUANT	0.2045449	Open Circuit (V)
PSTATMODEL	IQUANT	7	Pstat Model
PSTATSECTION	LABEL	REF600P-43058	Pstat Section
PSTATSERIALNO	LABEL	43058	Pstat Serial Number
CTRLMODE	IQUANT	1	Control Mode
ELECTROMETER	IQUANT	0	RE=0 or CS=1
IESTAB	IQUANT	2	I/E Stability
CASPEED	IQUANT	4	Control Amp Speed
CONVENTION	IQUANT	1	Current Convention
ICHRANGE	IQUANT	2	Ich Range
ICHRANGEMODE	TOGGLE	F	Ich Auto Range
ICHOFFSETENABLE	TOGGLE	F	Ich Offset Enable
ICHOFFSET	QUANT	0	Ich Offset (V)
ICHFILTER	IQUANT	2	Ich Filter
VCHRANGE	IQUANT	2	Vch Range
VCHRANGEMODE	TOGGLE	F	Vch Auto Range
VCHOFFSETENABLE	TOGGLE	F	Vch Offset Enable
VCHOFFSET	QUANT	0	Vch Offset (V)
VCHFILTER	IQUANT	2	Vch Filter
ACHRANGE	IQUANT	2	Ach Range
ACHOFFSETENABLE	TOGGLE	F	Ach Offset Enable
ACHOFFSET	QUANT	0	Ach Offset (V)
ACHFILTER	IQUANT	1	Ach Filter
IERANGELOWERLIMIT	IQUANT	1	I/E Range Lower Limit
IERANGEMODE	TOGGLE	F	I/E AutoRange
IERANGE	IQUANT	4	I/E Range
POSFEEDENABLE	TOGGLE	F	Positive Feedback IR Comp
POSFEEDRESISTANCE	QUANT	0	Positive Feedback Resistance (ohm)
ACHSELECT	IQUANT	4	Ach Select
SENSECABLEID	IQUANT	7	Sense Cable ID
PWRCABLEID	IQUANT	7	Power Cable ID
DCCALDATE	LABEL	12/18/2023	DC Calibration Date
ACCALDATE	LABEL	12/18/2023	AC Calibration Date
THERMOSELECT	IQUANT	1	Thermo Select
FRAMEWORKVERSION	LABEL	7.8.4	Framework Version
INSTRUMENTVERSION	LABEL	4.42	Instrument Version
CURVE1	TABLE
	Pt	T	Vf	Im	Vu	Sig	Ach	IERange	Over	Temp
	#	s	V vs. Ref.	A	V	V	V	#	bits	deg C
	0	0.2	2.04500E-001	1.67944E-011	0.00000E+000	2.04550E-001	1.01202E-003	4	..........a	-327.66
	1	0.4	1.94548E-001	-1.74779E-011	0.00000E+000	1.94550E-001	1.01842E-003	4	..........a	-327.66
	2	0.6	1.84618E-001	-3.87577E-011	0.00000E+000	1.84550E-001	1.00212E-003	4	..........a	-327.66
	3	0.8	1.74588E-001	-5.43433E-011	0.00000E+000	1.74550E-001	1.02832E-003	4	..........a	-327.66
	4	1	1.64566E-001	-6.75948E-011	0.00000E+000	1.64550E-001	1.00452E-003	4	..........a	-327.66
	5	1.2	1.54566E-001	-7.78982E-011	0.00000E+000	1.54550E-001	1.03982E-003	4	..........a	-327.66
	6	1.4	1.44760E-001	-8.80036E-011	0.00000E+000	1.44550E-001	1.02662E-003	4	..........a	-327.66
	7	1.6	1.34566E-001	-9.89970E-011	0.00000E+000	1.34550E-001	1.01392E-003	4	..........a	-327.66
	8	1.8	1.24541E-001	-1.03696E-010	0.00000E+000	1.24550E-001	1.04982E-003	4	..........a	-327.66
	9	2	1.14592E-001	-1.12129E-010	0.00000E+000	1.14550E-001	1.00462E-003	4	..........a	-327.66
	10	2.2	1.04725E-001	-1.18922E-010	0.00000E+000	1.04550E-001	1.02232E-003	4	..........a	-327.66
	11	2.4	9.45437E-002	-1.25393E-010	0.00000E+000	9.45500E-002	1.02742E-003	4	..........a	-327.66
	12	2.6	8.45447E-002	-1.33174E-010	0.00000E+000	8.45500E-002	1.01952E-003	4	..........a	-327.66
	13	2.8	7.45009E-002	-1.38910E-010	0.00000E+000	7.45500E-002	1.02402E-003	4	..........a	-327.66
	14	3	6.46181E-002	-1.45083E-010	0.00000E+000	6.45500E-002	1.02582E-003	4	..........a	-327.66
	15	3.2	5.45598E-002	-1.50949E-010	0.00000E+000	5.45500E-002	1.02682E-003	4	..........a	-327.66
	16	3.4	4.45518E-002	-1.57446E-010	0.00000E+000	4.45500E-002	1.01542E-003	4	..........a	-327.66
	17	3.6	3.45824E-002	-1.63474E-010	0.00000E+000	3.45500E-002	1.01652E-003	4	..........a	-327.66
	18	3.8	2.46282E-002	-1.67053E-010	0.00000E+000	2.45500E-002	1.02132E-003	4	..........a	-327.66
	19	4	1.45778E-002	-1.73022E-010	0.00000E+000	1.45500E-002	1.01312E-003	4	..........a	-327.66
	20	4.2	4.54419E-003	-1.78493E-010	0.00000E+000	4.55000E-003	1.03432E-003	4	..........a	-327.66
	21	4.4	-5.44711E-003	-1.84034E-010	0.00000E+000	-5.45000E-003	1.02322E-003	4	..........a	-327.66
	22	4.6	-1.53941E-002	-1.89222E-010	0.00000E+000	-1.54500E-002	1.03192E-003	4	..........a	-327.66
	23	4.8	-2.55240E-002	-1.94700E-010	0.00000E+000	-2.54500E-002	1.01462E-003	4	..........a	-327.66
	24	5	-3.55142E-002	-1.99690E-010	0.00000E+000	-3.54500E-002	1.00432E-003	4	..........a	-327.66
	25	5.2	-4.54574E-002	-2.06685E-010	0.00000E+000	-4.54500E-002	1.00292E-003	4	..........a	-327.66
	26	5.4	-5.53059E-002	-2.12119E-010	0.00000E+000	-5.54500E-002	1.03032E-003	4	..........a	-327.66
	27	5.6	-6.54034E-002	-2.18791E-010	0.00000E+000	-6.54500E-002	1.00522E-003	4	..........a	-327.66
	28	5.8	-7.54581E-002	-2.26435E-010	0.00000E+000	-7.54500E-002	1.02102E-003	4	..........a	-327.66
	29	6	-8.54228E-002	-2.31914E-010	0.00000E+000	-8.54500E-002	1.00462E-003	4	..........a	-327.66
	30	6.2	-9.53805E-002	-2.39077E-010	0.00000E+000	-9.54500E-002	1.03242E-003	4	..........a	-327.66
	31	6.4	-1.05436E-001	-2.45833E-010	0.00000E+000	-1.05450E-001	1.00672E-003	4	..........a	-327.66
	32	6.6	-1.15425E-001	-2.54848E-010	0.00000E+000	-1.15450E-001	9.90122E-004	4	..........a	-327.66
	33	6.8	-1.25414E-001	-2.61883E-010	0.00000E+000	-1.25450E-001	1.03492E-003	4	..........a	-327.66
	34	7	-1.35423E-001	-2.70302E-010	0.00000E+000	-1.35450E-001	1.01192E-003	4	..........a	-327.66
	35	7.2	-1.45427E-001	-2.82652E-010	0.00000E+000	-1.45450E-001	1.00742E-003	4	..........a	-327.66
	36	7.4	-1.55417E-001	-2.91524E-010	0.00000E+000	-1.55450E-001	1.01852E-003	4	..........a	-327.66
	37	7.6	-1.65405E-001	-2.93721E-010	0.00000E+000	-1.65450E-001	1.01442E-003	4	..........a	-327.66
	38	7.8	-1.75382E-001	-3.04656E-010	0.00000E+000	-1.75450E-001	1.00552E-003	4	..........a	-327.66
	39	8	-1.85416E-001	-3.15217E-010	0.00000E+000	-1.85450E-001	1.04142E-003	4	..........a	-327.66
	40	8.2	-1.95390E-001	-3.20747E-010	0.00000E+000	-1.95450E-001	1.00042E-003	4	..........a	-327.66
	41	8.4	-2.05389E-001	-3.30958E-010	0.00000E+000	-2.05450E-001	1.02532E-003	4	..........a	-327.66
	42	8.6	-2.15382E-001	-3.43501E-010	0.00000E+000	-2.15450E-001	1.00212E-003	4	..........a	-327.66
	43	8.8	-2.25388E-001	-3.52746E-010	0.00000E+000	-2.25450E-001	1.01332E-003	4	..........a	-327.66
	44	9	-2.35404E-001	-3.53413E-010	0.00000E+000	-2.35450E-001	1.03492E-003	4	..........a	-327.66
	45	9.2	-2.45394E-001	-3.75365E-010	0.00000E+000	-2.45450E-001	1.00532E-003	4	..........a	-327.66
	46	9.4	-2.55371E-001	-3.88961E-010	0.00000E+000	-2.55450E-001	1.02842E-003	4	..........a	-327.66
	47	9.6	-2.65398E-001	-4.00732E-010	0.00000E+000	-2.65450E-001	1.00742E-003	4	..........a	-327.66
	48	9.8	-2.75384E-001	-4.17500E-010	0.00000E+000	-2.75450E-001	1.01962E-003	4	..........a	-327.66
	49	10	-2.85384E-001	-4.26833E-010	0.00000E+000	-2.85450E-001	1.04292E-003	4	..........a	-327.66
	50	10.2	-2.95371E-001	-4.44154E-010	0.00000E+000	-2.95450E-001	1.00702E-003	4	..........a	-327.66
	51	10.4	-3.05393E-001	-4.58499E-010	0.00000E+000	-3.05450E-001	1.02472E-003	4	..........a	-327.66
	52	10.6	-3.15397E-001	-4.74000E-010	0.00000E+000	-3.15450E-001	1.02922E-003	4	..........a	-327.66
	53	10.8	-3.25392E-001	-4.88755E-010	0.00000E+000	-3.25450E-001	1.02512E-003	4	..........a	-327.66
	54	11	-3.35335E-001	-5.13610E-010	0.00000E+000	-3.35450E-001	1.04072E-003	4	..........a	-327.66
	55	11.2	-3.45415E-001	-5.31377E-010	0.00000E+000	-3.45450E-001	1.01842E-003	4	..........a	-327.66
	56	11.4	-3.55365E-001	-5.52239E-010	0.00000E+000	-3.55450E-001	1.00842E-003	4	..........a	-327.66
	57	11.6	-3.65422E-001	-5.76762E-010	0.00000E+000	-3.65450E-001	1.02672E-003	4	..........a	-327.66
	58	11.8	-3.75367E-001	-5.98541E-010	0.00000E+000	-3.75450E-001	9.89322E-004	4	..........a	-327.66
	59	12	-3.85409E-001	-6.23435E-010	0.00000E+000	-3.85450E-001	1.03372E-003	4	..........a	-327.66
	60	12.2	-3.95397E-001	-6.49326E-010	0.00000E+000	-3.95450E-001	1.00192E-003	4	..........a	-327.66
	61	12.4	-4.05394E-001	-6.77117E-010	0.00000E+000	-4.05450E-001	9.91022E-004	4	..........a	-327.66
	62	12.6	-4.15255E-001	-7.04861E-010	0.00000E+000	-4.15450E-001	1.00412E-003	4	..........a	-327.66
	63	12.8	-4.25370E-001	-7.33527E-010	0.00000E+000	-4.25450E-001	1.01742E-003	4	..........a	-327.66
	64	13	-4.35418E-001	-7.64171E-010	0.00000E+000	-4.35450E-001	1.03332E-003	4	..........a	-327.66
	65	13.2	-4.45380E-001	-8.01290E-010	0.00000E+000	-4.45450E-001	1.03152E-003	4	..........a	-327.66
	66	13.4	-4.55314E-001	-8.26632E-010	0.00000E+000	-4.55450E-001	1.00482E-003	4	..........a	-327.66
	67	13.6	-4.65376E-001	-8.58852E-010	0.00000E+000	-4.65450E-001	1.02912E-003	4	..........a	-327.66
	68	13.8	-4.75351E-001	-8.91916E-010	0.00000E+000	-4.75450E-001	1.00872E-003	4	..........a	-327.66
	69	14	-4.85366E-001	-9.29180E-010	0.00000E+000	-4.85450E-001	1.01212E-003	4	..........a	-327.66
	70	14.2	-4.95267E-001	-9.63066E-010	0.00000E+000	-4.95450E-001	1.03042E-003	4	..........a	-327.66
	71	14.4	-5.05367E-001	-9.95734E-010	0.00000E+000	-5.05450E-001	1.02212E-003	4	..........a	-327.66
	72	14.6	-5.15401E-001	-1.03108E-009	0.00000E+000	-5.15450E-001	1.04642E-003	4	..........a	-327.66
	73	14.8	-5.25392E-001	-1.06729E-009	0.00000E+000	-5.25450E-001	9.97522E-004	4	..........a	-327.66
	74	15	-5.35308E-001	-1.10453E-009	0.00000E+000	-5.35450E-001	1.01872E-003	4	..........a	-327.66
	75	15.2	-5.45392E-001	-1.14283E-009	0.00000E+000	-5.45450E-001	1.00912E-003	4	..........a	-327.66
	76	15.4	-5.55348E-001	-1.18332E-009	0.00000E+000	-5.55450E-001	1.00842E-003	4	..........a	-327.66
	77	15.6	-5.65380E-001	-1.22301E-009	0.00000E+000	-5.65450E-001	1.01712E-003	4	..........a	-327.66
	78	15.8	-5.75285E-001	-1.26476E-009	0.00000E+000	-5.75450E-001	1.00852E-003	4	..........a	-327.66
	79	16	-5.85368E-001	-1.31529E-009	0.00000E+000	-5.85450E-001	1.01042E-003	4	..........a	-327.66
	80	16.2	-5.95395E-001	-1.35620E-009	0.00000E+000	-5.95450E-001	1.02232E-003	4	..........a	-327.66
	81	16.4	-5.85390E-001	-1.15338E-009	0.00000E+000	-5.85450E-001	1.02482E-003	4	..........a	-327.66
	82	16.6	-5.75321E-001	-1.00317E-009	0.00000E+000	-5.75450E-001	1.01742E-003	4	..........a	-327.66
	83	16.8	-5.65355E-001	-8.86638E-010	0.00000E+000	-5.65450E-001	1.02632E-003	4	..........a	-327.66
	84	17	-5.55399E-001	-7.87807E-010	0.00000E+000	-5.55450E-001	1.00362E-003	4	..........a	-327.66
	85	17.2	-5.45382E-001	-6.96966E-010	0.00000E+000	-5.45450E-001	1.00762E-003	4	..........a	-327.66
	86	17.4	-5.35328E-001	-6.20582E-010	0.00000E+000	-5.35450E-001	1.01252E-003	4	..........a	-327.66
	87	17.6	-5.25413E-001	-5.50876E-010	0.00000E+000	-5.25450E-001	1.00212E-003	4	..........a	-327.66
	88	17.8	-5.15386E-001	-4.84234E-010	0.00000E+000	-5.15450E-001	1.02382E-003	4	..........a	-327.66
	89	18	-5.05370E-001	-4.34895E-010	0.00000E+000	-5.05450E-001	1.01142E-003	4	..........a	-327.66
	90	18.2	-4.95275E-001	-3.86231E-010	0.00000E+000	-4.95450E-001	1.00412E-003	4	..........a	-327.66
	91	18.4	-4.85378E-001	-3.36189E-010	0.00000E+000	-4.85450E-001	1.00192E-003	4	..........a	-327.66
	92	18.6	-4.75324E-001	-2.93644E-010	0.00000E+000	-4.75450E-001	1.04472E-003	4	..........a	-327.66
	93	18.8	-4.65381E-001	-2.53298E-010	0.00000E+000	-4.65450E-001	1.02172E-003	4	..........a	-327.66
	94	19	-4.55279E-001	-2.14955E-010	0.00000E+000	-4.55450E-001	1.00092E-003	4	..........a	-327.66
	95	19.2	-4.45390E-001	-1.79627E-010	0.00000E+000	-4.45450E-001	1.02712E-003	4	..........a	-327.66
	96	19.4	-4.35400E-001	-1.46950E-010	0.00000E+000	-4.35450E-001	1.03352E-003	4	..........a	-327.66
	97	19.6	-4.25379E-001	-1.15517E-010	0.00000E+000	-4.25450E-001	9.92422E-004	4	..........a	-327.66
	98	19.8	-4.15258E-001	-8.52185E-011	0.00000E+000	-4.15450E-001	1.02012E-003	4	..........a	-327.66
	99	20	-4.05398E-001	-5.86975E-011	0.00000E+000	-4.05450E-001	1.03012E-003	4	..........a	-327.66
	100	20.2	-3.95344E-001	-3.44815E-011	0.00000E+000	-3.95450E-001	1.02842E-003	4	..........a	-327.66
	101	20.4	-3.85417E-001	-4.36337E-012	0.00000E+000	-3.85450E-001	1.04302E-003	4	..........a	-327.66
	102	20.6	-3.75348E-001	1.59774E-011	0.00000E+000	-3.75450E-001	1.02172E-003	4	..........a	-327.66
	103	20.8	-3.65420E-001	3.67032E-011	0.00000E+000	-3.65450E-001	1.03502E-003	4	..........a	-327.66
	104	21	-3.55424E-001	5.80890E-011	0.00000E+000	-3.55450E-001	1.02272E-003	4	..........a	-327.66
	105	21.2	-3.45430E-001	7.67797E-011	0.00000E+000	-3.45450E-001	1.01692E-003	4	..........a	-327.66
	106	21.4	-3.35318E-001	9.26394E-011	0.00000E+000	-3.35450E-001	9.98622E-004	4	..........a	-327.66
	107	21.6	-3.25398E-001	1.10993E-010	0.00000E+000	-3.25450E-001	1.01862E-003	4	..........a	-327.66
	108	21.8	-3.15472E-001	1.29080E-010	0.00000E+000	-3.15450E-001	1.02802E-003	4	..........a	-327.66
	109	22	-3.05398E-001	1.41215E-010	0.00000E+000	-3.05450E-001	1.04302E-003	4	..........a	-327.66
	110	22.2	-2.95352E-001	1.59191E-010	0.00000E+000	-2.95450E-001	1.03382E-003	4	..........a	-327.66
	111	22.4	-2.85387E-001	1.67430E-010	0.00000E+000	-2.85450E-001	1.05172E-003	4	..........a	-327.66
	112	22.6	-2.75430E-001	1.80387E-010	0.00000E+000	-2.75450E-001	1.02552E-003	4	..........a	-327.66
	113	22.8	-2.65392E-001	1.88691E-010	0.00000E+000	-2.65450E-001	1.03492E-003	4	..........a	-327.66
	114	23	-2.55276E-001	1.97849E-010	0.00000E+000	-2.55450E-001	1.01582E-003	4	..........a	-327.66
	115	23.2	-2.45390E-001	2.04827E-010	0.00000E+000	-2.45450E-001	9.98722E-004	4	..........a	-327.66
	116	23.4	-2.35403E-001	2.13292E-010	0.00000E+000	-2.35450E-001	1.04052E-003	4	..........a	-327.66
	117	23.6	-2.25390E-001	2.18338E-010	0.00000E+000	-2.25450E-001	1.01562E-003	4	..........a	-327.66
	118	23.8	-2.15686E-001	2.21762E-010	0.00000E+000	-2.15450E-001	1.02262E-003	4	..........a	-327.66
	119	24	-2.05437E-001	2.28221E-010	0.00000E+000	-2.05450E-001	1.03122E-003	4	..........a	-327.66
	120	24.2	-1.95465E-001	2.35835E-010	0.00000E+000	-1.95450E-001	1.02132E-003	4	..........a	-327.66
	121	24.4	-1.85512E-001	2.41702E-010	0.00000E+000	-1.85450E-001	1.01362E-003	4	..........a	-327.66
	122	24.6	-1.75418E-001	2.46753E-010	0.00000E+000	-1.75450E-001	1.03002E-003	4	..........a	-327.66
	123	24.8	-1.65466E-001	2.50099E-010	0.00000E+000	-1.65450E-001	1.02492E-003	4	..........a	-327.66
	124	25	-1.55512E-001	2.54297E-010	0.00000E+000	-1.55450E-001	1.02282E-003	4	..........a	-327.66
	125	25.2	-1.45486E-001	2.57689E-010	0.00000E+000	-1.45450E-001	1.03842E-003	4	..........a	-327.66
	126	25.4	-1.35311E-001	2.61202E-010	0.00000E+000	-1.35450E-001	1.01582E-003	4	..........a	-327.66
	127	25.6	-1.25539E-001	2.63671E-010	0.00000E+000	-1.25450E-001	1.02212E-003	4	..........a	-327.66
	128	25.8	-1.15458E-001	2.67521E-010	0.00000E+000	-1.15450E-001	1.03032E-003	4	..........a	-327.66
	129	26	-1.05495E-001	2.69619E-010	0.00000E+000	-1.05450E-001	1.01982E-003	4	..........a	-327.66
	130	26.2	-9.54067E-002	2.72050E-010	0.00000E+000	-9.54500E-002	9.92522E-004	4	..........a	-327.66
	131	26.4	-8.55016E-002	2.74060E-010	0.00000E+000	-8.54500E-002	1.02652E-003	4	..........a	-327.66
	132	26.6	-7.54666E-002	2.76869E-010	0.00000E+000	-7.54500E-002	1.02982E-003	4	..........a	-327.66
	133	26.8	-6.54116E-002	2.78709E-010	0.00000E+000	-6.54500E-002	1.03732E-003	4	..........a	-327.66
	134	27	-5.53582E-002	2.80712E-010	0.00000E+000	-5.54500E-002	9.97522E-004	4	..........a	-327.66
	135	27.2	-4.54386E-002	2.82247E-010	0.00000E+000	-4.54500E-002	1.03252E-003	4	..........a	-327.66
	136	27.4	-3.54662E-002	2.84247E-010	0.00000E+000	-3.54500E-002	1.01232E-003	4	..........a	-327.66
	137	27.6	-2.55169E-002	2.85523E-010	0.00000E+000	-2.54500E-002	1.03102E-003	4	..........a	-327.66
	138	27.8	-1.53961E-002	2.87949E-010	0.00000E+000	-1.54500E-002	1.02772E-003	4	..........a	-327.66
	139	28	-5.49421E-003	2.89352E-010	0.00000E+000	-5.45000E-003	1.00892E-003	4	..........a	-327.66
	140	28.2	4.55434E-003	2.90114E-010	0.00000E+000	4.55000E-003	1.03342E-003	4	..........a	-327.66
	141	28.4	1.45707E-002	2.91807E-010	0.00000E+000	1.45500E-002	1.01572E-003	4	..........a	-327.66
	142	28.6	2.46981E-002	2.93254E-010	0.00000E+000	2.45500E-002	1.01522E-003	4	..........a	-327.66
	143	28.8	3.45774E-002	2.94722E-010	0.00000E+000	3.45500E-002	1.04992E-003	4	..........a	-327.66
	144	29	4.44852E-002	2.97026E-010	0.00000E+000	4.45500E-002	1.03132E-003	4	..........a	-327.66
	145	29.2	5.45548E-002	2.97557E-010	0.00000E+000	5.45500E-002	1.01902E-003	4	..........a	-327.66
	146	29.4	6.47176E-002	2.98987E-010	0.00000E+000	6.45500E-002	1.04462E-003	4	..........a	-327.66
	147	29.6	7.45082E-002	3.00197E-010	0.00000E+000	7.45500E-002	1.05582E-003	4	..........a	-327.66
	148	29.8	8.45574E-002	3.01600E-010	0.00000E+000	8.45500E-002	1.01572E-003	4	..........a	-327.66
	149	30	9.45073E-002	3.02453E-010	0.00000E+000	9.45500E-002	9.97622E-004	4	..........a	-327.66
	150	30.2	1.04658E-001	3.04891E-010	0.00000E+000	1.04550E-001	1.04292E-003	4	..........a	-327.66
	151	30.4	1.14593E-001	3.05766E-010	0.00000E+000	1.14550E-001	1.01482E-003	4	..........a	-327.66
	152	30.6	1.24508E-001	3.07587E-010	0.00000E+000	1.24550E-001	1.03272E-003	4	..........a	-327.66
	153	30.8	1.34590E-001	3.09066E-010	0.00000E+000	1.34550E-001	1.00452E-003	4	..........a	-327.66
	154	31	1.44676E-001	3.11033E-010	0.00000E+000	1.44550E-001	1.00732E-003	4	..........a	-327.66
	155	31.2	1.54571E-001	3.12755E-010	0.00000E+000	1.54550E-001	1.04122E-003	4	..........a	-327.66
	156	31.4	1.64574E-001	3.14687E-010	0.00000E+000	1.64550E-001	1.04972E-003	4	..........a	-327.66
	157	31.6	1.74562E-001	3.16291E-010	0.00000E+000	1.74550E-001	1.02532E-003	4	..........a	-327.66
	158	31.8	1.84646E-001	3.18858E-010	0.00000E+000	1.84550E-001	1.02172E-003	4	..........a	-327.66
	159	32	1.94489E-001	3.20536E-010	0.00000E+000	1.94550E-001	1.05102E-003	4	..........a	-327.66
	160	32.2	2.04486E-001	3.23346E-010	0.00000E+000	2.04550E-001	1.04122E-003	4	..........a	-327.66
	161	32.4	2.14552E-001	3.24998E-010	0.00000E+000	2.14550E-001	1.03352E-003	4	..........a	-327.66
	162	32.6	2.24687E-001	3.27163E-010	0.00000E+000	2.24550E-001	1.02912E-003	4	..........a	-327.66
	163	32.8	2.34534E-001	3.29776E-010	0.00000E+000	2.34550E-001	1.01182E-003	4	..........a	-327.66
	164	33	2.44490E-001	3.32198E-010	0.00000E+000	2.44550E-001	1.02152E-003	4	..........a	-327.66
	165	33.2	2.54518E-001	3.34526E-010	0.00000E+000	2.54550E-001	1.01862E-003	4	..........a	-327.66
	166	33.4	2.64581E-001	3.37079E-010	0.00000E+000	2.64550E-001	1.03102E-003	4	..........a	-327.66
	167	33.6	2.74494E-001	3.39747E-010	0.00000E+000	2.74550E-001	1.02622E-003	4	..........a	-327.66
	168	33.8	2.84505E-001	3.42465E-010	0.00000E+000	2.84550E-001	1.03042E-003	4	..........a	-327.66
	169	34	2.94551E-001	3.44708E-010	0.00000E+000	2.94550E-001	9.97522E-004	4	..........a	-327.66
	170	34.2	3.04606E-001	3.47124E-010	0.00000E+000	3.04550E-001	1.02502E-003	4	..........a	-327.66
	171	34.4	3.14558E-001	3.49560E-010	0.00000E+000	3.14550E-001	1.02042E-003	4	..........a	-327.66
	172	34.6	3.24517E-001	3.53487E-010	0.00000E+000	3.24550E-001	1.02362E-003	4	..........a	-327.66
	173	34.8	3.34533E-001	3.56526E-010	0.00000E+000	3.34550E-001	1.04312E-003	4	..........a	-327.66
	174	35	3.44598E-001	3.60600E-010	0.00000E+000	3.44550E-001	1.02552E-003	4	..........a	-327.66
	175	35.2	3.54518E-001	3.62910E-010	0.00000E+000	3.54550E-001	1.02372E-003	4	..........a	-327.66
	176	35.4	3.64481E-001	3.66636E-010	0.00000E+000	3.64550E-001	1.04882E-003	4	..........a	-327.66
	177	35.6	3.74496E-001	3.70416E-010	0.00000E+000	3.74550E-001	1.02002E-003	4	..........a	-327.66
	178	35.8	3.84521E-001	3.74385E-010	0.00000E+000	3.84550E-001	1.04362E-003	4	..........a	-327.66
	179	36	3.94566E-001	3.77469E-010	0.00000E+000	3.94550E-001	1.03012E-003	4	..........a	-327.66
	180	36.2	4.04469E-001	3.81556E-010	0.00000E+000	4.04550E-001	1.04642E-003	4	..........a	-327.66
	181	36.4	4.14517E-001	3.86748E-010	0.00000E+000	4.14550E-001	1.03912E-003	4	..........a	-327.66
	182	36.6	4.24721E-001	3.91972E-010	0.00000E+000	4.24550E-001	1.01832E-003	4	..........a	-327.66
	183	36.8	4.34466E-001	3.96833E-010	0.00000E+000	4.34550E-001	1.00772E-003	4	..........a	-327.66
	184	37	4.44522E-001	4.02468E-010	0.00000E+000	4.44550E-001	1.02862E-003	4	..........a	-327.66
	185	37.2	4.54508E-001	4.07963E-010	0.00000E+000	4.54550E-001	1.02652E-003	4	..........a	-327.66
	186	37.4	4.64536E-001	4.12525E-010	0.00000E+000	4.64550E-001	1.02592E-003	4	..........a	-327.66
	187	37.6	4.74556E-001	4.20144E-010	0.00000E+000	4.74550E-001	1.01282E-003	4	..........a	-327.66
	188	37.8	4.84453E-001	4.26800E-010	0.00000E+000	4.84550E-001	1.04072E-003	4	..........a	-327.66
	189	38	4.94544E-001	4.32950E-010	0.00000E+000	4.94550E-001	1.01782E-003	4	..........a	-327.66
	190	38.2	5.04560E-001	4.40504E-010	0.00000E+000	5.04550E-001	1.04342E-003	4	..........a	-327.66
	191	38.4	5.14474E-001	4.46046E-010	0.00000E+000	5.14550E-001	1.01462E-003	4	..........a	-327.66
	192	38.6	5.24530E-001	4.56081E-010	0.00000E+000	5.24550E-001	1.02562E-003	4	..........a	-327.66
	193	38.8	5.34503E-001	4.64276E-010	0.00000E+000	5.34550E-001	1.02952E-003	4	..........a	-327.66
	194	39	5.44569E-001	4.73522E-010	0.00000E+000	5.44550E-001	9.94822E-004	4	..........a	-327.66
	195	39.2	5.54448E-001	4.81379E-010	0.00000E+000	5.54550E-001	1.00552E-003	4	..........a	-327.66
	196	39.4	5.64453E-001	4.92946E-010	0.00000E+000	5.64550E-001	1.04242E-003	4	..........a	-327.66
	197	39.6	5.74516E-001	5.03256E-010	0.00000E+000	5.74550E-001	1.01072E-003	4	..........a	-327.66
	198	39.8	5.84554E-001	5.12975E-010	0.00000E+000	5.84550E-001	1.01402E-003	4	..........a	-327.66
	199	40	5.94522E-001	5.25216E-010	0.00000E+000	5.94550E-001	1.01232E-003	4	..........a	-327.66
	200	40.2	6.04520E-001	5.37018E-010	0.00000E+000	6.04550E-001	1.00542E-003	4	..........a	-327.66
	201	40.4	6.14479E-001	5.49882E-010	0.00000E+000	6.14550E-001	1.00002E-003	4	..........a	-327.66
	202	40.6	6.24506E-001	5.63714E-010	0.00000E+000	6.24550E-001	1.04042E-003	4	..........a	-327.66
	203	40.8	6.34451E-001	5.76510E-010	0.00000E+000	6.34550E-001	1.02572E-003	4	..........a	-327.66
	204	41	6.44442E-001	5.92472E-010	0.00000E+000	6.44550E-001	1.03042E-003	4	..........a	-327.66
	205	41.2	6.54219E-001	6.04851E-010	0.00000E+000	6.54550E-001	1.01972E-003	4	..........a	-327.66
	206	41.4	6.64527E-001	6.25320E-010	0.00000E+000	6.64550E-001	1.00092E-003	4	..........a	-327.66
	207	41.6	6.74515E-001	6.37758E-010	0.00000E+000	6.74550E-001	1.02262E-003	4	..........a	-327.66
	208	41.8	6.84423E-001	6.52688E-010	0.00000E+000	6.84550E-001	1.02672E-003	4	..........a	-327.66
	209	42	6.94474E-001	6.67205E-010	0.00000E+000	6.94550E-001	1.01162E-003	4	..........a	-327.66
	210	42.2	7.04496E-001	6.84656E-010	0.00000E+000	7.04550E-001	9.93122E-004	4	..........a	-327.66
	211	42.4	7.14467E-001	7.02658E-010	0.00000E+000	7.14550E-001	1.02892E-003	4	..........a	-327.66
	212	42.6	7.24480E-001	7.19368E-010	0.00000E+000	7.24550E-001	9.97122E-004	4	..........a	-327.66
	213	42.8	7.34452E-001	7.33559E-010	0.00000E+000	7.34550E-001	1.03662E-003	4	..........a	-327.66
	214	43	7.44494E-001	7.57463E-010	0.00000E+000	7.44550E-001	1.00432E-003	4	..........a	-327.66
	215	43.2	7.54497E-001	7.78282E-010	0.00000E+000	7.54550E-001	1.00072E-003	4	..........a	-327.66
	216	43.4	7.64412E-001	7.99259E-010	0.00000E+000	7.64550E-001	1.02872E-003	4	..........a	-327.66
	217	43.6	7.74461E-001	8.21451E-010	0.00000E+000	7.74550E-001	1.01892E-003	4	..........a	-327.66
	218	43.8	7.84539E-001	8.43387E-010	0.00000E+000	7.84550E-001	9.96922E-004	4	..........a	-327.66
	219	44	7.94464E-001	8.66773E-010	0.00000E+000	7.94550E-001	1.02522E-003	4	..........a	-327.66
CURVE2	TABLE
	Pt	T	Vf	Im	Vu	Sig	Ach	IERange	Over	Temp
	#	s	V vs. Ref.	A	V	V	V	#	bits	deg C
	220	44.2	7.89946E-001	7.28772E-010	0.00000E+000	7.90000E-001	1.02022E-003	4	..........a	-327.66
	221	44.4	7.79958E-001	5.85547E-010	0.00000E+000	7.80000E-001	1.02002E-003	4	..........a	-327.66
	222	44.6	7.69931E-001	4.83088E-010	0.00000E+000	7.70000E-001	1.03322E-003	4	..........a	-327.66
	223	44.8	7.59944E-001	4.08215E-010	0.00000E+000	7.60000E-001	1.04062E-003	4	..........a	-327.66
	224	45	7.49943E-001	3.45659E-010	0.00000E+000	7.50000E-001	1.02862E-003	4	..........a	-327.66
	225	45.2	7.39946E-001	2.94574E-010	0.00000E+000	7.40000E-001	1.04692E-003	4	..........a	-327.66
	226	45.4	7.29918E-001	2.50799E-010	0.00000E+000	7.30000E-001	1.02582E-003	4	..........a	-327.66
	227	45.6	7.19920E-001	2.14559E-010	0.00000E+000	7.20000E-001	1.03172E-003	4	..........a	-327.66
	228	45.8	7.09854E-001	1.82244E-010	0.00000E+000	7.10000E-001	1.03202E-003	4	..........a	-327.66
	229	46	6.99996E-001	1.56638E-010	0.00000E+000	7.00000E-001	1.03192E-003	4	..........a	-327.66
	230	46.2	6.89821E-001	1.27515E-010	0.00000E+000	6.90000E-001	9.97822E-004	4	..........a	-327.66
	231	46.4	6.79759E-001	9.87756E-011	0.00000E+000	6.80000E-001	1.03562E-003	4	..........a	-327.66
	232	46.6	6.69884E-001	7.84018E-011	0.00000E+000	6.70000E-001	1.01032E-003	4	..........a	-327.66
	233	46.8	6.60013E-001	5.86550E-011	0.00000E+000	6.60000E-001	1.02512E-003	4	..........a	-327.66
	234	47	6.49938E-001	4.12914E-011	0.00000E+000	6.50000E-001	1.03302E-003	4	..........a	-327.66
	235	47.2	6.39872E-001	2.49298E-011	0.00000E+000	6.40000E-001	1.03002E-003	4	..........a	-327.66
	236	47.4	6.29927E-001	9.55817E-012	0.00000E+000	6.30000E-001	1.01482E-003	4	..........a	-327.66
	237	47.6	6.20006E-001	-1.65726E-012	0.00000E+000	6.20000E-001	1.00652E-003	4	..........a	-327.66
	238	47.8	6.09922E-001	-1.91189E-011	0.00000E+000	6.10000E-001	1.02622E-003	4	..........a	-327.66
	239	48	5.99930E-001	-3.42555E-011	0.00000E+000	6.00000E-001	9.89122E-004	4	..........a	-327.66
	240	48.2	5.89922E-001	-4.19248E-011	0.00000E+000	5.90000E-001	1.00352E-003	4	..........a	-327.66
	241	48.4	5.80015E-001	-5.39833E-011	0.00000E+000	5.80000E-001	1.02712E-003	4	..........a	-327.66
	242	48.6	5.69923E-001	-6.44227E-011	0.00000E+000	5.70000E-001	1.00612E-003	4	..........a	-327.66
	243	48.8	5.59904E-001	-7.29440E-011	0.00000E+000	5.60000E-001	1.02722E-003	4	..........a	-327.66
	244	49	5.49933E-001	-8.30044E-011	0.00000E+000	5.50000E-001	1.00932E-003	4	..........a	-327.66
	245	49.2	5.39995E-001	-9.31938E-011	0.00000E+000	5.40000E-001	1.01432E-003	4	..........a	-327.66
	246	49.4	5.29954E-001	-1.00434E-010	0.00000E+000	5.30000E-001	1.00692E-003	4	..........a	-327.66
	247	49.6	5.19956E-001	-1.06956E-010	0.00000E+000	5.20000E-001	1.02162E-003	4	..........a	-327.66
	248	49.8	5.09947E-001	-1.15540E-010	0.00000E+000	5.10000E-001	1.02612E-003	4	..........a	-327.66
	249	50	5.00008E-001	-1.22230E-010	0.00000E+000	5.00000E-001	1.02292E-003	4	..........a	-327.66
	250	50.2	4.89925E-001	-1.29842E-010	0.00000E+000	4.90000E-001	1.01562E-003	4	..........a	-327.66
	251	50.4	4.79902E-001	-1.34609E-010	0.00000E+000	4.80000E-001	1.02962E-003	4	..........a	-327.66
	252	50.6	4.69937E-001	-1.42518E-010	0.00000E+000	4.70000E-001	1.00642E-003	4	..........a	-327.66
	253	50.8	4.59995E-001	-1.48854E-010	0.00000E+000	4.60000E-001	1.01772E-003	4	..........a	-327.66
	254	51	4.50003E-001	-1.54695E-010	0.00000E+000	4.50000E-001	1.03052E-003	4	..........a	-327.66
	255	51.2	4.39953E-001	-1.61946E-010	0.00000E+000	4.40000E-001	1.01892E-003	4	..........a	-327.66
	256	51.4	4.29982E-001	-1.66026E-010	0.00000E+000	4.30000E-001	9.96422E-004	4	..........a	-327.66
	257	51.6	4.20015E-001	-1.70698E-010	0.00000E+000	4.20000E-001	1.01832E-003	4	..........a	-327.66
	258	51.8	4.09907E-001	-1.76794E-010	0.00000E+000	4.10000E-001	1.01442E-003	4	..........a	-327.66
	259	52	3.99938E-001	-1.82212E-010	0.00000E+000	4.00000E-001	1.01792E-003	4	..........a	-327.66
	260	52.2	3.89963E-001	-1.86946E-010	0.00000E+000	3.90000E-001	1.02082E-003	4	..........a	-327.66
	261	52.4	3.79978E-001	-1.93864E-010	0.00000E+000	3.80000E-001	1.03822E-003	4	..........a	-327.66
	262	52.6	3.69991E-001	-1.97551E-010	0.00000E+000	3.70000E-001	1.03872E-003	4	..........a	-327.66
	263	52.8	3.59886E-001	-2.02070E-010	0.00000E+000	3.60000E-001	1.03772E-003	4	..........a	-327.66
	264	53	3.49927E-001	-2.06982E-010	0.00000E+000	3.50000E-001	1.01252E-003	4	..........a	-327.66
	265	53.2	3.40031E-001	-2.11620E-010	0.00000E+000	3.40000E-001	1.00372E-003	4	..........a	-327.66
	266	53.4	3.30012E-001	-2.15659E-010	0.00000E+000	3.30000E-001	1.01432E-003	4	..........a	-327.66
	267	53.6	3.19949E-001	-2.20366E-010	0.00000E+000	3.20000E-001	1.04132E-003	4	..........a	-327.66
	268	53.8	3.09971E-001	-2.25383E-010	0.00000E+000	3.10000E-001	1.02952E-003	4	..........a	-327.66
	269	54	3.00027E-001	-2.28951E-010	0.00000E+000	3.00000E-001	1.01312E-003	4	..........a	-327.66
	270	54.2	2.89993E-001	-2.32888E-010	0.00000E+000	2.90000E-001	1.00722E-003	4	..........a	-327.66
	271	54.4	2.79983E-001	-2.36894E-010	0.00000E+000	2.80000E-001	1.01942E-003	4	..........a	-327.66
	272	54.6	2.69979E-001	-2.40246E-010	0.00000E+000	2.70000E-001	1.02262E-003	4	..........a	-327.66
	273	54.8	2.60025E-001	-2.43973E-010	0.00000E+000	2.60000E-001	1.04252E-003	4	..........a	-327.66
	274	55	2.50018E-001	-2.47147E-010	0.00000E+000	2.50000E-001	1.02832E-003	4	..........a	-327.66
	275	55.2	2.39980E-001	-2.51328E-010	0.00000E+000	2.40000E-001	1.00482E-003	4	..........a	-327.66
	276	55.4	2.29948E-001	-2.55635E-010	0.00000E+000	2.30000E-001	1.04172E-003	4	..........a	-327.66
	277	55.6	2.20031E-001	-2.59857E-010	0.00000E+000	2.20000E-001	1.04382E-003	4	..........a	-327.66
	278	55.8	2.10011E-001	-2.62262E-010	0.00000E+000	2.10000E-001	1.03272E-003	4	..........a	-327.66
	279	56	1.99898E-001	-2.64368E-010	0.00000E+000	2.00000E-001	1.03772E-003	4	..........a	-327.66
	280	56.2	1.90053E-001	-2.65377E-010	0.00000E+000	1.90000E-001	1.00072E-003	4	..........a	-327.66
	281	56.4	1.80081E-001	-2.69124E-010	0.00000E+000	1.80000E-001	1.01952E-003	4	..........a	-327.66
	282	56.6	1.70023E-001	-2.75462E-010	0.00000E+000	1.70000E-001	1.01782E-003	4	..........a	-327.66
	283	56.8	1.59953E-001	-2.79227E-010	0.00000E+000	1.60000E-001	1.01092E-003	4	..........a	-327.66
	284	57	1.50013E-001	-2.83665E-010	0.00000E+000	1.50000E-001	1.01322E-003	4	..........a	-327.66
	285	57.2	1.40057E-001	-2.86777E-010	0.00000E+000	1.40000E-001	1.00202E-003	4	..........a	-327.66
	286	57.4	1.30048E-001	-2.89457E-010	0.00000E+000	1.30000E-001	1.00512E-003	4	..........a	-327.66
	287	57.6	1.20032E-001	-2.91280E-010	0.00000E+000	1.20000E-001	1.03362E-003	4	..........a	-327.66
	288	57.8	1.10051E-001	-2.92067E-010	0.00000E+000	1.10000E-001	1.01232E-003	4	..........a	-327.66
	289	58	1.00046E-001	-2.92180E-010	0.00000E+000	1.00000E-001	1.01602E-003	4	..........a	-327.66
	290	58.2	9.00080E-002	-2.93793E-010	0.00000E+000	9.00000E-002	9.78722E-004	4	..........a	-327.66
	291	58.4	8.00693E-002	-2.95164E-010	0.00000E+000	8.00000E-002	1.00762E-003	4	..........a	-327.66
	292	58.6	7.00526E-002	-2.96570E-010	0.00000E+000	7.00000E-002	1.01542E-003	4	..........a	-327.66
	293	58.8	6.00919E-002	-2.99928E-010	0.00000E+000	6.00000E-002	1.05532E-003	4	..........a	-327.66
	294	59	5.00111E-002	-3.04956E-010	0.00000E+000	5.00000E-002	1.04062E-003	4	..........a	-327.66
	295	59.2	3.98519E-002	-3.09399E-010	0.00000E+000	4.00000E-002	9.91522E-004	4	..........a	-327.66
	296	59.4	3.00815E-002	-3.10729E-010	0.00000E+000	3.00000E-002	1.00802E-003	4	..........a	-327.66
	297	59.6	2.00917E-002	-3.13086E-010	0.00000E+000	2.00000E-002	1.02922E-003	4	..........a	-327.66
	298	59.8	1.00559E-002	-3.18030E-010	0.00000E+000	1.00000E-002	1.00552E-003	4	..........a	-327.66
	299	60	2.64908E-005	-3.23974E-010	0.00000E+000	7.45058E-009	1.02732E-003	4	..........a	-327.66
	300	60.2	-1.00390E-002	-3.24157E-010	0.00000E+000	-1.00000E-002	9.96422E-004	4	..........a	-327.66
	301	60.4	-1.99310E-002	-3.29413E-010	0.00000E+000	-2.00000E-002	1.00862E-003	4	..........a	-327.66
	302	60.6	-3.00474E-002	-3.35564E-010	0.00000E+000	-3.00000E-002	1.02212E-003	4	..........a	-327.66
	303	60.8	-3.99507E-002	-3.39832E-010	0.00000E+000	-4.00000E-002	1.03292E-003	4	..........a	-327.66
	304	61	-4.99863E-002	-3.43911E-010	0.00000E+000	-5.00000E-002	9.99322E-004	4	..........a	-327.66
	305	61.2	-5.98814E-002	-3.48782E-010	0.00000E+000	-6.00000E-002	1.00542E-003	4	..........a	-327.66
	306	61.4	-6.99693E-002	-3.52764E-010	0.00000E+000	-7.00000E-002	1.00792E-003	4	..........a	-327.66
	307	61.6	-7.98572E-002	-3.52963E-010	0.00000E+000	-8.00000E-002	1.00262E-003	4	..........a	-327.66
	308	61.8	-9.00054E-002	-3.57559E-010	0.00000E+000	-9.00000E-002	1.02092E-003	4	..........a	-327.66
	309	62	-9.99238E-002	-3.73852E-010	0.00000E+000	-1.00000E-001	1.02742E-003	4	..........a	-327.66
	310	62.2	-1.10060E-001	-3.81795E-010	0.00000E+000	-1.10000E-001	1.00922E-003	4	..........a	-327.66
	311	62.4	-1.19949E-001	-3.85321E-010	0.00000E+000	-1.20000E-001	1.04312E-003	4	..........a	-327.66
	312	62.6	-1.30008E-001	-3.92878E-010	0.00000E+000	-1.30000E-001	1.02162E-003	4	..........a	-327.66
	313	62.8	-1.39924E-001	-4.00632E-010	0.00000E+000	-1.40000E-001	1.02652E-003	4	..........a	-327.66
	314	63	-1.49979E-001	-4.09850E-010	0.00000E+000	-1.50000E-001	1.01542E-003	4	..........a	-327.66
	315	63.2	-1.60012E-001	-4.17152E-010	0.00000E+000	-1.60000E-001	1.01192E-003	4	..........a	-327.66
	316	63.4	-1.69957E-001	-4.22519E-010	0.00000E+000	-1.70000E-001	9.91922E-004	4	..........a	-327.66
	317	63.6	-1.79930E-001	-4.28997E-010	0.00000E+000	-1.80000E-001	1.00772E-003	4	..........a	-327.66
	318	63.8	-1.90040E-001	-4.36649E-010	0.00000E+000	-1.90000E-001	1.01582E-003	4	..........a	-327.66
	319	64	-1.99984E-001	-4.46232E-010	0.00000E+000	-2.00000E-001	1.01302E-003	4	..........a	-327.66
	320	64.2	-2.09941E-001	-4.52968E-010	0.00000E+000	-2.10000E-001	1.01012E-003	4	..........a	-327.66
	321	64.4	-2.19910E-001	-4.60395E-010	0.00000E+000	-2.20000E-001	1.02732E-003	4	..........a	-327.66
	322	64.6	-2.29985E-001	-4.70103E-010	0.00000E+000	-2.30000E-001	9.91622E-004	4	..........a	-327.66
	323	64.8	-2.39900E-001	-4.78485E-010	0.00000E+000	-2.40000E-001	1.01742E-003	4	..........a	-327.66
	324	65	-2.49929E-001	-4.87872E-010	0.00000E+000	-2.50000E-001	1.02742E-003	4	..........a	-327.66
	325	65.2	-2.59914E-001	-4.97282E-010	0.00000E+000	-2.60000E-001	1.01252E-003	4	..........a	-327.66
	326	65.4	-2.69931E-001	-5.09549E-010	0.00000E+000	-2.70000E-001	1.00412E-003	4	..........a	-327.66
	327	65.6	-2.80037E-001	-5.19443E-010	0.00000E+000	-2.80000E-001	1.01442E-003	4	..........a	-327.66
	328	65.8	-2.90010E-001	-5.31253E-010	0.00000E+000	-2.90000E-001	1.04282E-003	4	..........a	-327.66
	329	66	-2.99931E-001	-5.45463E-010	0.00000E+000	-3.00000E-001	1.00712E-003	4	..........a	-327.66
	330	66.2	-3.09980E-001	-5.55975E-010	0.00000E+000	-3.10000E-001	1.03512E-003	4	..........a	-327.66
	331	66.4	-3.19925E-001	-5.69946E-010	0.00000E+000	-3.20000E-001	9.93322E-004	4	..........a	-327.66
	332	66.6	-3.29943E-001	-5.83459E-010	0.00000E+000	-3.30000E-001	1.01902E-003	4	..........a	-327.66
	333	66.8	-3.39935E-001	-5.98777E-010	0.00000E+000	-3.40000E-001	1.03712E-003	4	..........a	-327.66
	334	67	-3.49910E-001	-6.12747E-010	0.00000E+000	-3.50000E-001	1.02472E-003	4	..........a	-327.66
	335	67.2	-3.59928E-001	-6.29553E-010	0.00000E+000	-3.60000E-001	1.01592E-003	4	..........a	-327.66
	336	67.4	-3.69989E-001	-6.46705E-010	0.00000E+000	-3.70000E-001	1.01972E-003	4	..........a	-327.66
	337	67.6	-3.79931E-001	-6.64134E-010	0.00000E+000	-3.80000E-001	1.04992E-003	4	..........a	-327.66
	338	67.8	-3.89960E-001	-6.82274E-010	0.00000E+000	-3.90000E-001	1.03372E-003	4	..........a	-327.66
	339	68	-3.99927E-001	-7.01621E-010	0.00000E+000	-4.00000E-001	9.99622E-004	4	..........a	-327.66
	340	68.2	-4.09969E-001	-7.20331E-010	0.00000E+000	-4.10000E-001	1.01612E-003	4	..........a	-327.66
	341	68.4	-4.19951E-001	-7.41910E-010	0.00000E+000	-4.20000E-001	1.02082E-003	4	..........a	-327.66
	342	68.6	-4.29900E-001	-7.62803E-010	0.00000E+000	-4.30000E-001	1.02392E-003	4	..........a	-327.66
	343	68.8	-4.40020E-001	-7.88040E-010	0.00000E+000	-4.40000E-001	1.00692E-003	4	..........a	-327.66
	344	69	-4.49871E-001	-8.07944E-010	0.00000E+000	-4.50000E-001	1.01972E-003	4	..........a	-327.66
	345	69.2	-4.59857E-001	-8.30999E-010	0.00000E+000	-4.60000E-001	1.05122E-003	4	..........a	-327.66
	346	69.4	-4.69918E-001	-8.56262E-010	0.00000E+000	-4.70000E-001	1.02372E-003	4	..........a	-327.66
	347	69.6	-4.79859E-001	-8.81718E-010	0.00000E+000	-4.80000E-001	1.02452E-003	4	..........a	-327.66
	348	69.8	-4.89943E-001	-9.07376E-010	0.00000E+000	-4.90000E-001	1.03152E-003	4	..........a	-327.66
	349	70	-4.99880E-001	-9.35547E-010	0.00000E+000	-5.00000E-001	9.95222E-004	4	..........a	-327.66
	350	70.2	-5.09879E-001	-9.65397E-010	0.00000E+000	-5.10000E-001	1.01292E-003	4	..........a	-327.66
	351	70.4	-5.19897E-001	-9.94909E-010	0.00000E+000	-5.20000E-001	1.03902E-003	4	..........a	-327.66
	352	70.6	-5.29896E-001	-1.02619E-009	0.00000E+000	-5.30000E-001	1.02372E-003	4	..........a	-327.66
	353	70.8	-5.39901E-001	-1.06172E-009	0.00000E+000	-5.40000E-001	1.00372E-003	4	..........a	-327.66
[...]
	919	184	-5.99891E-001	-1.39375E-009	0.00000E+000	-6.00000E-001	1.02132E-003	4	..........a	-327.66
	920	184.2	-5.89883E-001	-1.12715E-009	0.00000E+000	-5.90000E-001	1.03052E-003	4	..........a	-327.66
	921	184.4	-5.79858E-001	-9.55617E-010	0.00000E+000	-5.80000E-001	1.00532E-003	4	..........a	-327.66
	922	184.6	-5.69953E-001	-8.31117E-010	0.00000E+000	-5.70000E-001	1.02132E-003	4	..........a	-327.66
	923	184.8	-5.59964E-001	-7.34400E-010	0.00000E+000	-5.60000E-001	1.04372E-003	4	..........a	-327.66
	924	185	-5.49968E-001	-6.54050E-010	0.00000E+000	-5.50000E-001	1.03522E-003	4	..........a	-327.66
	925	185.2	-5.39874E-001	-5.85643E-010	0.00000E+000	-5.40000E-001	1.01352E-003	4	..........a	-327.66
	926	185.4	-5.29902E-001	-5.26641E-010	0.00000E+000	-5.30000E-001	1.04072E-003	4	..........a	-327.66
	927	185.6	-5.19886E-001	-4.73836E-010	0.00000E+000	-5.20000E-001	1.05812E-003	4	..........a	-327.66
	928	185.8	-5.09887E-001	-4.26428E-010	0.00000E+000	-5.10000E-001	1.01462E-003	4	..........a	-327.66
	929	186	-4.99872E-001	-3.80669E-010	0.00000E+000	-5.00000E-001	1.01912E-003	4	..........a	-327.66
	930	186.2	-4.89884E-001	-3.40652E-010	0.00000E+000	-4.90000E-001	1.01262E-003	4	..........a	-327.66
	931	186.4	-4.79857E-001	-3.03375E-010	0.00000E+000	-4.80000E-001	1.00422E-003	4	..........a	-327.66
	932	186.6	-4.69925E-001	-2.68605E-010	0.00000E+000	-4.70000E-001	1.02182E-003	4	..........a	-327.66
	933	186.8	-4.59889E-001	-2.32621E-010	0.00000E+000	-4.60000E-001	1.02862E-003	4	..........a	-327.66
	934	187	-4.49931E-001	-2.00465E-010	0.00000E+000	-4.50000E-001	1.03252E-003	4	..........a	-327.66
	935	187.2	-4.39943E-001	-1.69649E-010	0.00000E+000	-4.40000E-001	1.00602E-003	4	..........a	-327.66
	936	187.4	-4.29929E-001	-1.40159E-010	0.00000E+000	-4.30000E-001	1.03022E-003	4	..........a	-327.66
	937	187.6	-4.19885E-001	-1.12313E-010	0.00000E+000	-4.20000E-001	1.02622E-003	4	..........a	-327.66
	938	187.8	-4.09974E-001	-8.56595E-011	0.00000E+000	-4.10000E-001	1.04222E-003	4	..........a	-327.66
	939	188	-3.99936E-001	-6.11075E-011	0.00000E+000	-4.00000E-001	1.04272E-003	4	..........a	-327.66
	940	188.2	-3.89954E-001	-3.77446E-011	0.00000E+000	-3.90000E-001	1.04642E-003	4	..........a	-327.66
	941	188.4	-3.79956E-001	-1.31697E-011	0.00000E+000	-3.80000E-001	1.02812E-003	4	..........a	-327.66
	942	188.6	-3.70005E-001	8.67113E-012	0.00000E+000	-3.70000E-001	1.03732E-003	4	..........a	-327.66
	943	188.8	-3.59948E-001	3.08340E-011	0.00000E+000	-3.60000E-001	1.05042E-003	4	..........a	-327.66
	944	189	-3.49919E-001	4.96367E-011	0.00000E+000	-3.50000E-001	1.04452E-003	4	..........a	-327.66
	945	189.2	-3.39951E-001	6.93435E-011	0.00000E+000	-3.40000E-001	1.04062E-003	4	..........a	-327.66
	946	189.4	-3.29958E-001	8.68871E-011	0.00000E+000	-3.30000E-001	1.02422E-003	4	..........a	-327.66
	947	189.6	-3.19987E-001	1.02281E-010	0.00000E+000	-3.20000E-001	1.02882E-003	4	..........a	-327.66
	948	189.8	-3.09943E-001	1.20887E-010	0.00000E+000	-3.10000E-001	1.02372E-003	4	..........a	-327.66
	949	190	-2.99915E-001	1.36779E-010	0.00000E+000	-3.00000E-001	1.04132E-003	4	..........a	-327.66
	950	190.2	-2.89975E-001	1.51033E-010	0.00000E+000	-2.90000E-001	1.02372E-003	4	..........a	-327.66
	951	190.4	-2.79979E-001	1.63026E-010	0.00000E+000	-2.80000E-001	1.04352E-003	4	..........a	-327.66
	952	190.6	-2.69916E-001	1.78704E-010	0.00000E+000	-2.70000E-001	1.02082E-003	4	..........a	-327.66
	953	190.8	-2.59933E-001	1.91508E-010	0.00000E+000	-2.60000E-001	1.02042E-003	4	..........a	-327.66
	954	191	-2.49949E-001	2.01904E-010	0.00000E+000	-2.50000E-001	1.03862E-003	4	..........a	-327.66
	955	191.2	-2.39917E-001	2.11973E-010	0.00000E+000	-2.40000E-001	1.04202E-003	4	..........a	-327.66
	956	191.4	-2.29956E-001	2.19074E-010	0.00000E+000	-2.30000E-001	1.02532E-003	4	..........a	-327.66
	957	191.6	-2.19926E-001	2.25807E-010	0.00000E+000	-2.20000E-001	1.03562E-003	4	..........a	-327.66
	958	191.8	-2.09994E-001	2.37537E-010	0.00000E+000	-2.10000E-001	1.01732E-003	4	..........a	-327.66
	959	192	-2.00121E-001	2.45075E-010	0.00000E+000	-2.00000E-001	1.02972E-003	4	..........a	-327.66
	960	192.2	-1.89972E-001	2.51265E-010	0.00000E+000	-1.90000E-001	1.05072E-003	4	..........a	-327.66
	961	192.4	-1.80039E-001	2.57134E-010	0.00000E+000	-1.80000E-001	1.03732E-003	4	..........a	-327.66
	962	192.6	-1.70020E-001	2.61988E-010	0.00000E+000	-1.70000E-001	1.04082E-003	4	..........a	-327.66
	963	192.8	-1.60065E-001	2.66889E-010	0.00000E+000	-1.60000E-001	1.03632E-003	4	..........a	-327.66
	964	193	-1.50029E-001	2.71129E-010	0.00000E+000	-1.50000E-001	1.03112E-003	4	..........a	-327.66
	965	193.2	-1.39968E-001	2.73973E-010	0.00000E+000	-1.40000E-001	1.03762E-003	4	..........a	-327.66
	966	193.4	-1.30043E-001	2.78062E-010	0.00000E+000	-1.30000E-001	1.02272E-003	4	..........a	-327.66
	967	193.6	-1.20004E-001	2.81385E-010	0.00000E+000	-1.20000E-001	1.03352E-003	4	..........a	-327.66
	968	193.8	-1.10003E-001	2.84079E-010	0.00000E+000	-1.10000E-001	1.02672E-003	4	..........a	-327.66
	969	194	-9.99811E-002	2.86158E-010	0.00000E+000	-1.00000E-001	1.04072E-003	4	..........a	-327.66
	970	194.2	-9.00020E-002	2.88217E-010	0.00000E+000	-9.00000E-002	1.04082E-003	4	..........a	-327.66
	971	194.4	-8.00380E-002	2.90996E-010	0.00000E+000	-8.00000E-002	1.01572E-003	4	..........a	-327.66
	972	194.6	-6.99827E-002	2.93176E-010	0.00000E+000	-7.00000E-002	1.02812E-003	4	..........a	-327.66
	973	194.8	-6.00209E-002	2.94036E-010	0.00000E+000	-6.00000E-002	1.07212E-003	4	..........a	-327.66
	974	195	-5.00481E-002	2.95979E-010	0.00000E+000	-5.00000E-002	1.03342E-003	4	..........a	-327.66
	975	195.2	-3.99895E-002	2.97279E-010	0.00000E+000	-4.00000E-002	1.05372E-003	4	..........a	-327.66
	976	195.4	-2.99868E-002	2.99081E-010	0.00000E+000	-3.00000E-002	1.03322E-003	4	..........a	-327.66
	977	195.6	-1.99660E-002	3.01634E-010	0.00000E+000	-2.00000E-002	1.02702E-003	4	..........a	-327.66
	978	195.8	-1.00803E-002	3.02928E-010	0.00000E+000	-1.00000E-002	1.02232E-003	4	..........a	-327.66
	979	196	-5.29592E-005	3.04077E-010	0.00000E+000	7.45058E-009	1.02942E-003	4	..........a	-327.66
	980	196.2	1.00556E-002	3.05597E-010	0.00000E+000	1.00000E-002	1.02562E-003	4	..........a	-327.66
	981	196.4	2.00041E-002	3.06695E-010	0.00000E+000	2.00000E-002	1.04892E-003	4	..........a	-327.66
	982	196.6	2.99848E-002	3.08509E-010	0.00000E+000	3.00000E-002	1.05432E-003	4	..........a	-327.66
	983	196.8	4.00690E-002	3.10278E-010	0.00000E+000	4.00000E-002	1.03062E-003	4	..........a	-327.66
	984	197	5.00341E-002	3.12091E-010	0.00000E+000	5.00000E-002	1.02742E-003	4	..........a	-327.66
	985	197.2	6.00669E-002	3.13291E-010	0.00000E+000	6.00000E-002	1.03522E-003	4	..........a	-327.66
	986	197.4	6.99495E-002	3.15007E-010	0.00000E+000	7.00000E-002	1.04612E-003	4	..........a	-327.66
	987	197.6	7.99817E-002	3.16250E-010	0.00000E+000	8.00000E-002	1.03092E-003	4	..........a	-327.66
	988	197.8	9.00893E-002	3.17650E-010	0.00000E+000	9.00000E-002	1.04682E-003	4	..........a	-327.66
	989	198	9.99866E-002	3.19973E-010	0.00000E+000	1.00000E-001	1.04092E-003	4	..........a	-327.66
	990	198.2	1.10015E-001	3.21740E-010	0.00000E+000	1.10000E-001	1.03882E-003	4	..........a	-327.66
	991	198.4	1.19985E-001	3.24456E-010	0.00000E+000	1.20000E-001	1.06862E-003	4	..........a	-327.66
	992	198.6	1.30058E-001	3.27448E-010	0.00000E+000	1.30000E-001	1.05182E-003	4	..........a	-327.66
	993	198.8	1.40094E-001	3.30258E-010	0.00000E+000	1.40000E-001	1.06622E-003	4	..........a	-327.66
	994	199	1.49974E-001	3.32610E-010	0.00000E+000	1.50000E-001	1.04142E-003	4	..........a	-327.66
	995	199.2	1.60036E-001	3.35647E-010	0.00000E+000	1.60000E-001	1.03062E-003	4	..........a	-327.66
	996	199.4	1.70000E-001	3.38446E-010	0.00000E+000	1.70000E-001	1.03692E-003	4	..........a	-327.66
	997	199.6	1.80058E-001	3.42081E-010	0.00000E+000	1.80000E-001	1.03422E-003	4	..........a	-327.66
	998	199.8	1.90042E-001	3.45192E-010	0.00000E+000	1.90000E-001	1.02262E-003	4	..........a	-327.66
	999	200	2.00031E-001	3.48272E-010	0.00000E+000	2.00000E-001	1.03062E-003	4	..........a	-327.66
	1000	200.2	2.10009E-001	3.51955E-010	0.00000E+000	2.10000E-001	1.04132E-003	4	..........a	-327.66
	1001	200.4	2.20002E-001	3.55294E-010	0.00000E+000	2.20000E-001	1.03642E-003	4	..........a	-327.66
	1002	200.6	2.29966E-001	3.59081E-010	0.00000E+000	2.30000E-001	1.05712E-003	4	..........a	-327.66
	1003	200.8	2.39991E-001	3.63180E-010	0.00000E+000	2.40000E-001	1.03012E-003	4	..........a	-327.66
	1004	201	2.50012E-001	3.67383E-010	0.00000E+000	2.50000E-001	1.05562E-003	4	..........a	-327.66
	1005	201.2	2.59989E-001	3.70817E-010	0.00000E+000	2.60000E-001	1.04592E-003	4	..........a	-327.66
	1006	201.4	2.69948E-001	3.74751E-010	0.00000E+000	2.70000E-001	1.02092E-003	4	..........a	-327.66
	1007	201.6	2.79924E-001	3.79041E-010	0.00000E+000	2.80000E-001	1.04392E-003	4	..........a	-327.66
	1008	201.8	2.90000E-001	3.81613E-010	0.00000E+000	2.90000E-001	1.03942E-003	4	..........a	-327.66
	1009	202	3.00008E-001	3.84866E-010	0.00000E+000	3.00000E-001	1.04842E-003	4	..........a	-327.66
	1010	202.2	3.09976E-001	3.87589E-010	0.00000E+000	3.10000E-001	1.03502E-003	4	..........a	-327.66
	1011	202.4	3.19997E-001	3.90969E-010	0.00000E+000	3.20000E-001	1.05312E-003	4	..........a	-327.66
	1012	202.6	3.30001E-001	3.94204E-010	0.00000E+000	3.30000E-001	1.02222E-003	4	..........a	-327.66
	1013	202.8	3.40044E-001	3.97102E-010	0.00000E+000	3.40000E-001	1.03752E-003	4	..........a	-327.66
	1014	203	3.49941E-001	3.99609E-010	0.00000E+000	3.50000E-001	1.02172E-003	4	..........a	-327.66
	1015	203.2	3.59998E-001	4.02717E-010	0.00000E+000	3.60000E-001	1.01832E-003	4	..........a	-327.66
	1016	203.4	3.69990E-001	4.05552E-010	0.00000E+000	3.70000E-001	1.02572E-003	4	..........a	-327.66
	1017	203.6	3.80030E-001	4.07686E-010	0.00000E+000	3.80000E-001	1.03302E-003	4	..........a	-327.66
	1018	203.8	3.89994E-001	4.09457E-010	0.00000E+000	3.90000E-001	1.05272E-003	4	..........a	-327.66
	1019	204	4.00045E-001	4.11995E-010	0.00000E+000	4.00000E-001	1.02932E-003	4	..........a	-327.66
	1020	204.2	4.09943E-001	4.15130E-010	0.00000E+000	4.10000E-001	1.02992E-003	4	..........a	-327.66
	1021	204.4	4.20031E-001	4.17515E-010	0.00000E+000	4.20000E-001	1.04532E-003	4	..........a	-327.66
	1022	204.6	4.29953E-001	4.19425E-010	0.00000E+000	4.30000E-001	1.04632E-003	4	..........a	-327.66
	1023	204.8	4.39956E-001	4.21945E-010	0.00000E+000	4.40000E-001	1.04632E-003	4	..........a	-327.66
	1024	205	4.50024E-001	4.24627E-010	0.00000E+000	4.50000E-001	1.02782E-003	4	..........a	-327.66
	1025	205.2	4.60006E-001	4.28217E-010	0.00000E+000	4.60000E-001	1.04432E-003	4	..........a	-327.66
	1026	205.4	4.69957E-001	4.31217E-010	0.00000E+000	4.70000E-001	1.04902E-003	4	..........a	-327.66
	1027	205.6	4.79886E-001	4.34313E-010	0.00000E+000	4.80000E-001	1.04362E-003	4	..........a	-327.66
	1028	205.8	4.89959E-001	4.38344E-010	0.00000E+000	4.90000E-001	1.04232E-003	4	..........a	-327.66
	1029	206	5.00067E-001	4.40731E-010	0.00000E+000	5.00000E-001	1.03132E-003	4	..........a	-327.66
	1030	206.2	5.09947E-001	4.44918E-010	0.00000E+000	5.10000E-001	1.05072E-003	4	..........a	-327.66
	1031	206.4	5.19959E-001	4.47699E-010	0.00000E+000	5.20000E-001	1.04552E-003	4	..........a	-327.66
	1032	206.6	5.29959E-001	4.53333E-010	0.00000E+000	5.30000E-001	1.02772E-003	4	..........a	-327.66
	1033	206.8	5.40018E-001	4.57013E-010	0.00000E+000	5.40000E-001	1.03972E-003	4	..........a	-327.66
	1034	207	5.49965E-001	4.62868E-010	0.00000E+000	5.50000E-001	1.03032E-003	4	..........a	-327.66
	1035	207.2	5.60001E-001	4.67358E-010	0.00000E+000	5.60000E-001	1.06052E-003	4	..........a	-327.66
	1036	207.4	5.69974E-001	4.71970E-010	0.00000E+000	5.70000E-001	1.03282E-003	4	..........a	-327.66
	1037	207.6	5.80018E-001	4.76316E-010	0.00000E+000	5.80000E-001	1.05682E-003	4	..........a	-327.66
	1038	207.8	5.89962E-001	4.83120E-010	0.00000E+000	5.90000E-001	1.02922E-003	4	..........a	-327.66
	1039	208	5.99921E-001	4.90152E-010	0.00000E+000	6.00000E-001	1.01852E-003	4	..........a	-327.66
	1040	208.2	6.09922E-001	4.97221E-010	0.00000E+000	6.10000E-001	1.01982E-003	4	..........a	-327.66
	1041	208.4	6.19999E-001	5.05798E-010	0.00000E+000	6.20000E-001	1.05912E-003	4	..........a	-327.66
	1042	208.6	6.29894E-001	5.11412E-010	0.00000E+000	6.30000E-001	1.03142E-003	4	..........a	-327.66
	1043	208.8	6.39913E-001	5.19542E-010	0.00000E+000	6.40000E-001	1.02722E-003	4	..........a	-327.66
	1044	209	6.49915E-001	5.28940E-010	0.00000E+000	6.50000E-001	1.04282E-003	4	..........a	-327.66
	1045	209.2	6.60024E-001	5.40504E-010	0.00000E+000	6.60000E-001	1.05062E-003	4	..........a	-327.66
	1046	209.4	6.69922E-001	5.47299E-010	0.00000E+000	6.70000E-001	1.04802E-003	4	..........a	-327.66
	1047	209.6	6.79776E-001	5.59481E-010	0.00000E+000	6.80000E-001	1.03992E-003	4	..........a	-327.66
	1048	209.8	6.89891E-001	5.71528E-010	0.00000E+000	6.90000E-001	1.05242E-003	4	..........a	-327.66
	1049	210	6.99987E-001	5.83979E-010	0.00000E+000	7.00000E-001	1.04382E-003	4	..........a	-327.66
	1050	210.2	7.09900E-001	5.98038E-010	0.00000E+000	7.10000E-001	1.03872E-003	4	..........a	-327.66
	1051	210.4	7.19920E-001	6.10730E-010	0.00000E+000	7.20000E-001	1.02532E-003	4	..........a	-327.66
	1052	210.6	7.29930E-001	6.31387E-010	0.00000E+000	7.30000E-001	1.05282E-003	4	..........a	-327.66
	1053	210.8	7.40005E-001	6.47646E-010	0.00000E+000	7.40000E-001	1.03162E-003	4	..........a	-327.66
	1054	211	7.49866E-001	6.70981E-010	0.00000E+000	7.50000E-001	1.02722E-003	4	..........a	-327.66
	1055	211.2	7.59885E-001	6.87674E-010	0.00000E+000	7.60000E-001	1.04432E-003	4	..........a	-327.66
	1056	211.4	7.69909E-001	7.10551E-010	0.00000E+000	7.70000E-001	1.02452E-003	4	..........a	-327.66
	1057	211.6	7.79981E-001	7.32284E-010	0.00000E+000	7.80000E-001	1.02762E-003	4	..........a	-327.66
	1058	211.8	7.89919E-001	7.62697E-010	0.00000E+000	7.90000E-001	1.02912E-003	4	..........a	-327.66
	1059	212	7.99910E-001	7.92185E-010	0.00000E+000	8.00000E-001	1.04492E-003	4	..........a	-327.66
CURVE5	TABLE
	Pt	T	Vf	Im	Vu	Sig	Ach	IERange	Over	Temp
	#	s	V vs. Ref.	A	V	V	V	#	bits	deg C
	1060	212.2	7.89937E-001	6.05730E-010	0.00000E+000	7.90000E-001	1.03962E-003	4	..........a	-327.66
	1061	212.4	7.79986E-001	4.91839E-010	0.00000E+000	7.80000E-001	1.05612E-003	4	..........a	-327.66
	1062	212.6	7.69934E-001	4.07127E-010	0.00000E+000	7.70000E-001	1.03152E-003	4	..........a	-327.66
	1063	212.8	7.59942E-001	3.39789E-010	0.00000E+000	7.60000E-001	1.04292E-003	4	..........a	-327.66
	1064	213	7.49942E-001	2.84726E-010	0.00000E+000	7.50000E-001	1.05712E-003	4	..........a	-327.66
	1065	213.2	7.39946E-001	2.40033E-010	0.00000E+000	7.40000E-001	1.03882E-003	4	..........a	-327.66
	1066	213.4	7.30012E-001	2.01911E-010	0.00000E+000	7.30000E-001	1.02532E-003	4	..........a	-327.66
	1067	213.6	7.19880E-001	1.69363E-010	0.00000E+000	7.20000E-001	1.04742E-003	4	..........a	-327.66
	1068	213.8	7.09904E-001	1.40428E-010	0.00000E+000	7.10000E-001	1.05102E-003	4	..........a	-327.66
	1069	214	7.00004E-001	1.17622E-010	0.00000E+000	7.00000E-001	1.02782E-003	4	..........a	-327.66
	1070	214.2	6.89927E-001	9.18923E-011	0.00000E+000	6.90000E-001	1.02262E-003	4	..........a	-327.66
	1071	214.4	6.79799E-001	7.38636E-011	0.00000E+000	6.80000E-001	1.04332E-003	4	..........a	-327.66
	1072	214.6	6.69943E-001	5.61150E-011	0.00000E+000	6.70000E-001	1.03382E-003	4	..........a	-327.66
	1073	214.8	6.60030E-001	4.00913E-011	0.00000E+000	6.60000E-001	1.04232E-003	4	..........a	-327.66
	1074	215	6.49917E-001	2.62698E-011	0.00000E+000	6.50000E-001	1.03152E-003	4	..........a	-327.66
	1075	215.2	6.39918E-001	9.85718E-012	0.00000E+000	6.40000E-001	1.02772E-003	4	..........a	-327.66
	1076	215.4	6.29913E-001	-4.40837E-012	0.00000E+000	6.30000E-001	1.02232E-003	4	..........a	-327.66
	1077	215.6	6.19998E-001	-1.65148E-011	0.00000E+000	6.20000E-001	1.03462E-003	4	..........a	-327.66
	1078	215.8	6.09986E-001	-3.02894E-011	0.00000E+000	6.10000E-001	1.02722E-003	4	..........a	-327.66
	1079	216	5.99988E-001	-3.94867E-011	0.00000E+000	6.00000E-001	1.04712E-003	4	..........a	-327.66
	1080	216.2	5.89918E-001	-5.04161E-011	0.00000E+000	5.90000E-001	1.02772E-003	4	..........a	-327.66
	1081	216.4	5.80005E-001	-6.15056E-011	0.00000E+000	5.80000E-001	1.04402E-003	4	..........a	-327.66
	1082	216.6	5.69979E-001	-6.98679E-011	0.00000E+000	5.70000E-001	1.01062E-003	4	..........a	-327.66
	1083	216.8	5.59922E-001	-7.88612E-011	0.00000E+000	5.60000E-001	1.03512E-003	4	..........a	-327.66
	1084	217	5.49972E-001	-8.77366E-011	0.00000E+000	5.50000E-001	1.04512E-003	4	..........a	-327.66
	1085	217.2	5.40006E-001	-9.82590E-011	0.00000E+000	5.40000E-001	1.04042E-003	4	..........a	-327.66
	1086	217.4	5.29953E-001	-1.03914E-010	0.00000E+000	5.30000E-001	1.04492E-003	4	..........a	-327.66
	1087	217.6	5.19969E-001	-1.11839E-010	0.00000E+000	5.20000E-001	1.04092E-003	4	..........a	-327.66
	1088	217.8	5.09951E-001	-1.19904E-010	0.00000E+000	5.10000E-001	1.02702E-003	4	..........a	-327.66
	1089	218	5.00007E-001	-1.28036E-010	0.00000E+000	5.00000E-001	1.02832E-003	4	..........a	-327.66
	1090	218.2	4.89959E-001	-1.35379E-010	0.00000E+000	4.90000E-001	1.03952E-003	4	..........a	-327.66
	1091	218.4	4.79915E-001	-1.43395E-010	0.00000E+000	4.80000E-001	1.05402E-003	4	..........a	-327.66
	1092	218.6	4.69972E-001	-1.50228E-010	0.00000E+000	4.70000E-001	1.04412E-003	4	..........a	-327.66
	1093	218.8	4.60003E-001	-1.57728E-010	0.00000E+000	4.60000E-001	1.04072E-003	4	..........a	-327.66
	1094	219	4.49973E-001	-1.63819E-010	0.00000E+000	4.50000E-001	1.02272E-003	4	..........a	-327.66
	1095	219.2	4.39971E-001	-1.69456E-010	0.00000E+000	4.40000E-001	1.06482E-003	4	..........a	-327.66
	1096	219.4	4.29926E-001	-1.76376E-010	0.00000E+000	4.30000E-001	1.04832E-003	4	..........a	-327.66
	1097	219.6	4.20024E-001	-1.82240E-010	0.00000E+000	4.20000E-001	1.05282E-003	4	..........a	-327.66
	1098	219.8	4.09949E-001	-1.88951E-010	0.00000E+000	4.10000E-001	1.05272E-003	4	..........a	-327.66
	1099	220	3.99902E-001	-1.95745E-010	0.00000E+000	4.00000E-001	1.05172E-003	4	..........a	-327.66
	1100	220.2	3.89965E-001	-2.00795E-010	0.00000E+000	3.90000E-001	1.03812E-003	4	..........a	-327.66
	1101	220.4	3.79992E-001	-2.06946E-010	0.00000E+000	3.80000E-001	1.03102E-003	4	..........a	-327.66
	1102	220.6	3.70003E-001	-2.11716E-010	0.00000E+000	3.70000E-001	1.05242E-003	4	..........a	-327.66
	1103	220.8	3.59956E-001	-2.18283E-010	0.00000E+000	3.60000E-001	1.05142E-003	4	..........a	-327.66
	1104	221	3.49962E-001	-2.23891E-010	0.00000E+000	3.50000E-001	1.04482E-003	4	..........a	-327.66
	1105	221.2	3.40046E-001	-2.28524E-010	0.00000E+000	3.40000E-001	1.02392E-003	4	..........a	-327.66
	1106	221.4	3.29990E-001	-2.33499E-010	0.00000E+000	3.30000E-001	1.05142E-003	4	..........a	-327.66
	1107	221.6	3.20010E-001	-2.39137E-010	0.00000E+000	3.20000E-001	1.03412E-003	4	..........a	-327.66
	1108	221.8	3.09973E-001	-2.43772E-010	0.00000E+000	3.10000E-001	1.05492E-003	4	..........a	-327.66
	1109	222	3.00013E-001	-2.48873E-010	0.00000E+000	3.00000E-001	1.03902E-003	4	..........a	-327.66
	1110	222.2	2.90015E-001	-2.54723E-010	0.00000E+000	2.90000E-001	1.02572E-003	4	..........a	-327.66
	1111	222.4	2.79903E-001	-2.58907E-010	0.00000E+000	2.80000E-001	1.04892E-003	4	..........a	-327.66
	1112	222.6	2.69985E-001	-2.62245E-010	0.00000E+000	2.70000E-001	1.03062E-003	4	..........a	-327.66
	1113	222.8	2.60051E-001	-2.66046E-010	0.00000E+000	2.60000E-001	1.03252E-003	4	..........a	-327.66
	1114	223	2.49988E-001	-2.70991E-010	0.00000E+000	2.50000E-001	1.04302E-003	4	..........a	-327.66
	1115	223.2	2.39977E-001	-2.77068E-010	0.00000E+000	2.40000E-001	1.02092E-003	4	..........a	-327.66
	1116	223.4	2.29987E-001	-2.81492E-010	0.00000E+000	2.30000E-001	1.03592E-003	4	..........a	-327.66
	1117	223.6	2.20009E-001	-2.85941E-010	0.00000E+000	2.20000E-001	1.03792E-003	4	..........a	-327.66
	1118	223.8	2.10009E-001	-2.89535E-010	0.00000E+000	2.10000E-001	1.01462E-003	4	..........a	-327.66