File: data/raw/batch_data/20240321_ZZ_GM0016_HL03_E13_CV50k.DTA
EXPLAIN
TAG	CV
TITLE	LABEL	Cyclic Voltammetry	Test &Identifier
DATE	LABEL	3/21/2024	Date
TIME	LABEL	19:28:02	Time
NOTES	NOTES	1	&Notes...

PSTAT	PSTAT	REF600P-43058	Potentiostat
VINIT	POTEN	0.00000E+000	T	Initial &E (V)
VLIMIT1	POTEN	-6.00000E-001	F	Scan Limit &1 (V)
VLIMIT2	POTEN	8.00000E-001	F	Scan Limit &2 (V)
VFINAL	POTEN	0.00000E+000	T	Final &E (V)
SCANRATE	QUANT	4.99999E+004	&Scan Rate (mV/s)
STEPSIZE	QUANT	1.00000E+001	St&ep Size (mV)
CYCLES	IQUANT	10	C&ycles (#)
IMODE	SELECTOR	1	I/E Range &Mode
IRANGE	QUANT	1.00000E-005	&Max Current (mA)
AREA	QUANT	1.00000E+000	Electrode &Area (cm^2)
ELECTRODETYPE	SELECTOR	0	Electrode Type
STRIPPING	TOGGLE	F	Used for Stripping
POLARITY	TOGGLE	F	Signal Polarity
CONDIT	TWOPARAM	F	1.50000E+001	0.00000E+000	Conditionin&g	Time(s)	E(V)
DELAY	TWOPARAM	T	1.00000E+001	0.00000E+000	Init. De&lay	Time(s)	Stab.(mV/s)
EQDELAY	QUANT	1.00000E+001	Equil. &Time (s)
IRCOMP	SELECTOR	0	IRCom&p
PFCOR	QUANT	5.00000E+001	PF Corr. (ohm)
SAMPLINGMODE	SELECTOR	1	Sampling &Mode
OCVCURVE	TABLE	39
	Pt	T	Vf	Vm	Ach	Over	Temp
	#	s	V vs. Ref.	V	V	bits	deg C
	0	0.258333	3.37575E-001	3.37575E-001	2.53489E-004	..........a	-327.66
	1	0.516667	3.37579E-001	3.37811E-001	2.43356E-004	..........a	-327.66
	2	0.775	3.37607E-001	3.38008E-001	2.58756E-004	..........a	-327.66
	3	1.03333	3.37684E-001	3.38311E-001	2.38622E-004	..........a	-327.66
	4	1.29167	3.37827E-001	3.38487E-001	2.54022E-004	..........a	-327.66
	5	1.55	3.38021E-001	3.38638E-001	2.45356E-004	..........a	-327.66
	6	1.80833	3.38236E-001	3.38849E-001	2.34889E-004	..........a	-327.66
	7	2.06667	3.38445E-001	3.39059E-001	2.39422E-004	..........a	-327.66
	8	2.325	3.38645E-001	3.39287E-001	2.48689E-004	..........a	-327.66
	9	2.58333	3.38845E-001	3.39479E-001	2.33489E-004	..........a	-327.66
	10	2.84167	3.39050E-001	3.39718E-001	2.24556E-004	..........a	-327.66
	11	3.1	3.39262E-001	3.39981E-001	2.43089E-004	..........a	-327.66
	12	3.35833	3.39481E-001	3.40119E-001	2.52422E-004	..........a	-327.66
	13	3.61667	3.39701E-001	3.40296E-001	2.49489E-004	..........a	-327.66
	14	3.875	3.39912E-001	3.40503E-001	2.46489E-004	..........a	-327.66
	15	4.13333	3.40109E-001	3.40694E-001	2.47022E-004	..........a	-327.66
	16	4.39167	3.40299E-001	3.40927E-001	2.47156E-004	..........a	-327.66
	17	4.65	3.40492E-001	3.41114E-001	2.57689E-004	..........a	-327.66
	18	4.90833	3.40693E-001	3.41347E-001	2.50022E-004	..........a	-327.66
	19	5.16667	3.40900E-001	3.41590E-001	2.49822E-004	..........a	-327.66
	20	5.425	3.41114E-001	3.41756E-001	2.58956E-004	..........a	-327.66
	21	5.68333	3.41329E-001	3.41899E-001	2.53222E-004	..........a	-327.66
	22	5.94167	3.41535E-001	3.42111E-001	2.47689E-004	..........a	-327.66
	23	6.2	3.41728E-001	3.42304E-001	2.53222E-004	..........a	-327.66
	24	6.45833	3.41913E-001	3.42525E-001	2.40622E-004	..........a	-327.66
	25	6.71667	3.42101E-001	3.42686E-001	2.45089E-004	..........a	-327.66
	26	6.975	3.42295E-001	3.42921E-001	2.46489E-004	..........a	-327.66
	27	7.23333	3.42493E-001	3.43150E-001	2.51756E-004	..........a	-327.66
	28	7.49167	3.42697E-001	3.43323E-001	2.55756E-004	..........a	-327.66
	29	7.75	3.42903E-001	3.43471E-001	2.45089E-004	..........a	-327.66
	30	8.00833	3.43104E-001	3.43689E-001	2.40956E-004	..........a	-327.66
	31	8.26667	3.43296E-001	3.43882E-001	2.59089E-004	..........a	-327.66
	32	8.525	3.43484E-001	3.44086E-001	2.39089E-004	..........a	-327.66
	33	8.78333	3.43674E-001	3.44256E-001	2.40489E-004	..........a	-327.66
	34	9.04167	3.43866E-001	3.44457E-001	2.51156E-004	..........a	-327.66
	35	9.3	3.44059E-001	3.44688E-001	2.50089E-004	..........a	-327.66
	36	9.5583	3.44255E-001	3.44877E-001	2.37489E-004	..........a	-327.66
	37	9.8167	3.44454E-001	3.45037E-001	2.60489E-004	..........a	-327.66
	38	10.075	3.44652E-001	3.45212E-001	2.43156E-004	..........a	-327.66
EOC	QUANT	0.3446525	Open Circuit (V)
PSTATMODEL	IQUANT	7	Pstat Model
PSTATSECTION	LABEL	REF600P-43058	Pstat Section
PSTATSERIALNO	LABEL	43058	Pstat Serial Number
CTRLMODE	IQUANT	1	Control Mode
ELECTROMETER	IQUANT	0	RE=0 or CS=1
IESTAB	IQUANT	2	I/E Stability
CASPEED	IQUANT	4	Control Amp Speed
CONVENTION	IQUANT	1	Current Convention
ICHRANGE	IQUANT	2	Ich Range
ICHRANGEMODE	TOGGLE	F	Ich Auto Range
ICHOFFSETENABLE	TOGGLE	F	Ich Offset Enable
ICHOFFSET	QUANT	0	Ich Offset (V)
ICHFILTER	IQUANT	1	Ich Filter
VCHRANGE	IQUANT	2	Vch Range
VCHRANGEMODE	TOGGLE	F	Vch Auto Range
VCHOFFSETENABLE	TOGGLE	F	Vch Offset Enable
VCHOFFSET	QUANT	0	Vch Offset (V)
VCHFILTER	IQUANT	1	Vch Filter
ACHRANGE	IQUANT	2	Ach Range
ACHOFFSETENABLE	TOGGLE	F	Ach Offset Enable
ACHOFFSET	QUANT	0	Ach Offset (V)
ACHFILTER	IQUANT	1	Ach Filter
IERANGELOWERLIMIT	IQUANT	1	I/E Range Lower Limit
IERANGEMODE	TOGGLE	F	I/E AutoRange
IERANGE	IQUANT	4	I/E Range
POSFEEDENABLE	TOGGLE	F	Positive Feedback IR Comp
POSFEEDRESISTANCE	QUANT	0	Positive Feedback Resistance (ohm)
ACHSELECT	IQUANT	4	Ach Select
SENSECABLEID	IQUANT	7	Sense Cable ID
PWRCABLEID	IQUANT	7	Power Cable ID
DCCALDATE	LABEL	12/18/2023	DC Calibration Date
ACCALDATE	LABEL	12/18/2023	AC Calibration Date
THERMOSELECT	IQUANT	1	Thermo Select
FRAMEWORKVERSION	LABEL	7.8.4	Framework Version
INSTRUMENTVERSION	LABEL	4.42	Instrument Version
CURVE1	TABLE
	Pt	T	Vf	Im	Vu	Sig	Ach	IERange	Over	Temp
	#	s	V vs. Ref.	A	V	V	V	#	bits	deg C
	0	0.0002	3.44670E-001	3.17889E-011	0.00000E+000	3.44650E-001	8.00223E-005	4	..........a	-327.66
	1	0.0004	3.34470E-001	-1.72130E-011	0.00000E+000	3.34650E-001	8.00223E-005	4	..........a	-327.66
	2	0.0006	3.24470E-001	-6.32148E-011	0.00000E+000	3.24650E-001	-2.19978E-004	4	..........a	-327.66
	3	0.0008	3.14670E-001	-1.08217E-010	0.00000E+000	3.14650E-001	8.00223E-005	4	..........a	-327.66
	4	0.001	3.04770E-001	-1.62219E-010	0.00000E+000	3.04650E-001	8.00223E-005	4	..........a	-327.66
	5	0.0012	2.94670E-001	-2.07220E-010	0.00000E+000	2.94650E-001	8.00223E-005	4	..........a	-327.66
	6	0.0014	2.84570E-001	-2.62222E-010	0.00000E+000	2.84650E-001	8.00223E-005	4	..........a	-327.66
	7	0.0016	2.74670E-001	-3.18225E-010	0.00000E+000	2.74650E-001	8.00223E-005	4	..........a	-327.66
	8	0.0018	2.64570E-001	-3.63226E-010	0.00000E+000	2.64650E-001	8.00223E-005	4	..........a	-327.66
	9	0.002	2.54770E-001	-4.30229E-010	0.00000E+000	2.54650E-001	8.00223E-005	4	..........a	-327.66
	10	0.0022	2.44470E-001	-4.94231E-010	0.00000E+000	2.44650E-001	8.00223E-005	4	..........a	-327.66
	11	0.0024	2.34670E-001	-5.49233E-010	0.00000E+000	2.34650E-001	8.00223E-005	4	..........a	-327.66
	12	0.0026	2.24570E-001	-6.14236E-010	0.00000E+000	2.24650E-001	8.00223E-005	4	..........a	-327.66
	13	0.0028	2.14670E-001	-6.80238E-010	0.00000E+000	2.14650E-001	8.00223E-005	4	..........a	-327.66
	14	0.003	2.04670E-001	-7.51241E-010	0.00000E+000	2.04650E-001	8.00223E-005	4	..........a	-327.66
	15	0.0032	1.94870E-001	-8.20244E-010	0.00000E+000	1.94650E-001	8.00223E-005	4	..........a	-327.66
	16	0.0034	1.84570E-001	-8.92247E-010	0.00000E+000	1.84650E-001	-4.19978E-004	4	..........a	-327.66
	17	0.0036	1.74670E-001	-9.64249E-010	0.00000E+000	1.74650E-001	8.00223E-005	4	..........a	-327.66
	18	0.0038	1.64670E-001	-1.03825E-009	0.00000E+000	1.64650E-001	8.00223E-005	4	..........a	-327.66
	19	0.004	1.54770E-001	-1.12026E-009	0.00000E+000	1.54650E-001	8.00223E-005	4	..........a	-327.66
	20	0.0042	1.44570E-001	-1.20026E-009	0.00000E+000	1.44650E-001	8.00223E-005	4	..........a	-327.66
	21	0.0044	1.34570E-001	-1.28026E-009	0.00000E+000	1.34650E-001	8.00223E-005	4	..........a	-327.66
	22	0.0046	1.24570E-001	-1.36826E-009	0.00000E+000	1.24650E-001	8.00223E-005	4	..........a	-327.66
	23	0.0048	1.14870E-001	-1.45227E-009	0.00000E+000	1.14650E-001	8.00223E-005	4	..........a	-327.66
	24	0.005	1.04770E-001	-1.54227E-009	0.00000E+000	1.04650E-001	8.00223E-005	4	..........a	-327.66
	25	0.0052	9.46695E-002	-1.63628E-009	0.00000E+000	9.46500E-002	8.00223E-005	4	..........a	-327.66
	26	0.0054	8.47695E-002	-1.73328E-009	0.00000E+000	8.46500E-002	8.00223E-005	4	..........a	-327.66
	27	0.0056	7.47695E-002	-1.83028E-009	0.00000E+000	7.46500E-002	8.00223E-005	4	..........a	-327.66
	28	0.0058	6.47695E-002	-1.93329E-009	0.00000E+000	6.46500E-002	8.00223E-005	4	..........a	-327.66
	29	0.006	5.46695E-002	-2.03629E-009	0.00000E+000	5.46500E-002	8.00223E-005	4	..........a	-327.66
	30	0.0062	4.46695E-002	-2.14629E-009	0.00000E+000	4.46500E-002	8.00223E-005	4	..........a	-327.66
	31	0.0064	3.46695E-002	-2.25830E-009	0.00000E+000	3.46500E-002	8.00223E-005	4	..........a	-327.66
	32	0.0066	2.46695E-002	-2.36630E-009	0.00000E+000	2.46500E-002	-3.19978E-004	4	..........a	-327.66
	33	0.0068	1.44695E-002	-2.48531E-009	0.00000E+000	1.46500E-002	8.00223E-005	4	..........a	-327.66
	34	0.007	4.66952E-003	-2.60231E-009	0.00000E+000	4.65000E-003	8.00223E-005	4	..........a	-327.66
	35	0.0072	-5.33048E-003	-2.72432E-009	0.00000E+000	-5.34999E-003	8.00223E-005	4	..........a	-327.66
	36	0.0074	-1.53305E-002	-2.85032E-009	0.00000E+000	-1.53500E-002	8.00223E-005	4	..........a	-327.66
	37	0.0076	-2.52305E-002	-2.97833E-009	0.00000E+000	-2.53500E-002	8.00223E-005	4	..........a	-327.66
	38	0.0078	-3.55305E-002	-3.10833E-009	0.00000E+000	-3.53500E-002	8.00223E-005	4	..........a	-327.66
	39	0.008	-4.52305E-002	-3.23734E-009	0.00000E+000	-4.53500E-002	8.00223E-005	4	..........a	-327.66
	40	0.0082	-5.55305E-002	-3.37034E-009	0.00000E+000	-5.53500E-002	8.00223E-005	4	..........a	-327.66
	41	0.0084	-6.52305E-002	-3.51635E-009	0.00000E+000	-6.53500E-002	8.00223E-005	4	..........a	-327.66
	42	0.0086	-7.52305E-002	-3.64735E-009	0.00000E+000	-7.53500E-002	8.00223E-005	4	..........a	-327.66
	43	0.0088	-8.53305E-002	-3.79636E-009	0.00000E+000	-8.53500E-002	8.00223E-005	4	..........a	-327.66
	44	0.009	-9.54305E-002	-3.93836E-009	0.00000E+000	-9.53500E-002	8.00223E-005	4	..........a	-327.66
	45	0.0092	-1.05330E-001	-4.08637E-009	0.00000E+000	-1.05350E-001	8.00223E-005	4	..........a	-327.66
	46	0.0094	-1.15130E-001	-4.23638E-009	0.00000E+000	-1.15350E-001	8.00223E-005	4	..........a	-327.66
	47	0.0096	-1.25330E-001	-4.39238E-009	0.00000E+000	-1.25350E-001	8.00223E-005	4	..........a	-327.66
	48	0.0098	-1.35330E-001	-4.54839E-009	0.00000E+000	-1.35350E-001	8.00223E-005	4	..........a	-327.66
	49	0.01	-1.45130E-001	-4.69839E-009	0.00000E+000	-1.45350E-001	8.00223E-005	4	..........a	-327.66
	50	0.0102	-1.55330E-001	-4.85840E-009	0.00000E+000	-1.55350E-001	8.00223E-005	4	..........a	-327.66
	51	0.0104	-1.65230E-001	-5.02041E-009	0.00000E+000	-1.65350E-001	8.00223E-005	4	..........a	-327.66
	52	0.0106	-1.75330E-001	-5.17841E-009	0.00000E+000	-1.75350E-001	8.00223E-005	4	..........a	-327.66
	53	0.0108	-1.85230E-001	-5.33942E-009	0.00000E+000	-1.85350E-001	8.00223E-005	4	..........a	-327.66
	54	0.011	-1.95330E-001	-5.50342E-009	0.00000E+000	-1.95350E-001	8.00223E-005	4	..........a	-327.66
	55	0.0112	-2.05330E-001	-5.67243E-009	0.00000E+000	-2.05350E-001	8.00223E-005	4	..........a	-327.66
	56	0.0114	-2.15330E-001	-5.83644E-009	0.00000E+000	-2.15350E-001	8.00223E-005	4	..........a	-327.66
	57	0.0116	-2.25230E-001	-6.01044E-009	0.00000E+000	-2.25350E-001	8.00223E-005	4	..........a	-327.66
	58	0.0118	-2.35230E-001	-6.18045E-009	0.00000E+000	-2.35350E-001	8.00223E-005	4	..........a	-327.66
	59	0.012	-2.45230E-001	-6.34646E-009	0.00000E+000	-2.45350E-001	8.00223E-005	4	..........a	-327.66
	60	0.0122	-2.55230E-001	-6.52046E-009	0.00000E+000	-2.55350E-001	8.00223E-005	4	..........a	-327.66
	61	0.0124	-2.65330E-001	-6.68747E-009	0.00000E+000	-2.65350E-001	8.00223E-005	4	..........a	-327.66
	62	0.0126	-2.75230E-001	-6.86348E-009	0.00000E+000	-2.75350E-001	8.00223E-005	4	..........a	-327.66
	63	0.0128	-2.85130E-001	-7.03448E-009	0.00000E+000	-2.85350E-001	8.00223E-005	4	..........a	-327.66
	64	0.013	-2.95330E-001	-7.21249E-009	0.00000E+000	-2.95350E-001	8.00223E-005	4	..........a	-327.66
	65	0.0132	-3.05330E-001	-7.38650E-009	0.00000E+000	-3.05350E-001	8.00223E-005	4	..........a	-327.66
	66	0.0134	-3.15330E-001	-7.55950E-009	0.00000E+000	-3.15350E-001	8.00223E-005	4	..........a	-327.66
	67	0.0136	-3.25230E-001	-7.74051E-009	0.00000E+000	-3.25350E-001	8.00223E-005	4	..........a	-327.66
	68	0.0138	-3.35180E-001	-7.91752E-009	0.00000E+000	-3.35350E-001	8.00223E-005	4	..........a	-327.66
	69	0.014	-3.45330E-001	-8.09852E-009	0.00000E+000	-3.45350E-001	8.00223E-005	4	..........a	-327.66
	70	0.0142	-3.55330E-001	-8.27453E-009	0.00000E+000	-3.55350E-001	8.00223E-005	4	..........a	-327.66
	71	0.0144	-3.65230E-001	-8.45454E-009	0.00000E+000	-3.65350E-001	8.00223E-005	4	..........a	-327.66
	72	0.0146	-3.75230E-001	-8.63454E-009	0.00000E+000	-3.75350E-001	8.00223E-005	4	..........a	-327.66
	73	0.0148	-3.85130E-001	-8.81455E-009	0.00000E+000	-3.85350E-001	8.00223E-005	4	..........a	-327.66
	74	0.015	-3.95230E-001	-9.00256E-009	0.00000E+000	-3.95350E-001	8.00223E-005	4	..........a	-327.66
	75	0.0152	-4.05130E-001	-9.17457E-009	0.00000E+000	-4.05350E-001	8.00223E-005	4	..........a	-327.66
	76	0.0154	-4.15130E-001	-9.36057E-009	0.00000E+000	-4.15350E-001	8.00223E-005	4	..........a	-327.66
	77	0.0156	-4.25130E-001	-9.54258E-009	0.00000E+000	-4.25350E-001	8.00223E-005	4	..........a	-327.66
	78	0.0158	-4.35330E-001	-9.72359E-009	0.00000E+000	-4.35350E-001	-3.19978E-004	4	..........a	-327.66
	79	0.016	-4.45130E-001	-9.90659E-009	0.00000E+000	-4.45350E-001	8.00223E-005	4	..........a	-327.66
	80	0.0162	-4.55330E-001	-1.00946E-008	0.00000E+000	-4.55350E-001	8.00223E-005	4	..........a	-327.66
	81	0.0164	-4.65230E-001	-1.02806E-008	0.00000E+000	-4.65350E-001	8.00223E-005	4	..........a	-327.66
	82	0.0166	-4.75230E-001	-1.04666E-008	0.00000E+000	-4.75350E-001	8.00223E-005	4	..........a	-327.66
	83	0.0168	-4.85130E-001	-1.06546E-008	0.00000E+000	-4.85350E-001	8.00223E-005	4	..........a	-327.66
	84	0.017	-4.95130E-001	-1.08436E-008	0.00000E+000	-4.95350E-001	8.00223E-005	4	..........a	-327.66
	85	0.0172	-5.05130E-001	-1.10356E-008	0.00000E+000	-5.05350E-001	8.00223E-005	4	..........a	-327.66
	86	0.0174	-5.15130E-001	-1.12226E-008	0.00000E+000	-5.15350E-001	8.00223E-005	4	..........a	-327.66
	87	0.0176	-5.25230E-001	-1.14187E-008	0.00000E+000	-5.25350E-001	8.00223E-005	4	..........a	-327.66
	88	0.0178	-5.35131E-001	-1.16127E-008	0.00000E+000	-5.35350E-001	8.00223E-005	4	..........a	-327.66
	89	0.018	-5.45130E-001	-1.18127E-008	0.00000E+000	-5.45350E-001	8.00223E-005	4	..........a	-327.66
	90	0.0182	-5.55331E-001	-1.20067E-008	0.00000E+000	-5.55350E-001	8.00223E-005	4	..........a	-327.66
	91	0.0184	-5.65230E-001	-1.22107E-008	0.00000E+000	-5.65350E-001	8.00223E-005	4	..........a	-327.66
	92	0.0186	-5.75130E-001	-1.24147E-008	0.00000E+000	-5.75350E-001	8.00223E-005	4	..........a	-327.66
	93	0.0188	-5.85230E-001	-1.26227E-008	0.00000E+000	-5.85350E-001	8.00223E-005	4	..........a	-327.66
	94	0.019	-5.95230E-001	-1.28277E-008	0.00000E+000	-5.95350E-001	8.00223E-005	4	..........a	-327.66
	95	0.0192	-5.85230E-001	-1.29007E-008	0.00000E+000	-5.85350E-001	8.00223E-005	4	..........a	-327.66
	96	0.0194	-5.75031E-001	-1.29417E-008	0.00000E+000	-5.75350E-001	8.00223E-005	4	..........a	-327.66
	97	0.0196	-5.65331E-001	-1.29667E-008	0.00000E+000	-5.65350E-001	-3.19978E-004	4	..........a	-327.66
	98	0.0198	-5.55130E-001	-1.29727E-008	0.00000E+000	-5.55350E-001	8.00223E-005	4	..........a	-327.66
	99	0.02	-5.45130E-001	-1.29677E-008	0.00000E+000	-5.45350E-001	8.00223E-005	4	..........a	-327.66
	100	0.0202	-5.35330E-001	-1.29537E-008	0.00000E+000	-5.35350E-001	8.00223E-005	4	..........a	-327.66
	101	0.0204	-5.25180E-001	-1.29327E-008	0.00000E+000	-5.25350E-001	8.00223E-005	4	..........a	-327.66
	102	0.0206	-5.15130E-001	-1.29027E-008	0.00000E+000	-5.15350E-001	8.00223E-005	4	..........a	-327.66
	103	0.0208	-5.05130E-001	-1.28687E-008	0.00000E+000	-5.05350E-001	8.00223E-005	4	..........a	-327.66
	104	0.021	-4.94930E-001	-1.28347E-008	0.00000E+000	-4.95350E-001	8.00223E-005	4	..........a	-327.66
	105	0.0212	-4.85230E-001	-1.27847E-008	0.00000E+000	-4.85350E-001	8.00223E-005	4	..........a	-327.66
	106	0.0214	-4.75330E-001	-1.27387E-008	0.00000E+000	-4.75350E-001	8.00223E-005	4	..........a	-327.66
	107	0.0216	-4.65130E-001	-1.26867E-008	0.00000E+000	-4.65350E-001	8.00223E-005	4	..........a	-327.66
	108	0.0218	-4.55130E-001	-1.26307E-008	0.00000E+000	-4.55350E-001	8.00223E-005	4	..........a	-327.66
	109	0.022	-4.45130E-001	-1.25787E-008	0.00000E+000	-4.45350E-001	8.00223E-005	4	..........a	-327.66
	110	0.0222	-4.35280E-001	-1.25087E-008	0.00000E+000	-4.35350E-001	8.00223E-005	4	..........a	-327.66
	111	0.0224	-4.25130E-001	-1.24507E-008	0.00000E+000	-4.25350E-001	8.00223E-005	4	..........a	-327.66
	112	0.0226	-4.15030E-001	-1.23797E-008	0.00000E+000	-4.15350E-001	8.00223E-005	4	..........a	-327.66
	113	0.0228	-4.05280E-001	-1.23197E-008	0.00000E+000	-4.05350E-001	8.00223E-005	4	..........a	-327.66
	114	0.023	-3.95430E-001	-1.22417E-008	0.00000E+000	-3.95350E-001	8.00223E-005	4	..........a	-327.66
	115	0.0232	-3.85130E-001	-1.21607E-008	0.00000E+000	-3.85350E-001	8.00223E-005	4	..........a	-327.66
	116	0.0234	-3.75230E-001	-1.20997E-008	0.00000E+000	-3.75350E-001	8.00223E-005	4	..........a	-327.66
	117	0.0236	-3.65230E-001	-1.20227E-008	0.00000E+000	-3.65350E-001	8.00223E-005	4	..........a	-327.66
	118	0.0238	-3.55230E-001	-1.19487E-008	0.00000E+000	-3.55350E-001	8.00223E-005	4	..........a	-327.66
	119	0.024	-3.45130E-001	-1.18677E-008	0.00000E+000	-3.45350E-001	8.00223E-005	4	..........a	-327.66
	120	0.0242	-3.35330E-001	-1.17887E-008	0.00000E+000	-3.35350E-001	8.00223E-005	4	..........a	-327.66
	121	0.0244	-3.25230E-001	-1.17087E-008	0.00000E+000	-3.25350E-001	8.00223E-005	4	..........a	-327.66
	122	0.0246	-3.15230E-001	-1.16257E-008	0.00000E+000	-3.15350E-001	8.00223E-005	4	..........a	-327.66
	123	0.0248	-3.05330E-001	-1.15547E-008	0.00000E+000	-3.05350E-001	8.00223E-005	4	..........a	-327.66
	124	0.025	-2.95130E-001	-1.14667E-008	0.00000E+000	-2.95350E-001	8.00223E-005	4	..........a	-327.66
	125	0.0252	-2.85230E-001	-1.13776E-008	0.00000E+000	-2.85350E-001	8.00223E-005	4	..........a	-327.66
	126	0.0254	-2.75330E-001	-1.12936E-008	0.00000E+000	-2.75350E-001	8.00223E-005	4	..........a	-327.66
	127	0.0256	-2.65230E-001	-1.12066E-008	0.00000E+000	-2.65350E-001	-4.19978E-004	4	..........a	-327.66
	128	0.0258	-2.55330E-001	-1.11046E-008	0.00000E+000	-2.55350E-001	-2.19978E-004	4	..........a	-327.66
	129	0.026	-2.45230E-001	-1.10316E-008	0.00000E+000	-2.45350E-001	8.00223E-005	4	..........a	-327.66
	130	0.0262	-2.35430E-001	-1.09416E-008	0.00000E+000	-2.35350E-001	8.00223E-005	4	..........a	-327.66
	131	0.0264	-2.25230E-001	-1.08526E-008	0.00000E+000	-2.25350E-001	8.00223E-005	4	..........a	-327.66
	132	0.0266	-2.15130E-001	-1.07566E-008	0.00000E+000	-2.15350E-001	-3.19978E-004	4	..........a	-327.66
	133	0.0268	-2.05230E-001	-1.06616E-008	0.00000E+000	-2.05350E-001	8.00223E-005	4	..........a	-327.66
	134	0.027	-1.95430E-001	-1.05766E-008	0.00000E+000	-1.95350E-001	8.00223E-005	4	..........a	-327.66
	135	0.0272	-1.85230E-001	-1.04816E-008	0.00000E+000	-1.85350E-001	8.00223E-005	4	..........a	-327.66
	136	0.0274	-1.75230E-001	-1.03846E-008	0.00000E+000	-1.75350E-001	8.00223E-005	4	..........a	-327.66
	137	0.0276	-1.65230E-001	-1.02966E-008	0.00000E+000	-1.65350E-001	8.00223E-005	4	..........a	-327.66
	138	0.0278	-1.55430E-001	-1.01966E-008	0.00000E+000	-1.55350E-001	8.00223E-005	4	..........a	-327.66
	139	0.028	-1.45230E-001	-1.00916E-008	0.00000E+000	-1.45350E-001	8.00223E-005	4	..........a	-327.66
	140	0.0282	-1.35330E-001	-1.00066E-008	0.00000E+000	-1.35350E-001	8.00223E-005	4	..........a	-327.66
	141	0.0284	-1.25230E-001	-9.90259E-009	0.00000E+000	-1.25350E-001	8.00223E-005	4	..........a	-327.66
	142	0.0286	-1.15180E-001	-9.80659E-009	0.00000E+000	-1.15350E-001	8.00223E-005	4	..........a	-327.66
	143	0.0288	-1.05230E-001	-9.69658E-009	0.00000E+000	-1.05350E-001	8.00223E-005	4	..........a	-327.66
	144	0.029	-9.52305E-002	-9.60658E-009	0.00000E+000	-9.53500E-002	8.00223E-005	4	..........a	-327.66
	145	0.0292	-8.52305E-002	-9.50658E-009	0.00000E+000	-8.53500E-002	8.00223E-005	4	..........a	-327.66
	146	0.0294	-7.53305E-002	-9.40257E-009	0.00000E+000	-7.53500E-002	8.00223E-005	4	..........a	-327.66
	147	0.0296	-6.51305E-002	-9.30257E-009	0.00000E+000	-6.53500E-002	8.00223E-005	4	..........a	-327.66
	148	0.0298	-5.55305E-002	-9.19857E-009	0.00000E+000	-5.53500E-002	8.00223E-005	4	..........a	-327.66
	149	0.03	-4.52305E-002	-9.09156E-009	0.00000E+000	-4.53500E-002	8.00223E-005	4	..........a	-327.66
	150	0.0302	-3.51305E-002	-8.99656E-009	0.00000E+000	-3.53500E-002	8.00223E-005	4	..........a	-327.66
	151	0.0304	-2.54305E-002	-8.88755E-009	0.00000E+000	-2.53500E-002	8.00223E-005	4	..........a	-327.66
	152	0.0306	-1.53305E-002	-8.78255E-009	0.00000E+000	-1.53500E-002	8.00223E-005	4	..........a	-327.66
	153	0.0308	-5.23048E-003	-8.67055E-009	0.00000E+000	-5.34999E-003	8.00223E-005	4	..........a	-327.66
	154	0.031	4.86952E-003	-8.56654E-009	0.00000E+000	4.65000E-003	8.00223E-005	4	..........a	-327.66
	155	0.0312	1.46695E-002	-8.45854E-009	0.00000E+000	1.46500E-002	-1.19978E-004	4	..........a	-327.66
	156	0.0314	2.50695E-002	-8.34953E-009	0.00000E+000	2.46500E-002	8.00223E-005	4	..........a	-327.66
	157	0.0316	3.47695E-002	-8.24253E-009	0.00000E+000	3.46500E-002	8.00223E-005	4	..........a	-327.66
	158	0.0318	4.45695E-002	-8.12752E-009	0.00000E+000	4.46500E-002	8.00223E-005	4	..........a	-327.66
	159	0.032	5.46195E-002	-8.01852E-009	0.00000E+000	5.46500E-002	8.00223E-005	4	..........a	-327.66
	160	0.0322	6.48695E-002	-7.90452E-009	0.00000E+000	6.46500E-002	8.00223E-005	4	..........a	-327.66
	161	0.0324	7.47195E-002	-7.79251E-009	0.00000E+000	7.46500E-002	8.00223E-005	4	..........a	-327.66
	162	0.0326	8.45695E-002	-7.67751E-009	0.00000E+000	8.46500E-002	8.00223E-005	4	..........a	-327.66
	163	0.0328	9.47195E-002	-7.55250E-009	0.00000E+000	9.46500E-002	8.00223E-005	4	..........a	-327.66
	164	0.033	1.04670E-001	-7.45850E-009	0.00000E+000	1.04650E-001	8.00223E-005	4	..........a	-327.66
	165	0.0332	1.14770E-001	-7.33249E-009	0.00000E+000	1.14650E-001	8.00223E-005	4	..........a	-327.66
	166	0.0334	1.24670E-001	-7.21449E-009	0.00000E+000	1.24650E-001	8.00223E-005	4	..........a	-327.66
	167	0.0336	1.34770E-001	-7.09848E-009	0.00000E+000	1.34650E-001	8.00223E-005	4	..........a	-327.66
	168	0.0338	1.44770E-001	-6.97848E-009	0.00000E+000	1.44650E-001	8.00223E-005	4	..........a	-327.66
	169	0.034	1.54770E-001	-6.85848E-009	0.00000E+000	1.54650E-001	8.00223E-005	4	..........a	-327.66
	170	0.0342	1.64770E-001	-6.73647E-009	0.00000E+000	1.64650E-001	8.00223E-005	4	..........a	-327.66
	171	0.0344	1.74770E-001	-6.61647E-009	0.00000E+000	1.74650E-001	8.00223E-005	4	..........a	-327.66
	172	0.0346	1.84770E-001	-6.49446E-009	0.00000E+000	1.84650E-001	8.00223E-005	4	..........a	-327.66
	173	0.0348	1.94670E-001	-6.36646E-009	0.00000E+000	1.94650E-001	8.00223E-005	4	..........a	-327.66
	174	0.035	2.04770E-001	-6.23945E-009	0.00000E+000	2.04650E-001	8.00223E-005	4	..........a	-327.66
	175	0.0352	2.14870E-001	-6.11145E-009	0.00000E+000	2.14650E-001	8.00223E-005	4	..........a	-327.66
	176	0.0354	2.24670E-001	-5.98644E-009	0.00000E+000	2.24650E-001	-3.19978E-004	4	..........a	-327.66
	177	0.0356	2.34620E-001	-5.86044E-009	0.00000E+000	2.34650E-001	8.00223E-005	4	..........a	-327.66
	178	0.0358	2.44670E-001	-5.72743E-009	0.00000E+000	2.44650E-001	-3.19978E-004	4	..........a	-327.66
	179	0.036	2.54670E-001	-5.59643E-009	0.00000E+000	2.54650E-001	8.00223E-005	4	..........a	-327.66
	180	0.0362	2.64770E-001	-5.46042E-009	0.00000E+000	2.64650E-001	8.00223E-005	4	..........a	-327.66
	181	0.0364	2.74570E-001	-5.32742E-009	0.00000E+000	2.74650E-001	-3.19978E-004	4	..........a	-327.66
	182	0.0366	2.84770E-001	-5.19141E-009	0.00000E+000	2.84650E-001	8.00223E-005	4	..........a	-327.66
	183	0.0368	2.94770E-001	-5.06041E-009	0.00000E+000	2.94650E-001	8.00223E-005	4	..........a	-327.66
	184	0.037	3.04670E-001	-4.91640E-009	0.00000E+000	3.04650E-001	8.00223E-005	4	..........a	-327.66
	185	0.0372	3.14770E-001	-4.77440E-009	0.00000E+000	3.14650E-001	8.00223E-005	4	..........a	-327.66
	186	0.0374	3.24570E-001	-4.63439E-009	0.00000E+000	3.24650E-001	8.00223E-005	4	..........a	-327.66
	187	0.0376	3.34570E-001	-4.49538E-009	0.00000E+000	3.34650E-001	8.00223E-005	4	..........a	-327.66
	188	0.0378	3.44870E-001	-4.35138E-009	0.00000E+000	3.44650E-001	8.00223E-005	4	..........a	-327.66
	189	0.038	3.54770E-001	-4.21037E-009	0.00000E+000	3.54650E-001	8.00223E-005	4	..........a	-327.66
	190	0.0382	3.64470E-001	-4.05937E-009	0.00000E+000	3.64650E-001	8.00223E-005	4	..........a	-327.66
	191	0.0384	3.74570E-001	-3.91136E-009	0.00000E+000	3.74650E-001	8.00223E-005	4	..........a	-327.66
	192	0.0386	3.84670E-001	-3.76236E-009	0.00000E+000	3.84650E-001	8.00223E-005	4	..........a	-327.66
	193	0.0388	3.94670E-001	-3.61635E-009	0.00000E+000	3.94650E-001	8.00223E-005	4	..........a	-327.66
	194	0.039	4.04570E-001	-3.46035E-009	0.00000E+000	4.04650E-001	8.00223E-005	4	..........a	-327.66
	195	0.0392	4.14620E-001	-3.31434E-009	0.00000E+000	4.14650E-001	8.00223E-005	4	..........a	-327.66
	196	0.0394	4.24770E-001	-3.15733E-009	0.00000E+000	4.24650E-001	8.00223E-005	4	..........a	-327.66
	197	0.0396	4.34620E-001	-3.00033E-009	0.00000E+000	4.34650E-001	-1.19978E-004	4	..........a	-327.66
	198	0.0398	4.44670E-001	-2.85232E-009	0.00000E+000	4.44650E-001	8.00223E-005	4	..........a	-327.66
	199	0.04	4.54570E-001	-2.68732E-009	0.00000E+000	4.54650E-001	8.00223E-005	4	..........a	-327.66
	200	0.0402	4.64570E-001	-2.52831E-009	0.00000E+000	4.64650E-001	8.00223E-005	4	..........a	-327.66
	201	0.0404	4.74770E-001	-2.37230E-009	0.00000E+000	4.74650E-001	8.00223E-005	4	..........a	-327.66
	202	0.0406	4.84670E-001	-2.20430E-009	0.00000E+000	4.84650E-001	8.00223E-005	4	..........a	-327.66
	203	0.0408	4.94570E-001	-2.03929E-009	0.00000E+000	4.94650E-001	8.00223E-005	4	..........a	-327.66
	204	0.041	5.04470E-001	-1.87428E-009	0.00000E+000	5.04650E-001	8.00223E-005	4	..........a	-327.66
	205	0.0412	5.14669E-001	-1.70528E-009	0.00000E+000	5.14650E-001	8.00223E-005	4	..........a	-327.66
	206	0.0414	5.24669E-001	-1.53627E-009	0.00000E+000	5.24650E-001	8.00223E-005	4	..........a	-327.66
	207	0.0416	5.34669E-001	-1.36426E-009	0.00000E+000	5.34650E-001	8.00223E-005	4	..........a	-327.66
	208	0.0418	5.44670E-001	-1.18926E-009	0.00000E+000	5.44650E-001	-3.19978E-004	4	..........a	-327.66
	209	0.042	5.54669E-001	-1.01025E-009	0.00000E+000	5.54650E-001	8.00223E-005	4	..........a	-327.66
	210	0.0422	5.64669E-001	-8.30244E-010	0.00000E+000	5.64650E-001	8.00223E-005	4	..........a	-327.66
	211	0.0424	5.74470E-001	-6.49237E-010	0.00000E+000	5.74650E-001	8.00223E-005	4	..........a	-327.66
	212	0.0426	5.84469E-001	-4.64230E-010	0.00000E+000	5.84650E-001	8.00223E-005	4	..........a	-327.66
	213	0.0428	5.94769E-001	-2.74223E-010	0.00000E+000	5.94650E-001	8.00223E-005	4	..........a	-327.66
	214	0.043	6.04569E-001	-8.32156E-011	0.00000E+000	6.04650E-001	8.00223E-005	4	..........a	-327.66
	215	0.0432	6.14569E-001	1.16792E-010	0.00000E+000	6.14650E-001	8.00223E-005	4	..........a	-327.66
	216	0.0434	6.24569E-001	3.06799E-010	0.00000E+000	6.24650E-001	8.00223E-005	4	..........a	-327.66
	217	0.0436	6.34569E-001	5.03807E-010	0.00000E+000	6.34650E-001	8.00223E-005	4	..........a	-327.66
	218	0.0438	6.44569E-001	7.08815E-010	0.00000E+000	6.44650E-001	8.00223E-005	4	..........a	-327.66
	219	0.044	6.54669E-001	9.14823E-010	0.00000E+000	6.54650E-001	8.00223E-005	4	..........a	-327.66
	220	0.0442	6.64569E-001	1.11583E-009	0.00000E+000	6.64650E-001	8.00223E-005	4	..........a	-327.66
	221	0.0444	6.74469E-001	1.33084E-009	0.00000E+000	6.74650E-001	8.00223E-005	4	..........a	-327.66
	222	0.0446	6.84469E-001	1.54885E-009	0.00000E+000	6.84650E-001	8.00223E-005	4	..........a	-327.66
	223	0.0448	6.94469E-001	1.76786E-009	0.00000E+000	6.94650E-001	8.00223E-005	4	..........a	-327.66
	224	0.045	7.04470E-001	1.99086E-009	0.00000E+000	7.04650E-001	8.00223E-005	4	..........a	-327.66
	225	0.0452	7.14669E-001	2.21787E-009	0.00000E+000	7.14650E-001	8.00223E-005	4	..........a	-327.66
	226	0.0454	7.24469E-001	2.45388E-009	0.00000E+000	7.24650E-001	8.00223E-005	4	..........a	-327.66
	227	0.0456	7.34670E-001	2.68989E-009	0.00000E+000	7.34650E-001	8.00223E-005	4	..........a	-327.66
	228	0.0458	7.44469E-001	2.92990E-009	0.00000E+000	7.44650E-001	8.00223E-005	4	..........a	-327.66
	229	0.046	7.54569E-001	3.17591E-009	0.00000E+000	7.54650E-001	8.00223E-005	4	..........a	-327.66
	230	0.0462	7.64669E-001	3.42692E-009	0.00000E+000	7.64650E-001	8.00223E-005	4	..........a	-327.66
	231	0.0464	7.74569E-001	3.67593E-009	0.00000E+000	7.74650E-001	8.00223E-005	4	..........a	-327.66
	232	0.0466	7.84469E-001	3.93994E-009	0.00000E+000	7.84650E-001	8.00223E-005	4	..........a	-327.66
	233	0.0468	7.94669E-001	4.20995E-009	0.00000E+000	7.94650E-001	8.00223E-005	4	..........a	-327.66
CURVE2	TABLE
	Pt	T	Vf	Im	Vu	Sig	Ach	IERange	Over	Temp
	#	s	V vs. Ref.	A	V	V	V	#	bits	deg C
	234	0.047	7.89869E-001	4.37796E-009	0.00000E+000	7.90000E-001	-3.19978E-004	4	..........a	-327.66
	235	0.0472	7.79769E-001	4.48396E-009	0.00000E+000	7.80000E-001	-3.19978E-004	4	..........a	-327.66
	236	0.0474	7.69870E-001	4.55796E-009	0.00000E+000	7.70000E-001	8.00223E-005	4	..........a	-327.66
	237	0.0476	7.59969E-001	4.61296E-009	0.00000E+000	7.60000E-001	8.00223E-005	4	..........a	-327.66
	238	0.0478	7.49969E-001	4.64397E-009	0.00000E+000	7.50000E-001	8.00223E-005	4	..........a	-327.66
	239	0.048	7.40070E-001	4.66197E-009	0.00000E+000	7.40000E-001	8.00223E-005	4	..........a	-327.66
	240	0.0482	7.29970E-001	4.66497E-009	0.00000E+000	7.30000E-001	8.00223E-005	4	..........a	-327.66
	241	0.0484	7.20069E-001	4.66197E-009	0.00000E+000	7.20000E-001	8.00223E-005	4	..........a	-327.66
	242	0.0486	7.09870E-001	4.63997E-009	0.00000E+000	7.10000E-001	8.00223E-005	4	..........a	-327.66
	243	0.0488	6.99769E-001	4.63097E-009	0.00000E+000	7.00000E-001	8.00223E-005	4	..........a	-327.66
	244	0.049	6.89770E-001	4.59896E-009	0.00000E+000	6.90000E-001	8.00223E-005	4	..........a	-327.66
	245	0.0492	6.80269E-001	4.56396E-009	0.00000E+000	6.80000E-001	8.00223E-005	4	..........a	-327.66
	246	0.0494	6.69969E-001	4.52396E-009	0.00000E+000	6.70000E-001	8.00223E-005	4	..........a	-327.66
	247	0.0496	6.59970E-001	4.47996E-009	0.00000E+000	6.60000E-001	8.00223E-005	4	..........a	-327.66
	248	0.0498	6.50069E-001	4.43196E-009	0.00000E+000	6.50000E-001	8.00223E-005	4	..........a	-327.66
	249	0.05	6.39870E-001	4.38196E-009	0.00000E+000	6.40000E-001	8.00223E-005	4	..........a	-327.66
	250	0.0502	6.29820E-001	4.32395E-009	0.00000E+000	6.30000E-001	8.00223E-005	4	..........a	-327.66
	251	0.0504	6.19869E-001	4.27495E-009	0.00000E+000	6.20000E-001	8.00223E-005	4	..........a	-327.66
	252	0.0506	6.09869E-001	4.21595E-009	0.00000E+000	6.10000E-001	8.00223E-005	4	..........a	-327.66
	253	0.0508	5.99970E-001	4.15595E-009	0.00000E+000	6.00000E-001	8.00223E-005	4	..........a	-327.66
	254	0.051	5.89969E-001	4.08794E-009	0.00000E+000	5.90000E-001	8.00223E-005	4	..........a	-327.66
	255	0.0512	5.79669E-001	4.01994E-009	0.00000E+000	5.80000E-001	8.00223E-005	4	..........a	-327.66
	256	0.0514	5.69869E-001	3.95394E-009	0.00000E+000	5.70000E-001	8.00223E-005	4	..........a	-327.66
	257	0.0516	5.59969E-001	3.88794E-009	0.00000E+000	5.60000E-001	-3.19978E-004	4	..........a	-327.66
	258	0.0518	5.49869E-001	3.80593E-009	0.00000E+000	5.50000E-001	8.00223E-005	4	..........a	-327.66
	259	0.052	5.40069E-001	3.73793E-009	0.00000E+000	5.40000E-001	8.00223E-005	4	..........a	-327.66
	260	0.0522	5.29970E-001	3.66393E-009	0.00000E+000	5.30000E-001	8.00223E-005	4	..........a	-327.66
	261	0.0524	5.19969E-001	3.58993E-009	0.00000E+000	5.20000E-001	8.00223E-005	4	..........a	-327.66
	262	0.0526	5.09870E-001	3.50792E-009	0.00000E+000	5.10000E-001	8.00223E-005	4	..........a	-327.66
	263	0.0528	5.00269E-001	3.43092E-009	0.00000E+000	5.00000E-001	8.00223E-005	4	..........a	-327.66
	264	0.053	4.89970E-001	3.35092E-009	0.00000E+000	4.90000E-001	8.00223E-005	4	..........a	-327.66
	265	0.0532	4.80070E-001	3.26791E-009	0.00000E+000	4.80000E-001	8.00223E-005	4	..........a	-327.66
	266	0.0534	4.69870E-001	3.17991E-009	0.00000E+000	4.70000E-001	8.00223E-005	4	..........a	-327.66
	267	0.0536	4.59870E-001	3.09291E-009	0.00000E+000	4.60000E-001	8.00223E-005	4	..........a	-327.66
	268	0.0538	4.49970E-001	3.00390E-009	0.00000E+000	4.50000E-001	8.00223E-005	4	..........a	-327.66
	269	0.054	4.39970E-001	2.91790E-009	0.00000E+000	4.40000E-001	8.00223E-005	4	..........a	-327.66
	270	0.0542	4.29770E-001	2.82390E-009	0.00000E+000	4.30000E-001	-3.19978E-004	4	..........a	-327.66
	271	0.0544	4.20070E-001	2.72989E-009	0.00000E+000	4.20000E-001	8.00223E-005	4	..........a	-327.66
	272	0.0546	4.09870E-001	2.63789E-009	0.00000E+000	4.10000E-001	8.00223E-005	4	..........a	-327.66
	273	0.0548	4.00170E-001	2.53689E-009	0.00000E+000	4.00000E-001	8.00223E-005	4	..........a	-327.66
	274	0.055	3.89970E-001	2.44188E-009	0.00000E+000	3.90000E-001	8.00223E-005	4	..........a	-327.66
	275	0.0552	3.80220E-001	2.34188E-009	0.00000E+000	3.80000E-001	8.00223E-005	4	..........a	-327.66
	276	0.0554	3.69970E-001	2.24087E-009	0.00000E+000	3.70000E-001	8.00223E-005	4	..........a	-327.66
	277	0.0556	3.60070E-001	2.13287E-009	0.00000E+000	3.60000E-001	8.00223E-005	4	..........a	-327.66
	278	0.0558	3.49970E-001	2.02187E-009	0.00000E+000	3.50000E-001	8.00223E-005	4	..........a	-327.66
	279	0.056	3.39970E-001	1.91786E-009	0.00000E+000	3.40000E-001	8.00223E-005	4	..........a	-327.66
	280	0.0562	3.29970E-001	1.80886E-009	0.00000E+000	3.30000E-001	8.00223E-005	4	..........a	-327.66
	281	0.0564	3.19970E-001	1.69985E-009	0.00000E+000	3.20000E-001	8.00223E-005	4	..........a	-327.66
	282	0.0566	3.09970E-001	1.58185E-009	0.00000E+000	3.10000E-001	8.00223E-005	4	..........a	-327.66
	283	0.0568	3.00120E-001	1.47084E-009	0.00000E+000	3.00000E-001	8.00223E-005	4	..........a	-327.66
	284	0.057	2.89970E-001	1.34984E-009	0.00000E+000	2.90000E-001	8.00223E-005	4	..........a	-327.66
	285	0.0572	2.79970E-001	1.23484E-009	0.00000E+000	2.80000E-001	8.00223E-005	4	..........a	-327.66
	286	0.0574	2.70070E-001	1.10883E-009	0.00000E+000	2.70000E-001	8.00223E-005	4	..........a	-327.66
	287	0.0576	2.59970E-001	9.83825E-010	0.00000E+000	2.60000E-001	8.00223E-005	4	..........a	-327.66
	288	0.0578	2.49970E-001	8.58821E-010	0.00000E+000	2.50000E-001	8.00223E-005	4	..........a	-327.66
	289	0.058	2.39870E-001	7.26816E-010	0.00000E+000	2.40000E-001	-1.19978E-004	4	..........a	-327.66
	290	0.0582	2.29970E-001	5.94810E-010	0.00000E+000	2.30000E-001	8.00223E-005	4	..........a	-327.66
	291	0.0584	2.19970E-001	4.59805E-010	0.00000E+000	2.20000E-001	8.00223E-005	4	..........a	-327.66
	292	0.0586	2.09970E-001	3.25800E-010	0.00000E+000	2.10000E-001	8.00223E-005	4	..........a	-327.66
	293	0.0588	1.99870E-001	1.85795E-010	0.00000E+000	2.00000E-001	-1.19978E-004	4	..........a	-327.66
	294	0.059	1.90070E-001	4.77895E-011	0.00000E+000	1.90000E-001	8.00223E-005	4	..........a	-327.66
	295	0.0592	1.79970E-001	-9.52160E-011	0.00000E+000	1.80000E-001	8.00223E-005	4	..........a	-327.66
	296	0.0594	1.69970E-001	-2.39222E-010	0.00000E+000	1.70000E-001	8.00223E-005	4	..........a	-327.66
	297	0.0596	1.60070E-001	-3.86227E-010	0.00000E+000	1.60000E-001	8.00223E-005	4	..........a	-327.66
	298	0.0598	1.50070E-001	-5.31233E-010	0.00000E+000	1.50000E-001	8.00223E-005	4	..........a	-327.66
	299	0.06	1.40170E-001	-6.77238E-010	0.00000E+000	1.40000E-001	-3.19978E-004	4	..........a	-327.66
	300	0.0602	1.30070E-001	-8.29244E-010	0.00000E+000	1.30000E-001	8.00223E-005	4	..........a	-327.66
	301	0.0604	1.20070E-001	-9.86250E-010	0.00000E+000	1.20000E-001	8.00223E-005	4	..........a	-327.66
	302	0.0606	1.10070E-001	-1.13226E-009	0.00000E+000	1.10000E-001	-2.19978E-004	4	..........a	-327.66
	303	0.0608	9.99695E-002	-1.29026E-009	0.00000E+000	1.00000E-001	8.00223E-005	4	..........a	-327.66
	304	0.061	9.00695E-002	-1.44527E-009	0.00000E+000	9.00000E-002	8.00223E-005	4	..........a	-327.66
	305	0.0612	7.99695E-002	-1.60227E-009	0.00000E+000	8.00000E-002	8.00223E-005	4	..........a	-327.66
	306	0.0614	6.98695E-002	-1.75828E-009	0.00000E+000	7.00000E-002	8.00223E-005	4	..........a	-327.66
	307	0.0616	6.00695E-002	-1.91429E-009	0.00000E+000	6.00000E-002	8.00223E-005	4	..........a	-327.66
	308	0.0618	4.98695E-002	-2.07429E-009	0.00000E+000	5.00000E-002	8.00223E-005	4	..........a	-327.66
	309	0.062	4.00695E-002	-2.22830E-009	0.00000E+000	4.00000E-002	8.00223E-005	4	..........a	-327.66
	310	0.0622	3.00695E-002	-2.38630E-009	0.00000E+000	3.00000E-002	8.00223E-005	4	..........a	-327.66
	311	0.0624	2.02695E-002	-2.54631E-009	0.00000E+000	2.00000E-002	8.00223E-005	4	..........a	-327.66
	312	0.0626	1.00695E-002	-2.70332E-009	0.00000E+000	1.00000E-002	8.00223E-005	4	..........a	-327.66
	313	0.0628	6.95192E-005	-2.86032E-009	0.00000E+000	7.45058E-009	8.00223E-005	4	..........a	-327.66
	314	0.063	-9.93048E-003	-3.01633E-009	0.00000E+000	-1.00000E-002	8.00223E-005	4	..........a	-327.66
	315	0.0632	-1.99305E-002	-3.17233E-009	0.00000E+000	-2.00000E-002	8.00223E-005	4	..........a	-327.66
	316	0.0634	-2.99305E-002	-3.32734E-009	0.00000E+000	-3.00000E-002	8.00223E-005	4	..........a	-327.66
	317	0.0636	-4.00305E-002	-3.48435E-009	0.00000E+000	-4.00000E-002	8.00223E-005	4	..........a	-327.66
	318	0.0638	-4.98305E-002	-3.63135E-009	0.00000E+000	-5.00000E-002	8.00223E-005	4	..........a	-327.66
	319	0.064	-5.98305E-002	-3.78636E-009	0.00000E+000	-6.00000E-002	8.00223E-005	4	..........a	-327.66
	320	0.0642	-6.99305E-002	-3.93736E-009	0.00000E+000	-7.00000E-002	8.00223E-005	4	..........a	-327.66
	321	0.0644	-7.98305E-002	-4.08737E-009	0.00000E+000	-8.00000E-002	8.00223E-005	4	..........a	-327.66
	322	0.0646	-8.99305E-002	-4.23438E-009	0.00000E+000	-9.00000E-002	8.00223E-005	4	..........a	-327.66
	323	0.0648	-9.99305E-002	-4.38838E-009	0.00000E+000	-1.00000E-001	8.00223E-005	4	..........a	-327.66
	324	0.065	-1.10130E-001	-4.53039E-009	0.00000E+000	-1.10000E-001	8.00223E-005	4	..........a	-327.66
	325	0.0652	-1.19930E-001	-4.67839E-009	0.00000E+000	-1.20000E-001	-1.19978E-004	4	..........a	-327.66
	326	0.0654	-1.30030E-001	-4.82140E-009	0.00000E+000	-1.30000E-001	8.00223E-005	4	..........a	-327.66
	327	0.0656	-1.39730E-001	-4.95940E-009	0.00000E+000	-1.40000E-001	8.00223E-005	4	..........a	-327.66
	328	0.0658	-1.50030E-001	-5.10441E-009	0.00000E+000	-1.50000E-001	8.00223E-005	4	..........a	-327.66
	329	0.066	-1.59930E-001	-5.24841E-009	0.00000E+000	-1.60000E-001	8.00223E-005	4	..........a	-327.66
	330	0.0662	-1.69930E-001	-5.38742E-009	0.00000E+000	-1.70000E-001	8.00223E-005	4	..........a	-327.66
	331	0.0664	-1.79730E-001	-5.53043E-009	0.00000E+000	-1.80000E-001	8.00223E-005	4	..........a	-327.66
	332	0.0666	-1.89930E-001	-5.66143E-009	0.00000E+000	-1.90000E-001	8.00223E-005	4	..........a	-327.66
	333	0.0668	-1.99930E-001	-5.79944E-009	0.00000E+000	-2.00000E-001	8.00223E-005	4	..........a	-327.66
	334	0.067	-2.09830E-001	-5.94044E-009	0.00000E+000	-2.10000E-001	8.00223E-005	4	..........a	-327.66
	335	0.0672	-2.19930E-001	-6.07245E-009	0.00000E+000	-2.20000E-001	8.00223E-005	4	..........a	-327.66
	336	0.0674	-2.29830E-001	-6.21245E-009	0.00000E+000	-2.30000E-001	8.00223E-005	4	..........a	-327.66
	337	0.0676	-2.40130E-001	-6.33846E-009	0.00000E+000	-2.40000E-001	8.00223E-005	4	..........a	-327.66
	338	0.0678	-2.49830E-001	-6.48046E-009	0.00000E+000	-2.50000E-001	8.00223E-005	4	..........a	-327.66
	339	0.068	-2.59730E-001	-6.61047E-009	0.00000E+000	-2.60000E-001	8.00223E-005	4	..........a	-327.66
	340	0.0682	-2.69930E-001	-6.74447E-009	0.00000E+000	-2.70000E-001	8.00223E-005	4	..........a	-327.66
	341	0.0684	-2.80030E-001	-6.87348E-009	0.00000E+000	-2.80000E-001	8.00223E-005	4	..........a	-327.66
	342	0.0686	-2.90030E-001	-7.00748E-009	0.00000E+000	-2.90000E-001	8.00223E-005	4	..........a	-327.66
	343	0.0688	-2.99830E-001	-7.13449E-009	0.00000E+000	-3.00000E-001	8.00223E-005	4	..........a	-327.66
	344	0.069	-3.09930E-001	-7.26849E-009	0.00000E+000	-3.10000E-001	8.00223E-005	4	..........a	-327.66
[...]
	2603	0.5208	-4.99930E-001	-6.84348E-009	0.00000E+000	-5.00000E-001	8.00223E-005	4	..........a	-327.66
	2604	0.521	-5.09930E-001	-6.98348E-009	0.00000E+000	-5.10000E-001	-4.19978E-004	4	..........a	-327.66
	2605	0.5212	-5.19930E-001	-7.11849E-009	0.00000E+000	-5.20000E-001	8.00223E-005	4	..........a	-327.66
	2606	0.5214	-5.29930E-001	-7.26049E-009	0.00000E+000	-5.30000E-001	8.00223E-005	4	..........a	-327.66
	2607	0.5216	-5.39930E-001	-7.40650E-009	0.00000E+000	-5.40000E-001	8.00223E-005	4	..........a	-327.66
	2608	0.5218	-5.49931E-001	-7.55050E-009	0.00000E+000	-5.50000E-001	8.00223E-005	4	..........a	-327.66
	2609	0.522	-5.59931E-001	-7.70051E-009	0.00000E+000	-5.60000E-001	8.00223E-005	4	..........a	-327.66
	2610	0.5222	-5.70031E-001	-7.84951E-009	0.00000E+000	-5.70000E-001	8.00223E-005	4	..........a	-327.66
	2611	0.5224	-5.79930E-001	-8.00552E-009	0.00000E+000	-5.80000E-001	-2.19978E-004	4	..........a	-327.66
	2612	0.5226	-5.89930E-001	-8.15953E-009	0.00000E+000	-5.90000E-001	8.00223E-005	4	..........a	-327.66
	2613	0.5228	-5.99831E-001	-8.31853E-009	0.00000E+000	-6.00000E-001	8.00223E-005	4	..........a	-327.66
	2614	0.523	-5.89731E-001	-8.35453E-009	0.00000E+000	-5.90000E-001	8.00223E-005	4	..........a	-327.66
	2615	0.5232	-5.79830E-001	-8.36853E-009	0.00000E+000	-5.80000E-001	8.00223E-005	4	..........a	-327.66
	2616	0.5234	-5.69930E-001	-8.36653E-009	0.00000E+000	-5.70000E-001	8.00223E-005	4	..........a	-327.66
	2617	0.5236	-5.59830E-001	-8.35553E-009	0.00000E+000	-5.60000E-001	8.00223E-005	4	..........a	-327.66
	2618	0.5238	-5.49931E-001	-8.33653E-009	0.00000E+000	-5.50000E-001	8.00223E-005	4	..........a	-327.66
	2619	0.524	-5.39730E-001	-8.31153E-009	0.00000E+000	-5.40000E-001	8.00223E-005	4	..........a	-327.66
	2620	0.5242	-5.29930E-001	-8.27953E-009	0.00000E+000	-5.30000E-001	8.00223E-005	4	..........a	-327.66
	2621	0.5244	-5.19830E-001	-8.24253E-009	0.00000E+000	-5.20000E-001	8.00223E-005	4	..........a	-327.66
	2622	0.5246	-5.09930E-001	-8.19953E-009	0.00000E+000	-5.10000E-001	8.00223E-005	4	..........a	-327.66
	2623	0.5248	-4.99830E-001	-8.15253E-009	0.00000E+000	-5.00000E-001	8.00223E-005	4	..........a	-327.66
	2624	0.525	-4.89830E-001	-8.10652E-009	0.00000E+000	-4.90000E-001	-2.19978E-004	4	..........a	-327.66
	2625	0.5252	-4.79930E-001	-8.05652E-009	0.00000E+000	-4.80000E-001	8.00223E-005	4	..........a	-327.66
	2626	0.5254	-4.69930E-001	-8.00852E-009	0.00000E+000	-4.70000E-001	8.00223E-005	4	..........a	-327.66
	2627	0.5256	-4.59930E-001	-7.94752E-009	0.00000E+000	-4.60000E-001	8.00223E-005	4	..........a	-327.66
	2628	0.5258	-4.49930E-001	-7.89152E-009	0.00000E+000	-4.50000E-001	8.00223E-005	4	..........a	-327.66
	2629	0.526	-4.39930E-001	-7.83451E-009	0.00000E+000	-4.40000E-001	8.00223E-005	4	..........a	-327.66
	2630	0.5262	-4.29930E-001	-7.76851E-009	0.00000E+000	-4.30000E-001	8.00223E-005	4	..........a	-327.66
	2631	0.5264	-4.19830E-001	-7.71451E-009	0.00000E+000	-4.20000E-001	8.00223E-005	4	..........a	-327.66
	2632	0.5266	-4.09930E-001	-7.64151E-009	0.00000E+000	-4.10000E-001	8.00223E-005	4	..........a	-327.66
	2633	0.5268	-3.99930E-001	-7.58650E-009	0.00000E+000	-4.00000E-001	8.00223E-005	4	..........a	-327.66
	2634	0.527	-3.90030E-001	-7.51250E-009	0.00000E+000	-3.90000E-001	8.00223E-005	4	..........a	-327.66
	2635	0.5272	-3.79730E-001	-7.44450E-009	0.00000E+000	-3.80000E-001	8.00223E-005	4	..........a	-327.66
	2636	0.5274	-3.69930E-001	-7.37250E-009	0.00000E+000	-3.70000E-001	8.00223E-005	4	..........a	-327.66
	2637	0.5276	-3.60030E-001	-7.30149E-009	0.00000E+000	-3.60000E-001	8.00223E-005	4	..........a	-327.66
	2638	0.5278	-3.50030E-001	-7.22549E-009	0.00000E+000	-3.50000E-001	8.00223E-005	4	..........a	-327.66
	2639	0.528	-3.39830E-001	-7.15249E-009	0.00000E+000	-3.40000E-001	8.00223E-005	4	..........a	-327.66
	2640	0.5282	-3.29930E-001	-7.07948E-009	0.00000E+000	-3.30000E-001	8.00223E-005	4	..........a	-327.66
	2641	0.5284	-3.19730E-001	-7.00248E-009	0.00000E+000	-3.20000E-001	8.00223E-005	4	..........a	-327.66
	2642	0.5286	-3.10130E-001	-6.93048E-009	0.00000E+000	-3.10000E-001	8.00223E-005	4	..........a	-327.66
	2643	0.5288	-2.99830E-001	-6.85048E-009	0.00000E+000	-3.00000E-001	8.00223E-005	4	..........a	-327.66
	2644	0.529	-2.89930E-001	-6.77047E-009	0.00000E+000	-2.90000E-001	8.00223E-005	4	..........a	-327.66
	2645	0.5292	-2.79830E-001	-6.69447E-009	0.00000E+000	-2.80000E-001	8.00223E-005	4	..........a	-327.66
	2646	0.5294	-2.69930E-001	-6.61447E-009	0.00000E+000	-2.70000E-001	8.00223E-005	4	..........a	-327.66
	2647	0.5296	-2.59730E-001	-6.53446E-009	0.00000E+000	-2.60000E-001	8.00223E-005	4	..........a	-327.66
	2648	0.5298	-2.49930E-001	-6.45646E-009	0.00000E+000	-2.50000E-001	8.00223E-005	4	..........a	-327.66
	2649	0.53	-2.39930E-001	-6.37046E-009	0.00000E+000	-2.40000E-001	8.00223E-005	4	..........a	-327.66
	2650	0.5302	-2.29930E-001	-6.29145E-009	0.00000E+000	-2.30000E-001	8.00223E-005	4	..........a	-327.66
	2651	0.5304	-2.19630E-001	-6.20845E-009	0.00000E+000	-2.20000E-001	8.00223E-005	4	..........a	-327.66
	2652	0.5306	-2.09930E-001	-6.11245E-009	0.00000E+000	-2.10000E-001	8.00223E-005	4	..........a	-327.66
	2653	0.5308	-2.00030E-001	-6.03444E-009	0.00000E+000	-2.00000E-001	8.00223E-005	4	..........a	-327.66
	2654	0.531	-1.90330E-001	-5.95644E-009	0.00000E+000	-1.90000E-001	8.00223E-005	4	..........a	-327.66
	2655	0.5312	-1.79830E-001	-5.86644E-009	0.00000E+000	-1.80000E-001	8.00223E-005	4	..........a	-327.66
	2656	0.5314	-1.69930E-001	-5.78043E-009	0.00000E+000	-1.70000E-001	8.00223E-005	4	..........a	-327.66
	2657	0.5316	-1.59930E-001	-5.69243E-009	0.00000E+000	-1.60000E-001	8.00223E-005	4	..........a	-327.66
	2658	0.5318	-1.49930E-001	-5.60543E-009	0.00000E+000	-1.50000E-001	8.00223E-005	4	..........a	-327.66
	2659	0.532	-1.39730E-001	-5.51842E-009	0.00000E+000	-1.40000E-001	8.00223E-005	4	..........a	-327.66
	2660	0.5322	-1.29930E-001	-5.42842E-009	0.00000E+000	-1.30000E-001	8.00223E-005	4	..........a	-327.66
	2661	0.5324	-1.19930E-001	-5.33342E-009	0.00000E+000	-1.20000E-001	8.00223E-005	4	..........a	-327.66
	2662	0.5326	-1.10130E-001	-5.25041E-009	0.00000E+000	-1.10000E-001	8.00223E-005	4	..........a	-327.66
	2663	0.5328	-9.99305E-002	-5.15641E-009	0.00000E+000	-1.00000E-001	8.00223E-005	4	..........a	-327.66
	2664	0.533	-8.99305E-002	-5.06641E-009	0.00000E+000	-9.00000E-002	8.00223E-005	4	..........a	-327.66
	2665	0.5332	-8.01305E-002	-4.96040E-009	0.00000E+000	-8.00000E-002	8.00223E-005	4	..........a	-327.66
	2666	0.5334	-6.99305E-002	-4.87940E-009	0.00000E+000	-7.00000E-002	8.00223E-005	4	..........a	-327.66
	2667	0.5336	-5.98305E-002	-4.78540E-009	0.00000E+000	-6.00000E-002	8.00223E-005	4	..........a	-327.66
	2668	0.5338	-4.99305E-002	-4.69039E-009	0.00000E+000	-5.00000E-002	8.00223E-005	4	..........a	-327.66
	2669	0.534	-3.99305E-002	-4.59639E-009	0.00000E+000	-4.00000E-002	8.00223E-005	4	..........a	-327.66
	2670	0.5342	-2.99305E-002	-4.50039E-009	0.00000E+000	-3.00000E-002	8.00223E-005	4	..........a	-327.66
	2671	0.5344	-1.99305E-002	-4.40838E-009	0.00000E+000	-2.00000E-002	8.00223E-005	4	..........a	-327.66
	2672	0.5346	-9.93048E-003	-4.31338E-009	0.00000E+000	-1.00000E-002	8.00223E-005	4	..........a	-327.66
	2673	0.5348	1.69519E-004	-4.21437E-009	0.00000E+000	7.45058E-009	8.00223E-005	4	..........a	-327.66
	2674	0.535	1.00695E-002	-4.11637E-009	0.00000E+000	1.00000E-002	8.00223E-005	4	..........a	-327.66
	2675	0.5352	2.02695E-002	-4.01637E-009	0.00000E+000	2.00000E-002	8.00223E-005	4	..........a	-327.66
	2676	0.5354	3.00695E-002	-3.92036E-009	0.00000E+000	3.00000E-002	8.00223E-005	4	..........a	-327.66
	2677	0.5356	3.98695E-002	-3.81736E-009	0.00000E+000	4.00000E-002	8.00223E-005	4	..........a	-327.66
	2678	0.5358	4.99695E-002	-3.71536E-009	0.00000E+000	5.00000E-002	8.00223E-005	4	..........a	-327.66
	2679	0.536	6.00695E-002	-3.61835E-009	0.00000E+000	6.00000E-002	-2.19978E-004	4	..........a	-327.66
	2680	0.5362	6.99195E-002	-3.51535E-009	0.00000E+000	7.00000E-002	8.00223E-005	4	..........a	-327.66
	2681	0.5364	8.00695E-002	-3.41234E-009	0.00000E+000	8.00000E-002	8.00223E-005	4	..........a	-327.66
	2682	0.5366	9.01695E-002	-3.30434E-009	0.00000E+000	9.00000E-002	8.00223E-005	4	..........a	-327.66
	2683	0.5368	1.00070E-001	-3.20234E-009	0.00000E+000	1.00000E-001	8.00223E-005	4	..........a	-327.66
	2684	0.537	1.09970E-001	-3.10033E-009	0.00000E+000	1.10000E-001	8.00223E-005	4	..........a	-327.66
	2685	0.5372	1.20170E-001	-2.98533E-009	0.00000E+000	1.20000E-001	8.00223E-005	4	..........a	-327.66
	2686	0.5374	1.30070E-001	-2.88232E-009	0.00000E+000	1.30000E-001	8.00223E-005	4	..........a	-327.66
	2687	0.5376	1.40070E-001	-2.76632E-009	0.00000E+000	1.40000E-001	8.00223E-005	4	..........a	-327.66
	2688	0.5378	1.50070E-001	-2.65931E-009	0.00000E+000	1.50000E-001	8.00223E-005	4	..........a	-327.66
	2689	0.538	1.60170E-001	-2.54631E-009	0.00000E+000	1.60000E-001	8.00223E-005	4	..........a	-327.66
	2690	0.5382	1.70070E-001	-2.43431E-009	0.00000E+000	1.70000E-001	8.00223E-005	4	..........a	-327.66
	2691	0.5384	1.80170E-001	-2.31930E-009	0.00000E+000	1.80000E-001	8.00223E-005	4	..........a	-327.66
	2692	0.5386	1.90070E-001	-2.20530E-009	0.00000E+000	1.90000E-001	8.00223E-005	4	..........a	-327.66
	2693	0.5388	2.00070E-001	-2.08729E-009	0.00000E+000	2.00000E-001	8.00223E-005	4	..........a	-327.66
	2694	0.539	2.09970E-001	-1.96929E-009	0.00000E+000	2.10000E-001	8.00223E-005	4	..........a	-327.66
	2695	0.5392	2.19470E-001	-1.84728E-009	0.00000E+000	2.20000E-001	8.00223E-005	4	..........a	-327.66
	2696	0.5394	2.29970E-001	-1.72928E-009	0.00000E+000	2.30000E-001	8.00223E-005	4	..........a	-327.66
	2697	0.5396	2.40070E-001	-1.60427E-009	0.00000E+000	2.40000E-001	8.00223E-005	4	..........a	-327.66
	2698	0.5398	2.50070E-001	-1.48427E-009	0.00000E+000	2.50000E-001	8.00223E-005	4	..........a	-327.66
	2699	0.54	2.60170E-001	-1.35026E-009	0.00000E+000	2.60000E-001	-2.19978E-004	4	..........a	-327.66
	2700	0.5402	2.69970E-001	-1.22226E-009	0.00000E+000	2.70000E-001	8.00223E-005	4	..........a	-327.66
	2701	0.5404	2.79870E-001	-1.09725E-009	0.00000E+000	2.80000E-001	8.00223E-005	4	..........a	-327.66
	2702	0.5406	2.89970E-001	-9.68250E-010	0.00000E+000	2.90000E-001	8.00223E-005	4	..........a	-327.66
	2703	0.5408	3.00170E-001	-8.32244E-010	0.00000E+000	3.00000E-001	8.00223E-005	4	..........a	-327.66
	2704	0.541	3.09970E-001	-6.99239E-010	0.00000E+000	3.10000E-001	8.00223E-005	4	..........a	-327.66
	2705	0.5412	3.20070E-001	-5.64234E-010	0.00000E+000	3.20000E-001	8.00223E-005	4	..........a	-327.66
	2706	0.5414	3.30070E-001	-4.24229E-010	0.00000E+000	3.30000E-001	-3.19978E-004	4	..........a	-327.66
	2707	0.5416	3.40170E-001	-2.90224E-010	0.00000E+000	3.40000E-001	8.00223E-005	4	..........a	-327.66
	2708	0.5418	3.49970E-001	-1.46218E-010	0.00000E+000	3.50000E-001	8.00223E-005	4	..........a	-327.66
	2709	0.542	3.60070E-001	-3.21249E-012	0.00000E+000	3.60000E-001	-3.19978E-004	4	..........a	-327.66
	2710	0.5422	3.69970E-001	1.43793E-010	0.00000E+000	3.70000E-001	8.00223E-005	4	..........a	-327.66
	2711	0.5424	3.80020E-001	2.86799E-010	0.00000E+000	3.80000E-001	8.00223E-005	4	..........a	-327.66
	2712	0.5426	3.89820E-001	4.30804E-010	0.00000E+000	3.90000E-001	8.00223E-005	4	..........a	-327.66
	2713	0.5428	3.99970E-001	5.79810E-010	0.00000E+000	4.00000E-001	8.00223E-005	4	..........a	-327.66
	2714	0.543	4.10070E-001	7.27816E-010	0.00000E+000	4.10000E-001	8.00223E-005	4	..........a	-327.66
	2715	0.5432	4.19970E-001	8.80821E-010	0.00000E+000	4.20000E-001	8.00223E-005	4	..........a	-327.66
	2716	0.5434	4.29820E-001	1.03683E-009	0.00000E+000	4.30000E-001	-3.19978E-004	4	..........a	-327.66
	2717	0.5436	4.39970E-001	1.18883E-009	0.00000E+000	4.40000E-001	8.00223E-005	4	..........a	-327.66
	2718	0.5438	4.49870E-001	1.34484E-009	0.00000E+000	4.50000E-001	8.00223E-005	4	..........a	-327.66
	2719	0.544	4.60170E-001	1.50185E-009	0.00000E+000	4.60000E-001	8.00223E-005	4	..........a	-327.66
	2720	0.5442	4.69970E-001	1.66285E-009	0.00000E+000	4.70000E-001	8.00223E-005	4	..........a	-327.66
	2721	0.5444	4.79870E-001	1.82486E-009	0.00000E+000	4.80000E-001	8.00223E-005	4	..........a	-327.66
	2722	0.5446	4.89770E-001	1.98986E-009	0.00000E+000	4.90000E-001	8.00223E-005	4	..........a	-327.66
	2723	0.5448	4.99970E-001	2.15187E-009	0.00000E+000	5.00000E-001	8.00223E-005	4	..........a	-327.66
	2724	0.545	5.09820E-001	2.32588E-009	0.00000E+000	5.10000E-001	8.00223E-005	4	..........a	-327.66
	2725	0.5452	5.20069E-001	2.49588E-009	0.00000E+000	5.20000E-001	8.00223E-005	4	..........a	-327.66
	2726	0.5454	5.29970E-001	2.65989E-009	0.00000E+000	5.30000E-001	8.00223E-005	4	..........a	-327.66
	2727	0.5456	5.39869E-001	2.83790E-009	0.00000E+000	5.40000E-001	8.00223E-005	4	..........a	-327.66
	2728	0.5458	5.49969E-001	3.01390E-009	0.00000E+000	5.50000E-001	8.00223E-005	4	..........a	-327.66
	2729	0.546	5.59869E-001	3.19391E-009	0.00000E+000	5.60000E-001	8.00223E-005	4	..........a	-327.66
	2730	0.5462	5.69869E-001	3.37792E-009	0.00000E+000	5.70000E-001	8.00223E-005	4	..........a	-327.66
	2731	0.5464	5.79969E-001	3.55792E-009	0.00000E+000	5.80000E-001	8.00223E-005	4	..........a	-327.66
	2732	0.5466	5.90069E-001	3.74893E-009	0.00000E+000	5.90000E-001	8.00223E-005	4	..........a	-327.66
	2733	0.5468	5.99869E-001	3.93494E-009	0.00000E+000	6.00000E-001	8.00223E-005	4	..........a	-327.66
	2734	0.547	6.10070E-001	4.12895E-009	0.00000E+000	6.10000E-001	8.00223E-005	4	..........a	-327.66
	2735	0.5472	6.19869E-001	4.32595E-009	0.00000E+000	6.20000E-001	8.00223E-005	4	..........a	-327.66
	2736	0.5474	6.29869E-001	4.51796E-009	0.00000E+000	6.30000E-001	8.00223E-005	4	..........a	-327.66
	2737	0.5476	6.39870E-001	4.71897E-009	0.00000E+000	6.40000E-001	8.00223E-005	4	..........a	-327.66
	2738	0.5478	6.49969E-001	4.92598E-009	0.00000E+000	6.50000E-001	8.00223E-005	4	..........a	-327.66
	2739	0.548	6.59769E-001	5.12898E-009	0.00000E+000	6.60000E-001	8.00223E-005	4	..........a	-327.66
	2740	0.5482	6.69969E-001	5.32999E-009	0.00000E+000	6.70000E-001	8.00223E-005	4	..........a	-327.66
	2741	0.5484	6.79669E-001	5.54900E-009	0.00000E+000	6.80000E-001	8.00223E-005	4	..........a	-327.66
	2742	0.5486	6.89969E-001	5.76601E-009	0.00000E+000	6.90000E-001	8.00223E-005	4	..........a	-327.66
	2743	0.5488	7.00069E-001	5.98502E-009	0.00000E+000	7.00000E-001	8.00223E-005	4	..........a	-327.66
	2744	0.549	7.09870E-001	6.20803E-009	0.00000E+000	7.10000E-001	8.00223E-005	4	..........a	-327.66
	2745	0.5492	7.19869E-001	6.43903E-009	0.00000E+000	7.20000E-001	8.00223E-005	4	..........a	-327.66
	2746	0.5494	7.29869E-001	6.67004E-009	0.00000E+000	7.30000E-001	-2.19978E-004	4	..........a	-327.66
	2747	0.5496	7.39769E-001	6.90305E-009	0.00000E+000	7.40000E-001	-3.19978E-004	4	..........a	-327.66
	2748	0.5498	7.49969E-001	7.14006E-009	0.00000E+000	7.50000E-001	8.00223E-005	4	..........a	-327.66
	2749	0.55	7.59969E-001	7.38207E-009	0.00000E+000	7.60000E-001	8.00223E-005	4	..........a	-327.66
	2750	0.5502	7.69870E-001	7.63408E-009	0.00000E+000	7.70000E-001	8.00223E-005	4	..........a	-327.66
	2751	0.5504	7.79869E-001	7.89009E-009	0.00000E+000	7.80000E-001	8.00223E-005	4	..........a	-327.66
	2752	0.5506	7.89869E-001	8.14810E-009	0.00000E+000	7.90000E-001	8.00223E-005	4	..........a	-327.66
	2753	0.5508	7.99869E-001	8.40811E-009	0.00000E+000	8.00000E-001	8.00223E-005	4	..........a	-327.66
CURVE11	TABLE
	Pt	T	Vf	Im	Vu	Sig	Ach	IERange	Over	Temp
	#	s	V vs. Ref.	A	V	V	V	#	bits	deg C
	2754	0.551	7.89970E-001	8.54612E-009	0.00000E+000	7.90000E-001	8.00223E-005	4	..........a	-327.66
	2755	0.5512	7.79869E-001	8.64112E-009	0.00000E+000	7.80000E-001	8.00223E-005	4	..........a	-327.66
	2756	0.5514	7.69870E-001	8.70212E-009	0.00000E+000	7.70000E-001	-3.19978E-004	4	..........a	-327.66
	2757	0.5516	7.59869E-001	8.74512E-009	0.00000E+000	7.60000E-001	8.00223E-005	4	..........a	-327.66
	2758	0.5518	7.50069E-001	8.75812E-009	0.00000E+000	7.50000E-001	8.00223E-005	4	..........a	-327.66
	2759	0.552	7.39969E-001	8.76612E-009	0.00000E+000	7.40000E-001	8.00223E-005	4	..........a	-327.66
	2760	0.5522	7.29970E-001	8.76212E-009	0.00000E+000	7.30000E-001	8.00223E-005	4	..........a	-327.66
	2761	0.5524	7.19769E-001	8.74912E-009	0.00000E+000	7.20000E-001	8.00223E-005	4	..........a	-327.66
	2762	0.5526	7.09969E-001	8.72212E-009	0.00000E+000	7.10000E-001	8.00223E-005	4	..........a	-327.66
	2763	0.5528	6.99769E-001	8.69612E-009	0.00000E+000	7.00000E-001	-3.19978E-004	4	..........a	-327.66
	2764	0.553	6.89770E-001	8.65712E-009	0.00000E+000	6.90000E-001	8.00223E-005	4	..........a	-327.66
	2765	0.5532	6.79669E-001	8.62012E-009	0.00000E+000	6.80000E-001	8.00223E-005	4	..........a	-327.66
	2766	0.5534	6.69869E-001	8.56812E-009	0.00000E+000	6.70000E-001	-2.19978E-004	4	..........a	-327.66
	2767	0.5536	6.59920E-001	8.51311E-009	0.00000E+000	6.60000E-001	8.00223E-005	4	..........a	-327.66
	2768	0.5538	6.49920E-001	8.46211E-009	0.00000E+000	6.50000E-001	8.00223E-005	4	..........a	-327.66
	2769	0.554	6.39870E-001	8.39611E-009	0.00000E+000	6.40000E-001	-3.19978E-004	4	..........a	-327.66
	2770	0.5542	6.29869E-001	8.33611E-009	0.00000E+000	6.30000E-001	8.00223E-005	4	..........a	-327.66
	2771	0.5544	6.19969E-001	8.26611E-009	0.00000E+000	6.20000E-001	8.00223E-005	4	..........a	-327.66
	2772	0.5546	6.09769E-001	8.19210E-009	0.00000E+000	6.10000E-001	8.00223E-005	4	..........a	-327.66
	2773	0.5548	5.99970E-001	8.12410E-009	0.00000E+000	6.00000E-001	8.00223E-005	4	..........a	-327.66
	2774	0.555	5.90069E-001	8.05310E-009	0.00000E+000	5.90000E-001	8.00223E-005	4	..........a	-327.66
	2775	0.5552	5.79769E-001	7.97309E-009	0.00000E+000	5.80000E-001	8.00223E-005	4	..........a	-327.66
	2776	0.5554	5.69969E-001	7.89809E-009	0.00000E+000	5.70000E-001	8.00223E-005	4	..........a	-327.66
	2777	0.5556	5.59969E-001	7.81809E-009	0.00000E+000	5.60000E-001	8.00223E-005	4	..........a	-327.66
	2778	0.5558	5.50020E-001	7.73208E-009	0.00000E+000	5.50000E-001	8.00223E-005	4	..........a	-327.66
	2779	0.556	5.40069E-001	7.64408E-009	0.00000E+000	5.40000E-001	8.00223E-005	4	..........a	-327.66
	2780	0.5562	5.30069E-001	7.56008E-009	0.00000E+000	5.30000E-001	8.00223E-005	4	..........a	-327.66
	2781	0.5564	5.19870E-001	7.46907E-009	0.00000E+000	5.20000E-001	8.00223E-005	4	..........a	-327.66
	2782	0.5566	5.09969E-001	7.37607E-009	0.00000E+000	5.10000E-001	8.00223E-005	4	..........a	-327.66
	2783	0.5568	4.99870E-001	7.28807E-009	0.00000E+000	5.00000E-001	8.00223E-005	4	..........a	-327.66
	2784	0.557	4.90070E-001	7.19306E-009	0.00000E+000	4.90000E-001	8.00223E-005	4	..........a	-327.66
	2785	0.5572	4.79870E-001	7.09806E-009	0.00000E+000	4.80000E-001	8.00223E-005	4	..........a	-327.66
	2786	0.5574	4.69870E-001	6.99506E-009	0.00000E+000	4.70000E-001	8.00223E-005	4	..........a	-327.66
	2787	0.5576	4.60070E-001	6.89705E-009	0.00000E+000	4.60000E-001	-3.19978E-004	4	..........a	-327.66
	2788	0.5578	4.49670E-001	6.79505E-009	0.00000E+000	4.50000E-001	8.00223E-005	4	..........a	-327.66
	2789	0.558	4.39870E-001	6.69204E-009	0.00000E+000	4.40000E-001	8.00223E-005	4	..........a	-327.66
	2790	0.5582	4.29970E-001	6.58804E-009	0.00000E+000	4.30000E-001	-4.19978E-004	4	..........a	-327.66
	2791	0.5584	4.20070E-001	6.48104E-009	0.00000E+000	4.20000E-001	8.00223E-005	4	..........a	-327.66
	2792	0.5586	4.09870E-001	6.36603E-009	0.00000E+000	4.10000E-001	8.00223E-005	4	..........a	-327.66
	2793	0.5588	3.99970E-001	6.26203E-009	0.00000E+000	4.00000E-001	8.00223E-005	4	..........a	-327.66
	2794	0.559	3.90070E-001	6.14902E-009	0.00000E+000	3.90000E-001	-3.19978E-004	4	..........a	-327.66
	2795	0.5592	3.80170E-001	6.03602E-009	0.00000E+000	3.80000E-001	8.00223E-005	4	..........a	-327.66
	2796	0.5594	3.69870E-001	5.91601E-009	0.00000E+000	3.70000E-001	8.00223E-005	4	..........a	-327.66
	2797	0.5596	3.59770E-001	5.79201E-009	0.00000E+000	3.60000E-001	8.00223E-005	4	..........a	-327.66
	2798	0.5598	3.50070E-001	5.67401E-009	0.00000E+000	3.50000E-001	8.00223E-005	4	..........a	-327.66