File: data/raw/batch_data/20240321_ZZD_GM0016_HL03_E14_CV50k.DTA
EXPLAIN
TAG	CV
TITLE	LABEL	Cyclic Voltammetry	Test &Identifier
DATE	LABEL	3/21/2024	Date
TIME	LABEL	19:42:24	Time
NOTES	NOTES	1	&Notes...

PSTAT	PSTAT	REF600P-43058	Potentiostat
VINIT	POTEN	0.00000E+000	T	Initial &E (V)
VLIMIT1	POTEN	-6.00000E-001	F	Scan Limit &1 (V)
VLIMIT2	POTEN	8.00000E-001	F	Scan Limit &2 (V)
VFINAL	POTEN	0.00000E+000	T	Final &E (V)
SCANRATE	QUANT	4.99999E+004	&Scan Rate (mV/s)
STEPSIZE	QUANT	1.00000E+001	St&ep Size (mV)
CYCLES	IQUANT	10	C&ycles (#)
IMODE	SELECTOR	1	I/E Range &Mode
IRANGE	QUANT	1.00000E-005	&Max Current (mA)
AREA	QUANT	1.00000E+000	Electrode &Area (cm^2)
ELECTRODETYPE	SELECTOR	0	Electrode Type
STRIPPING	TOGGLE	F	Used for Stripping
POLARITY	TOGGLE	F	Signal Polarity
CONDIT	TWOPARAM	F	1.50000E+001	0.00000E+000	Conditionin&g	Time(s)	E(V)
DELAY	TWOPARAM	T	1.00000E+001	0.00000E+000	Init. De&lay	Time(s)	Stab.(mV/s)
EQDELAY	QUANT	1.00000E+001	Equil. &Time (s)
IRCOMP	SELECTOR	0	IRCom&p
PFCOR	QUANT	5.00000E+001	PF Corr. (ohm)
SAMPLINGMODE	SELECTOR	1	Sampling &Mode
OCVCURVE	TABLE	39
	Pt	T	Vf	Vm	Ach	Over	Temp
	#	s	V vs. Ref.	V	V	bits	deg C
	0	0.258333	4.29165E-001	4.29165E-001	2.45422E-004	..........a	-327.66
	1	0.516667	4.29171E-001	4.29484E-001	2.53622E-004	..........a	-327.66
	2	0.775	4.29204E-001	4.29584E-001	2.64156E-004	..........a	-327.66
	3	1.03333	4.29285E-001	4.29629E-001	2.48889E-004	..........a	-327.66
	4	1.29167	4.29403E-001	4.29754E-001	2.59422E-004	..........a	-327.66
	5	1.55	4.29527E-001	4.29884E-001	2.56089E-004	..........a	-327.66
	6	1.80833	4.29644E-001	4.29999E-001	2.53156E-004	..........a	-327.66
	7	2.06667	4.29758E-001	4.30179E-001	2.33156E-004	..........a	-327.66
	8	2.325	4.29880E-001	4.30343E-001	2.64956E-004	..........a	-327.66
	9	2.58333	4.30016E-001	4.30484E-001	2.69956E-004	..........a	-327.66
	10	2.84167	4.30165E-001	4.30637E-001	2.53689E-004	..........a	-327.66
	11	3.1	4.30319E-001	4.30819E-001	2.51356E-004	..........a	-327.66
	12	3.35833	4.30479E-001	4.31099E-001	2.36489E-004	..........a	-327.66
	13	3.61667	4.30650E-001	4.31203E-001	2.55889E-004	..........a	-327.66
	14	3.875	4.30831E-001	4.31222E-001	2.54156E-004	..........a	-327.66
	15	4.13333	4.31001E-001	4.31335E-001	2.35422E-004	..........a	-327.66
	16	4.39167	4.31138E-001	4.31486E-001	2.43156E-004	..........a	-327.66
	17	4.65	4.31251E-001	4.31619E-001	2.39222E-004	..........a	-327.66
	18	4.90833	4.31360E-001	4.31789E-001	2.52822E-004	..........a	-327.66
	19	5.16667	4.31483E-001	4.31957E-001	2.55822E-004	..........a	-327.66
	20	5.425	4.31624E-001	4.32118E-001	2.51689E-004	..........a	-327.66
	21	5.68333	4.31778E-001	4.32250E-001	2.23756E-004	..........a	-327.66
	22	5.94167	4.31936E-001	4.32406E-001	2.46089E-004	..........a	-327.66
	23	6.2	4.32095E-001	4.32695E-001	2.61489E-004	..........a	-327.66
	24	6.45833	4.32260E-001	4.32779E-001	2.69889E-004	..........a	-327.66
	25	6.71667	4.32432E-001	4.32814E-001	2.84156E-004	..........a	-327.66
	26	6.975	4.32594E-001	4.32960E-001	2.67156E-004	..........a	-327.66
	27	7.23333	4.32731E-001	4.33106E-001	2.32956E-004	..........a	-327.66
	28	7.49167	4.32850E-001	4.33264E-001	2.52422E-004	..........a	-327.66
	29	7.75	4.32972E-001	4.33471E-001	2.54756E-004	..........a	-327.66
	30	8.00833	4.33112E-001	4.33626E-001	2.63889E-004	..........a	-327.66
	31	8.26667	4.33269E-001	4.33777E-001	2.65422E-004	..........a	-327.66
	32	8.525	4.33436E-001	4.33905E-001	2.52156E-004	..........a	-327.66
	33	8.78333	4.33601E-001	4.34122E-001	2.40622E-004	..........a	-327.66
	34	9.04167	4.33764E-001	4.34375E-001	2.61022E-004	..........a	-327.66
	35	9.3	4.33935E-001	4.34429E-001	2.54222E-004	..........a	-327.66
	36	9.5583	4.34111E-001	4.34501E-001	2.47889E-004	..........a	-327.66
	37	9.8167	4.34273E-001	4.34650E-001	2.43422E-004	..........a	-327.66
	38	10.075	4.34408E-001	4.34772E-001	2.61689E-004	..........a	-327.66
EOC	QUANT	0.4344082	Open Circuit (V)
PSTATMODEL	IQUANT	7	Pstat Model
PSTATSECTION	LABEL	REF600P-43058	Pstat Section
PSTATSERIALNO	LABEL	43058	Pstat Serial Number
CTRLMODE	IQUANT	1	Control Mode
ELECTROMETER	IQUANT	0	RE=0 or CS=1
IESTAB	IQUANT	2	I/E Stability
CASPEED	IQUANT	4	Control Amp Speed
CONVENTION	IQUANT	1	Current Convention
ICHRANGE	IQUANT	2	Ich Range
ICHRANGEMODE	TOGGLE	F	Ich Auto Range
ICHOFFSETENABLE	TOGGLE	F	Ich Offset Enable
ICHOFFSET	QUANT	0	Ich Offset (V)
ICHFILTER	IQUANT	1	Ich Filter
VCHRANGE	IQUANT	2	Vch Range
VCHRANGEMODE	TOGGLE	F	Vch Auto Range
VCHOFFSETENABLE	TOGGLE	F	Vch Offset Enable
VCHOFFSET	QUANT	0	Vch Offset (V)
VCHFILTER	IQUANT	1	Vch Filter
ACHRANGE	IQUANT	2	Ach Range
ACHOFFSETENABLE	TOGGLE	F	Ach Offset Enable
ACHOFFSET	QUANT	0	Ach Offset (V)
ACHFILTER	IQUANT	1	Ach Filter
IERANGELOWERLIMIT	IQUANT	1	I/E Range Lower Limit
IERANGEMODE	TOGGLE	F	I/E AutoRange
IERANGE	IQUANT	4	I/E Range
POSFEEDENABLE	TOGGLE	F	Positive Feedback IR Comp
POSFEEDRESISTANCE	QUANT	0	Positive Feedback Resistance (ohm)
ACHSELECT	IQUANT	4	Ach Select
SENSECABLEID	IQUANT	7	Sense Cable ID
PWRCABLEID	IQUANT	7	Power Cable ID
DCCALDATE	LABEL	12/18/2023	DC Calibration Date
ACCALDATE	LABEL	12/18/2023	AC Calibration Date
THERMOSELECT	IQUANT	1	Thermo Select
FRAMEWORKVERSION	LABEL	7.8.4	Framework Version
INSTRUMENTVERSION	LABEL	4.42	Instrument Version
CURVE1	TABLE
	Pt	T	Vf	Im	Vu	Sig	Ach	IERange	Over	Temp
	#	s	V vs. Ref.	A	V	V	V	#	bits	deg C
	0	0.0002	4.34370E-001	2.17885E-011	0.00000E+000	4.34400E-001	8.00223E-005	4	..........a	-327.66
	1	0.0004	4.24070E-001	-1.82131E-011	0.00000E+000	4.24400E-001	8.00223E-005	4	..........a	-327.66
	2	0.0006	4.14370E-001	-6.62149E-011	0.00000E+000	4.14400E-001	8.00223E-005	4	..........a	-327.66
	3	0.0008	4.04270E-001	-1.14217E-010	0.00000E+000	4.04400E-001	8.00223E-005	4	..........a	-327.66
	4	0.001	3.94270E-001	-1.63219E-010	0.00000E+000	3.94400E-001	-1.19978E-004	4	..........a	-327.66
	5	0.0012	3.84270E-001	-2.19221E-010	0.00000E+000	3.84400E-001	8.00223E-005	4	..........a	-327.66
	6	0.0014	3.74170E-001	-2.72223E-010	0.00000E+000	3.74400E-001	-3.19978E-004	4	..........a	-327.66
	7	0.0016	3.64470E-001	-3.32225E-010	0.00000E+000	3.64400E-001	8.00223E-005	4	..........a	-327.66
	8	0.0018	3.54170E-001	-3.88227E-010	0.00000E+000	3.54400E-001	8.00223E-005	4	..........a	-327.66
	9	0.002	3.44370E-001	-4.50230E-010	0.00000E+000	3.44400E-001	8.00223E-005	4	..........a	-327.66
	10	0.0022	3.34470E-001	-5.18232E-010	0.00000E+000	3.34400E-001	8.00223E-005	4	..........a	-327.66
	11	0.0024	3.24470E-001	-5.82235E-010	0.00000E+000	3.24400E-001	8.00223E-005	4	..........a	-327.66
	12	0.0026	3.14370E-001	-6.54237E-010	0.00000E+000	3.14400E-001	-4.19978E-004	4	..........a	-327.66
	13	0.0028	3.04470E-001	-7.26240E-010	0.00000E+000	3.04400E-001	8.00223E-005	4	..........a	-327.66
	14	0.003	2.94470E-001	-8.02243E-010	0.00000E+000	2.94400E-001	8.00223E-005	4	..........a	-327.66
	15	0.0032	2.84370E-001	-8.71246E-010	0.00000E+000	2.84400E-001	8.00223E-005	4	..........a	-327.66
	16	0.0034	2.74370E-001	-9.56249E-010	0.00000E+000	2.74400E-001	8.00223E-005	4	..........a	-327.66
	17	0.0036	2.64470E-001	-1.03825E-009	0.00000E+000	2.64400E-001	8.00223E-005	4	..........a	-327.66
	18	0.0038	2.54270E-001	-1.12226E-009	0.00000E+000	2.54400E-001	8.00223E-005	4	..........a	-327.66
	19	0.004	2.44370E-001	-1.21426E-009	0.00000E+000	2.44400E-001	8.00223E-005	4	..........a	-327.66
	20	0.0042	2.34370E-001	-1.31426E-009	0.00000E+000	2.34400E-001	8.00223E-005	4	..........a	-327.66
	21	0.0044	2.24470E-001	-1.40227E-009	0.00000E+000	2.24400E-001	-1.19978E-004	4	..........a	-327.66
	22	0.0046	2.14370E-001	-1.49627E-009	0.00000E+000	2.14400E-001	8.00223E-005	4	..........a	-327.66
	23	0.0048	2.04570E-001	-1.60027E-009	0.00000E+000	2.04400E-001	8.00223E-005	4	..........a	-327.66
	24	0.005	1.94370E-001	-1.70628E-009	0.00000E+000	1.94400E-001	8.00223E-005	4	..........a	-327.66
	25	0.0052	1.84370E-001	-1.82628E-009	0.00000E+000	1.84400E-001	8.00223E-005	4	..........a	-327.66
	26	0.0054	1.74470E-001	-1.93629E-009	0.00000E+000	1.74400E-001	8.00223E-005	4	..........a	-327.66
	27	0.0056	1.64370E-001	-2.05529E-009	0.00000E+000	1.64400E-001	8.00223E-005	4	..........a	-327.66
	28	0.0058	1.54270E-001	-2.17830E-009	0.00000E+000	1.54400E-001	8.00223E-005	4	..........a	-327.66
	29	0.006	1.44420E-001	-2.30430E-009	0.00000E+000	1.44400E-001	8.00223E-005	4	..........a	-327.66
	30	0.0062	1.34570E-001	-2.43131E-009	0.00000E+000	1.34400E-001	8.00223E-005	4	..........a	-327.66
	31	0.0064	1.24370E-001	-2.57631E-009	0.00000E+000	1.24400E-001	8.00223E-005	4	..........a	-327.66
	32	0.0066	1.14570E-001	-2.71532E-009	0.00000E+000	1.14400E-001	8.00223E-005	4	..........a	-327.66
	33	0.0068	1.04370E-001	-2.86232E-009	0.00000E+000	1.04400E-001	8.00223E-005	4	..........a	-327.66
	34	0.007	9.43695E-002	-3.01333E-009	0.00000E+000	9.44000E-002	8.00223E-005	4	..........a	-327.66
	35	0.0072	8.44695E-002	-3.17133E-009	0.00000E+000	8.44000E-002	8.00223E-005	4	..........a	-327.66
	36	0.0074	7.45695E-002	-3.33134E-009	0.00000E+000	7.44000E-002	8.00223E-005	4	..........a	-327.66
	37	0.0076	6.44695E-002	-3.50035E-009	0.00000E+000	6.44000E-002	-3.19978E-004	4	..........a	-327.66
	38	0.0078	5.43695E-002	-3.67435E-009	0.00000E+000	5.44000E-002	8.00223E-005	4	..........a	-327.66
	39	0.008	4.43695E-002	-3.85036E-009	0.00000E+000	4.44000E-002	-2.19978E-004	4	..........a	-327.66
	40	0.0082	3.43695E-002	-4.03337E-009	0.00000E+000	3.44000E-002	8.00223E-005	4	..........a	-327.66
	41	0.0084	2.43695E-002	-4.22237E-009	0.00000E+000	2.44000E-002	8.00223E-005	4	..........a	-327.66
	42	0.0086	1.45695E-002	-4.42038E-009	0.00000E+000	1.44000E-002	8.00223E-005	4	..........a	-327.66
	43	0.0088	4.46952E-003	-4.61639E-009	0.00000E+000	4.40001E-003	8.00223E-005	4	..........a	-327.66
	44	0.009	-5.43048E-003	-4.81840E-009	0.00000E+000	-5.60000E-003	8.00223E-005	4	..........a	-327.66
	45	0.0092	-1.55305E-002	-5.02241E-009	0.00000E+000	-1.56000E-002	8.00223E-005	4	..........a	-327.66
	46	0.0094	-2.56305E-002	-5.23241E-009	0.00000E+000	-2.56000E-002	8.00223E-005	4	..........a	-327.66
	47	0.0096	-3.56305E-002	-5.44542E-009	0.00000E+000	-3.56000E-002	8.00223E-005	4	..........a	-327.66
	48	0.0098	-4.54305E-002	-5.66243E-009	0.00000E+000	-4.56000E-002	8.00223E-005	4	..........a	-327.66
	49	0.01	-5.54305E-002	-5.88744E-009	0.00000E+000	-5.56000E-002	8.00223E-005	4	..........a	-327.66
	50	0.0102	-6.53305E-002	-6.10745E-009	0.00000E+000	-6.56000E-002	-3.19978E-004	4	..........a	-327.66
	51	0.0104	-7.55305E-002	-6.34446E-009	0.00000E+000	-7.56000E-002	8.00223E-005	4	..........a	-327.66
	52	0.0106	-8.54305E-002	-6.57246E-009	0.00000E+000	-8.56000E-002	8.00223E-005	4	..........a	-327.66
	53	0.0108	-9.55305E-002	-6.80747E-009	0.00000E+000	-9.56000E-002	8.00223E-005	4	..........a	-327.66
	54	0.011	-1.05530E-001	-7.04948E-009	0.00000E+000	-1.05600E-001	-3.19978E-004	4	..........a	-327.66
	55	0.0112	-1.15530E-001	-7.28349E-009	0.00000E+000	-1.15600E-001	8.00223E-005	4	..........a	-327.66
	56	0.0114	-1.25530E-001	-7.52850E-009	0.00000E+000	-1.25600E-001	8.00223E-005	4	..........a	-327.66
	57	0.0116	-1.35430E-001	-7.77251E-009	0.00000E+000	-1.35600E-001	8.00223E-005	4	..........a	-327.66
	58	0.0118	-1.45530E-001	-8.01552E-009	0.00000E+000	-1.45600E-001	8.00223E-005	4	..........a	-327.66
	59	0.012	-1.55530E-001	-8.26453E-009	0.00000E+000	-1.55600E-001	8.00223E-005	4	..........a	-327.66
	60	0.0122	-1.65430E-001	-8.51654E-009	0.00000E+000	-1.65600E-001	8.00223E-005	4	..........a	-327.66
	61	0.0124	-1.75630E-001	-8.75755E-009	0.00000E+000	-1.75600E-001	-3.19978E-004	4	..........a	-327.66
	62	0.0126	-1.85530E-001	-9.00656E-009	0.00000E+000	-1.85600E-001	8.00223E-005	4	..........a	-327.66
	63	0.0128	-1.95530E-001	-9.25657E-009	0.00000E+000	-1.95600E-001	-4.19978E-004	4	..........a	-327.66
	64	0.013	-2.05430E-001	-9.50658E-009	0.00000E+000	-2.05600E-001	8.00223E-005	4	..........a	-327.66
	65	0.0132	-2.15730E-001	-9.75359E-009	0.00000E+000	-2.15600E-001	8.00223E-005	4	..........a	-327.66
	66	0.0134	-2.25530E-001	-1.00056E-008	0.00000E+000	-2.25600E-001	8.00223E-005	4	..........a	-327.66
	67	0.0136	-2.35430E-001	-1.02536E-008	0.00000E+000	-2.35600E-001	8.00223E-005	4	..........a	-327.66
	68	0.0138	-2.45380E-001	-1.05056E-008	0.00000E+000	-2.45600E-001	8.00223E-005	4	..........a	-327.66
	69	0.014	-2.55530E-001	-1.07546E-008	0.00000E+000	-2.55600E-001	8.00223E-005	4	..........a	-327.66
	70	0.0142	-2.65430E-001	-1.10026E-008	0.00000E+000	-2.65600E-001	8.00223E-005	4	..........a	-327.66
	71	0.0144	-2.75530E-001	-1.12526E-008	0.00000E+000	-2.75600E-001	8.00223E-005	4	..........a	-327.66
	72	0.0146	-2.85330E-001	-1.15007E-008	0.00000E+000	-2.85600E-001	8.00223E-005	4	..........a	-327.66
	73	0.0148	-2.95530E-001	-1.17397E-008	0.00000E+000	-2.95600E-001	8.00223E-005	4	..........a	-327.66
	74	0.015	-3.05530E-001	-1.19877E-008	0.00000E+000	-3.05600E-001	8.00223E-005	4	..........a	-327.66
	75	0.0152	-3.15530E-001	-1.22327E-008	0.00000E+000	-3.15600E-001	8.00223E-005	4	..........a	-327.66
	76	0.0154	-3.25430E-001	-1.24797E-008	0.00000E+000	-3.25600E-001	8.00223E-005	4	..........a	-327.66
	77	0.0156	-3.35630E-001	-1.27247E-008	0.00000E+000	-3.35600E-001	8.00223E-005	4	..........a	-327.66
	78	0.0158	-3.45530E-001	-1.29597E-008	0.00000E+000	-3.45600E-001	8.00223E-005	4	..........a	-327.66
	79	0.016	-3.55530E-001	-1.32057E-008	0.00000E+000	-3.55600E-001	8.00223E-005	4	..........a	-327.66
	80	0.0162	-3.65330E-001	-1.34387E-008	0.00000E+000	-3.65600E-001	8.00223E-005	4	..........a	-327.66
	81	0.0164	-3.75430E-001	-1.36867E-008	0.00000E+000	-3.75600E-001	8.00223E-005	4	..........a	-327.66
	82	0.0166	-3.85330E-001	-1.39177E-008	0.00000E+000	-3.85600E-001	8.00223E-005	4	..........a	-327.66
	83	0.0168	-3.95430E-001	-1.41568E-008	0.00000E+000	-3.95600E-001	8.00223E-005	4	..........a	-327.66
	84	0.017	-4.05430E-001	-1.43948E-008	0.00000E+000	-4.05600E-001	8.00223E-005	4	..........a	-327.66
	85	0.0172	-4.15630E-001	-1.46308E-008	0.00000E+000	-4.15600E-001	8.00223E-005	4	..........a	-327.66
	86	0.0174	-4.25530E-001	-1.48638E-008	0.00000E+000	-4.25600E-001	-3.19978E-004	4	..........a	-327.66
	87	0.0176	-4.35530E-001	-1.50948E-008	0.00000E+000	-4.35600E-001	8.00223E-005	4	..........a	-327.66
	88	0.0178	-4.45430E-001	-1.53268E-008	0.00000E+000	-4.45600E-001	8.00223E-005	4	..........a	-327.66
	89	0.018	-4.55330E-001	-1.55638E-008	0.00000E+000	-4.55600E-001	8.00223E-005	4	..........a	-327.66
	90	0.0182	-4.65330E-001	-1.57938E-008	0.00000E+000	-4.65600E-001	8.00223E-005	4	..........a	-327.66
	91	0.0184	-4.75430E-001	-1.60288E-008	0.00000E+000	-4.75600E-001	8.00223E-005	4	..........a	-327.66
	92	0.0186	-4.85330E-001	-1.62608E-008	0.00000E+000	-4.85600E-001	8.00223E-005	4	..........a	-327.66
	93	0.0188	-4.95530E-001	-1.64968E-008	0.00000E+000	-4.95600E-001	8.00223E-005	4	..........a	-327.66
	94	0.019	-5.05430E-001	-1.67349E-008	0.00000E+000	-5.05600E-001	8.00223E-005	4	..........a	-327.66
	95	0.0192	-5.15530E-001	-1.69709E-008	0.00000E+000	-5.15600E-001	8.00223E-005	4	..........a	-327.66
	96	0.0194	-5.25531E-001	-1.72089E-008	0.00000E+000	-5.25600E-001	8.00223E-005	4	..........a	-327.66
	97	0.0196	-5.35330E-001	-1.74509E-008	0.00000E+000	-5.35600E-001	8.00223E-005	4	..........a	-327.66
	98	0.0198	-5.45480E-001	-1.76929E-008	0.00000E+000	-5.45600E-001	8.00223E-005	4	..........a	-327.66
	99	0.02	-5.55430E-001	-1.79309E-008	0.00000E+000	-5.55600E-001	8.00223E-005	4	..........a	-327.66
	100	0.0202	-5.65430E-001	-1.81689E-008	0.00000E+000	-5.65600E-001	8.00223E-005	4	..........a	-327.66
	101	0.0204	-5.75431E-001	-1.84119E-008	0.00000E+000	-5.75600E-001	8.00223E-005	4	..........a	-327.66
	102	0.0206	-5.85530E-001	-1.86669E-008	0.00000E+000	-5.85600E-001	8.00223E-005	4	..........a	-327.66
	103	0.0208	-5.95481E-001	-1.89149E-008	0.00000E+000	-5.95600E-001	8.00223E-005	4	..........a	-327.66
	104	0.021	-5.85330E-001	-1.90209E-008	0.00000E+000	-5.85600E-001	8.00223E-005	4	..........a	-327.66
	105	0.0212	-5.75530E-001	-1.90889E-008	0.00000E+000	-5.75600E-001	8.00223E-005	4	..........a	-327.66
	106	0.0214	-5.65381E-001	-1.91369E-008	0.00000E+000	-5.65600E-001	8.00223E-005	4	..........a	-327.66
	107	0.0216	-5.55430E-001	-1.91689E-008	0.00000E+000	-5.55600E-001	8.00223E-005	4	..........a	-327.66
	108	0.0218	-5.45530E-001	-1.91819E-008	0.00000E+000	-5.45600E-001	8.00223E-005	4	..........a	-327.66
	109	0.022	-5.35430E-001	-1.91869E-008	0.00000E+000	-5.35600E-001	8.00223E-005	4	..........a	-327.66
	110	0.0222	-5.25330E-001	-1.91789E-008	0.00000E+000	-5.25600E-001	8.00223E-005	4	..........a	-327.66
	111	0.0224	-5.15431E-001	-1.91729E-008	0.00000E+000	-5.15600E-001	8.00223E-005	4	..........a	-327.66
	112	0.0226	-5.05530E-001	-1.91469E-008	0.00000E+000	-5.05600E-001	8.00223E-005	4	..........a	-327.66
	113	0.0228	-4.95430E-001	-1.91229E-008	0.00000E+000	-4.95600E-001	8.00223E-005	4	..........a	-327.66
	114	0.023	-4.85430E-001	-1.90899E-008	0.00000E+000	-4.85600E-001	8.00223E-005	4	..........a	-327.66
	115	0.0232	-4.75530E-001	-1.90549E-008	0.00000E+000	-4.75600E-001	-3.19978E-004	4	..........a	-327.66
	116	0.0234	-4.65430E-001	-1.90109E-008	0.00000E+000	-4.65600E-001	8.00223E-005	4	..........a	-327.66
	117	0.0236	-4.55330E-001	-1.89649E-008	0.00000E+000	-4.55600E-001	8.00223E-005	4	..........a	-327.66
	118	0.0238	-4.45480E-001	-1.89169E-008	0.00000E+000	-4.45600E-001	8.00223E-005	4	..........a	-327.66
	119	0.024	-4.35530E-001	-1.88629E-008	0.00000E+000	-4.35600E-001	8.00223E-005	4	..........a	-327.66
	120	0.0242	-4.25330E-001	-1.88049E-008	0.00000E+000	-4.25600E-001	8.00223E-005	4	..........a	-327.66
	121	0.0244	-4.15430E-001	-1.87419E-008	0.00000E+000	-4.15600E-001	8.00223E-005	4	..........a	-327.66
	122	0.0246	-4.05430E-001	-1.86859E-008	0.00000E+000	-4.05600E-001	8.00223E-005	4	..........a	-327.66
	123	0.0248	-3.95330E-001	-1.86159E-008	0.00000E+000	-3.95600E-001	-4.19978E-004	4	..........a	-327.66
	124	0.025	-3.85430E-001	-1.85489E-008	0.00000E+000	-3.85600E-001	8.00223E-005	4	..........a	-327.66
	125	0.0252	-3.75530E-001	-1.84779E-008	0.00000E+000	-3.75600E-001	8.00223E-005	4	..........a	-327.66
	126	0.0254	-3.65330E-001	-1.84049E-008	0.00000E+000	-3.65600E-001	8.00223E-005	4	..........a	-327.66
	127	0.0256	-3.55530E-001	-1.83339E-008	0.00000E+000	-3.55600E-001	8.00223E-005	4	..........a	-327.66
	128	0.0258	-3.45430E-001	-1.82479E-008	0.00000E+000	-3.45600E-001	8.00223E-005	4	..........a	-327.66
	129	0.026	-3.35530E-001	-1.81689E-008	0.00000E+000	-3.35600E-001	8.00223E-005	4	..........a	-327.66
	130	0.0262	-3.25430E-001	-1.80879E-008	0.00000E+000	-3.25600E-001	8.00223E-005	4	..........a	-327.66
	131	0.0264	-3.15430E-001	-1.80019E-008	0.00000E+000	-3.15600E-001	8.00223E-005	4	..........a	-327.66
	132	0.0266	-3.05530E-001	-1.79169E-008	0.00000E+000	-3.05600E-001	8.00223E-005	4	..........a	-327.66
	133	0.0268	-2.95530E-001	-1.78289E-008	0.00000E+000	-2.95600E-001	8.00223E-005	4	..........a	-327.66
	134	0.027	-2.85330E-001	-1.77429E-008	0.00000E+000	-2.85600E-001	8.00223E-005	4	..........a	-327.66
	135	0.0272	-2.75530E-001	-1.76509E-008	0.00000E+000	-2.75600E-001	8.00223E-005	4	..........a	-327.66
	136	0.0274	-2.65330E-001	-1.75589E-008	0.00000E+000	-2.65600E-001	8.00223E-005	4	..........a	-327.66
	137	0.0276	-2.55530E-001	-1.74609E-008	0.00000E+000	-2.55600E-001	8.00223E-005	4	..........a	-327.66
	138	0.0278	-2.45430E-001	-1.73669E-008	0.00000E+000	-2.45600E-001	8.00223E-005	4	..........a	-327.66
	139	0.028	-2.35530E-001	-1.72599E-008	0.00000E+000	-2.35600E-001	8.00223E-005	4	..........a	-327.66
	140	0.0282	-2.25630E-001	-1.71659E-008	0.00000E+000	-2.25600E-001	8.00223E-005	4	..........a	-327.66
	141	0.0284	-2.15530E-001	-1.70629E-008	0.00000E+000	-2.15600E-001	8.00223E-005	4	..........a	-327.66
	142	0.0286	-2.05430E-001	-1.69609E-008	0.00000E+000	-2.05600E-001	8.00223E-005	4	..........a	-327.66
	143	0.0288	-1.95630E-001	-1.68549E-008	0.00000E+000	-1.95600E-001	8.00223E-005	4	..........a	-327.66
	144	0.029	-1.85430E-001	-1.67489E-008	0.00000E+000	-1.85600E-001	8.00223E-005	4	..........a	-327.66
	145	0.0292	-1.75630E-001	-1.66419E-008	0.00000E+000	-1.75600E-001	8.00223E-005	4	..........a	-327.66
	146	0.0294	-1.65330E-001	-1.65328E-008	0.00000E+000	-1.65600E-001	8.00223E-005	4	..........a	-327.66
	147	0.0296	-1.55530E-001	-1.64268E-008	0.00000E+000	-1.55600E-001	8.00223E-005	4	..........a	-327.66
	148	0.0298	-1.45530E-001	-1.63128E-008	0.00000E+000	-1.45600E-001	-3.19978E-004	4	..........a	-327.66
	149	0.03	-1.35530E-001	-1.61918E-008	0.00000E+000	-1.35600E-001	8.00223E-005	4	..........a	-327.66
	150	0.0302	-1.25430E-001	-1.60798E-008	0.00000E+000	-1.25600E-001	8.00223E-005	4	..........a	-327.66
	151	0.0304	-1.15530E-001	-1.59608E-008	0.00000E+000	-1.15600E-001	8.00223E-005	4	..........a	-327.66
	152	0.0306	-1.05430E-001	-1.58398E-008	0.00000E+000	-1.05600E-001	8.00223E-005	4	..........a	-327.66
	153	0.0308	-9.55305E-002	-1.57288E-008	0.00000E+000	-9.56000E-002	8.00223E-005	4	..........a	-327.66
	154	0.031	-8.54805E-002	-1.56048E-008	0.00000E+000	-8.56000E-002	8.00223E-005	4	..........a	-327.66
	155	0.0312	-7.55805E-002	-1.54828E-008	0.00000E+000	-7.56000E-002	8.00223E-005	4	..........a	-327.66
	156	0.0314	-6.55305E-002	-1.53638E-008	0.00000E+000	-6.56000E-002	8.00223E-005	4	..........a	-327.66
	157	0.0316	-5.56305E-002	-1.52358E-008	0.00000E+000	-5.56000E-002	8.00223E-005	4	..........a	-327.66
	158	0.0318	-4.55305E-002	-1.51108E-008	0.00000E+000	-4.56000E-002	8.00223E-005	4	..........a	-327.66
	159	0.032	-3.55305E-002	-1.49868E-008	0.00000E+000	-3.56000E-002	8.00223E-005	4	..........a	-327.66
	160	0.0322	-2.55305E-002	-1.48508E-008	0.00000E+000	-2.56000E-002	8.00223E-005	4	..........a	-327.66
	161	0.0324	-1.56305E-002	-1.47198E-008	0.00000E+000	-1.56000E-002	8.00223E-005	4	..........a	-327.66
	162	0.0326	-5.38048E-003	-1.45868E-008	0.00000E+000	-5.60000E-003	8.00223E-005	4	..........a	-327.66
	163	0.0328	4.46952E-003	-1.44528E-008	0.00000E+000	4.40001E-003	8.00223E-005	4	..........a	-327.66
	164	0.033	1.45695E-002	-1.43138E-008	0.00000E+000	1.44000E-002	8.00223E-005	4	..........a	-327.66
	165	0.0332	2.44695E-002	-1.41758E-008	0.00000E+000	2.44000E-002	8.00223E-005	4	..........a	-327.66
	166	0.0334	3.44195E-002	-1.40428E-008	0.00000E+000	3.44000E-002	8.00223E-005	4	..........a	-327.66
	167	0.0336	4.45695E-002	-1.39037E-008	0.00000E+000	4.44000E-002	8.00223E-005	4	..........a	-327.66
	168	0.0338	5.43695E-002	-1.37587E-008	0.00000E+000	5.44000E-002	8.00223E-005	4	..........a	-327.66
	169	0.034	6.44695E-002	-1.36187E-008	0.00000E+000	6.44000E-002	8.00223E-005	4	..........a	-327.66
	170	0.0342	7.45695E-002	-1.34767E-008	0.00000E+000	7.44000E-002	8.00223E-005	4	..........a	-327.66
	171	0.0344	8.45695E-002	-1.33247E-008	0.00000E+000	8.44000E-002	8.00223E-005	4	..........a	-327.66
	172	0.0346	9.44195E-002	-1.31727E-008	0.00000E+000	9.44000E-002	8.00223E-005	4	..........a	-327.66
	173	0.0348	1.04420E-001	-1.30237E-008	0.00000E+000	1.04400E-001	8.00223E-005	4	..........a	-327.66
	174	0.035	1.14470E-001	-1.28747E-008	0.00000E+000	1.14400E-001	8.00223E-005	4	..........a	-327.66
	175	0.0352	1.24470E-001	-1.27197E-008	0.00000E+000	1.24400E-001	8.00223E-005	4	..........a	-327.66
	176	0.0354	1.34470E-001	-1.25657E-008	0.00000E+000	1.34400E-001	8.00223E-005	4	..........a	-327.66
	177	0.0356	1.44470E-001	-1.24037E-008	0.00000E+000	1.44400E-001	8.00223E-005	4	..........a	-327.66
	178	0.0358	1.54470E-001	-1.22387E-008	0.00000E+000	1.54400E-001	8.00223E-005	4	..........a	-327.66
	179	0.036	1.64470E-001	-1.20787E-008	0.00000E+000	1.64400E-001	-4.19978E-004	4	..........a	-327.66
	180	0.0362	1.74570E-001	-1.19197E-008	0.00000E+000	1.74400E-001	8.00223E-005	4	..........a	-327.66
	181	0.0364	1.84470E-001	-1.17487E-008	0.00000E+000	1.84400E-001	8.00223E-005	4	..........a	-327.66
	182	0.0366	1.94170E-001	-1.15797E-008	0.00000E+000	1.94400E-001	8.00223E-005	4	..........a	-327.66
	183	0.0368	2.04320E-001	-1.14057E-008	0.00000E+000	2.04400E-001	8.00223E-005	4	..........a	-327.66
	184	0.037	2.14470E-001	-1.12316E-008	0.00000E+000	2.14400E-001	8.00223E-005	4	..........a	-327.66
	185	0.0372	2.24570E-001	-1.10526E-008	0.00000E+000	2.24400E-001	8.00223E-005	4	..........a	-327.66
	186	0.0374	2.34470E-001	-1.08766E-008	0.00000E+000	2.34400E-001	8.00223E-005	4	..........a	-327.66
	187	0.0376	2.44370E-001	-1.06986E-008	0.00000E+000	2.44400E-001	8.00223E-005	4	..........a	-327.66
	188	0.0378	2.54520E-001	-1.05106E-008	0.00000E+000	2.54400E-001	8.00223E-005	4	..........a	-327.66
	189	0.038	2.64470E-001	-1.03276E-008	0.00000E+000	2.64400E-001	8.00223E-005	4	..........a	-327.66
	190	0.0382	2.74470E-001	-1.01376E-008	0.00000E+000	2.74400E-001	8.00223E-005	4	..........a	-327.66
	191	0.0384	2.84470E-001	-9.94959E-009	0.00000E+000	2.84400E-001	8.00223E-005	4	..........a	-327.66
	192	0.0386	2.94470E-001	-9.75859E-009	0.00000E+000	2.94400E-001	8.00223E-005	4	..........a	-327.66
	193	0.0388	3.04370E-001	-9.55658E-009	0.00000E+000	3.04400E-001	8.00223E-005	4	..........a	-327.66
	194	0.039	3.14470E-001	-9.35557E-009	0.00000E+000	3.14400E-001	8.00223E-005	4	..........a	-327.66
	195	0.0392	3.24470E-001	-9.15656E-009	0.00000E+000	3.24400E-001	-4.19978E-004	4	..........a	-327.66
	196	0.0394	3.34270E-001	-8.95456E-009	0.00000E+000	3.34400E-001	8.00223E-005	4	..........a	-327.66
	197	0.0396	3.44470E-001	-8.75055E-009	0.00000E+000	3.44400E-001	8.00223E-005	4	..........a	-327.66
	198	0.0398	3.54470E-001	-8.53854E-009	0.00000E+000	3.54400E-001	-3.19978E-004	4	..........a	-327.66
	199	0.04	3.64620E-001	-8.32653E-009	0.00000E+000	3.64400E-001	8.00223E-005	4	..........a	-327.66
	200	0.0402	3.74520E-001	-8.12252E-009	0.00000E+000	3.74400E-001	8.00223E-005	4	..........a	-327.66
	201	0.0404	3.84220E-001	-7.90352E-009	0.00000E+000	3.84400E-001	8.00223E-005	4	..........a	-327.66
	202	0.0406	3.94470E-001	-7.68851E-009	0.00000E+000	3.94400E-001	-3.19978E-004	4	..........a	-327.66
	203	0.0408	4.04470E-001	-7.47050E-009	0.00000E+000	4.04400E-001	8.00223E-005	4	..........a	-327.66
	204	0.041	4.14320E-001	-7.25049E-009	0.00000E+000	4.14400E-001	8.00223E-005	4	..........a	-327.66
	205	0.0412	4.24020E-001	-7.02448E-009	0.00000E+000	4.24400E-001	8.00223E-005	4	..........a	-327.66
	206	0.0414	4.34470E-001	-6.80347E-009	0.00000E+000	4.34400E-001	8.00223E-005	4	..........a	-327.66
	207	0.0416	4.44470E-001	-6.57446E-009	0.00000E+000	4.44400E-001	8.00223E-005	4	..........a	-327.66
	208	0.0418	4.54270E-001	-6.34746E-009	0.00000E+000	4.54400E-001	8.00223E-005	4	..........a	-327.66
	209	0.042	4.64370E-001	-6.11845E-009	0.00000E+000	4.64400E-001	8.00223E-005	4	..........a	-327.66
	210	0.0422	4.74620E-001	-5.88444E-009	0.00000E+000	4.74400E-001	8.00223E-005	4	..........a	-327.66
	211	0.0424	4.84370E-001	-5.64643E-009	0.00000E+000	4.84400E-001	8.00223E-005	4	..........a	-327.66
	212	0.0426	4.94370E-001	-5.41642E-009	0.00000E+000	4.94400E-001	8.00223E-005	4	..........a	-327.66
	213	0.0428	5.04369E-001	-5.17641E-009	0.00000E+000	5.04400E-001	8.00223E-005	4	..........a	-327.66
	214	0.043	5.14470E-001	-4.92840E-009	0.00000E+000	5.14400E-001	8.00223E-005	4	..........a	-327.66
	215	0.0432	5.24369E-001	-4.68039E-009	0.00000E+000	5.24400E-001	8.00223E-005	4	..........a	-327.66
	216	0.0434	5.34570E-001	-4.43538E-009	0.00000E+000	5.34400E-001	8.00223E-005	4	..........a	-327.66
	217	0.0436	5.44369E-001	-4.18437E-009	0.00000E+000	5.44400E-001	8.00223E-005	4	..........a	-327.66
	218	0.0438	5.54469E-001	-3.93436E-009	0.00000E+000	5.54400E-001	8.00223E-005	4	..........a	-327.66
	219	0.044	5.64369E-001	-3.67635E-009	0.00000E+000	5.64400E-001	8.00223E-005	4	..........a	-327.66
	220	0.0442	5.74369E-001	-3.41534E-009	0.00000E+000	5.74400E-001	8.00223E-005	4	..........a	-327.66
	221	0.0444	5.84369E-001	-3.15633E-009	0.00000E+000	5.84400E-001	8.00223E-005	4	..........a	-327.66
	222	0.0446	5.94269E-001	-2.89032E-009	0.00000E+000	5.94400E-001	8.00223E-005	4	..........a	-327.66
	223	0.0448	6.04369E-001	-2.62531E-009	0.00000E+000	6.04400E-001	8.00223E-005	4	..........a	-327.66
	224	0.045	6.14469E-001	-2.35530E-009	0.00000E+000	6.14400E-001	8.00223E-005	4	..........a	-327.66
	225	0.0452	6.24370E-001	-2.08629E-009	0.00000E+000	6.24400E-001	8.00223E-005	4	..........a	-327.66
	226	0.0454	6.34269E-001	-1.81628E-009	0.00000E+000	6.34400E-001	8.00223E-005	4	..........a	-327.66
	227	0.0456	6.44369E-001	-1.52827E-009	0.00000E+000	6.44400E-001	8.00223E-005	4	..........a	-327.66
	228	0.0458	6.54269E-001	-1.24726E-009	0.00000E+000	6.54400E-001	8.00223E-005	4	..........a	-327.66
	229	0.046	6.64169E-001	-9.62249E-010	0.00000E+000	6.64400E-001	8.00223E-005	4	..........a	-327.66
	230	0.0462	6.74169E-001	-6.72238E-010	0.00000E+000	6.74400E-001	8.00223E-005	4	..........a	-327.66
	231	0.0464	6.84269E-001	-3.80227E-010	0.00000E+000	6.84400E-001	8.00223E-005	4	..........a	-327.66
	232	0.0466	6.94169E-001	-8.72157E-011	0.00000E+000	6.94400E-001	8.00223E-005	4	..........a	-327.66
	233	0.0468	7.04369E-001	2.11796E-010	0.00000E+000	7.04400E-001	8.00223E-005	4	..........a	-327.66
	234	0.047	7.14170E-001	5.19808E-010	0.00000E+000	7.14400E-001	8.00223E-005	4	..........a	-327.66
	235	0.0472	7.24369E-001	8.27819E-010	0.00000E+000	7.24400E-001	8.00223E-005	4	..........a	-327.66
	236	0.0474	7.34169E-001	1.13583E-009	0.00000E+000	7.34400E-001	8.00223E-005	4	..........a	-327.66
	237	0.0476	7.44319E-001	1.45384E-009	0.00000E+000	7.44400E-001	8.00223E-005	4	..........a	-327.66
	238	0.0478	7.54269E-001	1.77386E-009	0.00000E+000	7.54400E-001	8.00223E-005	4	..........a	-327.66
	239	0.048	7.64369E-001	2.09787E-009	0.00000E+000	7.64400E-001	8.00223E-005	4	..........a	-327.66
	240	0.0482	7.74119E-001	2.43288E-009	0.00000E+000	7.74400E-001	8.00223E-005	4	..........a	-327.66
	241	0.0484	7.84369E-001	2.76589E-009	0.00000E+000	7.84400E-001	8.00223E-005	4	..........a	-327.66
	242	0.0486	7.94469E-001	3.10591E-009	0.00000E+000	7.94400E-001	8.00223E-005	4	..........a	-327.66
	243	0.0488	8.04269E-001	3.45192E-009	0.00000E+000	8.04400E-001	8.00223E-005	4	..........a	-327.66
CURVE2	TABLE
	Pt	T	Vf	Im	Vu	Sig	Ach	IERange	Over	Temp
	#	s	V vs. Ref.	A	V	V	V	#	bits	deg C
	244	0.049	7.89869E-001	3.61993E-009	0.00000E+000	7.90000E-001	8.00223E-005	4	..........a	-327.66
	245	0.0492	7.79969E-001	3.75393E-009	0.00000E+000	7.80000E-001	8.00223E-005	4	..........a	-327.66
	246	0.0494	7.69969E-001	3.85794E-009	0.00000E+000	7.70000E-001	8.00223E-005	4	..........a	-327.66
	247	0.0496	7.59869E-001	3.93994E-009	0.00000E+000	7.60000E-001	8.00223E-005	4	..........a	-327.66
	248	0.0498	7.49969E-001	4.00094E-009	0.00000E+000	7.50000E-001	8.00223E-005	4	..........a	-327.66
	249	0.05	7.39869E-001	4.04794E-009	0.00000E+000	7.40000E-001	8.00223E-005	4	..........a	-327.66
	250	0.0502	7.29869E-001	4.07494E-009	0.00000E+000	7.30000E-001	8.00223E-005	4	..........a	-327.66
	251	0.0504	7.19769E-001	4.09294E-009	0.00000E+000	7.20000E-001	-3.19978E-004	4	..........a	-327.66
	252	0.0506	7.09870E-001	4.10395E-009	0.00000E+000	7.10000E-001	8.00223E-005	4	..........a	-327.66
	253	0.0508	6.99869E-001	4.10195E-009	0.00000E+000	7.00000E-001	8.00223E-005	4	..........a	-327.66
	254	0.051	6.89969E-001	4.09695E-009	0.00000E+000	6.90000E-001	8.00223E-005	4	..........a	-327.66
	255	0.0512	6.79869E-001	4.07694E-009	0.00000E+000	6.80000E-001	8.00223E-005	4	..........a	-327.66
	256	0.0514	6.69969E-001	4.05694E-009	0.00000E+000	6.70000E-001	8.00223E-005	4	..........a	-327.66
	257	0.0516	6.59769E-001	4.02794E-009	0.00000E+000	6.60000E-001	8.00223E-005	4	..........a	-327.66
	258	0.0518	6.49969E-001	3.99394E-009	0.00000E+000	6.50000E-001	8.00223E-005	4	..........a	-327.66
	259	0.052	6.39870E-001	3.96094E-009	0.00000E+000	6.40000E-001	8.00223E-005	4	..........a	-327.66
	260	0.0522	6.29969E-001	3.91694E-009	0.00000E+000	6.30000E-001	8.00223E-005	4	..........a	-327.66
	261	0.0524	6.19769E-001	3.87294E-009	0.00000E+000	6.20000E-001	8.00223E-005	4	..........a	-327.66
	262	0.0526	6.09670E-001	3.82293E-009	0.00000E+000	6.10000E-001	8.00223E-005	4	..........a	-327.66
	263	0.0528	5.99869E-001	3.77193E-009	0.00000E+000	6.00000E-001	8.00223E-005	4	..........a	-327.66
	264	0.053	5.89969E-001	3.71593E-009	0.00000E+000	5.90000E-001	8.00223E-005	4	..........a	-327.66
	265	0.0532	5.80169E-001	3.65793E-009	0.00000E+000	5.80000E-001	-3.19978E-004	4	..........a	-327.66
	266	0.0534	5.69969E-001	3.59793E-009	0.00000E+000	5.70000E-001	8.00223E-005	4	..........a	-327.66
	267	0.0536	5.59869E-001	3.53092E-009	0.00000E+000	5.60000E-001	8.00223E-005	4	..........a	-327.66
	268	0.0538	5.50070E-001	3.46592E-009	0.00000E+000	5.50000E-001	8.00223E-005	4	..........a	-327.66
	269	0.054	5.40069E-001	3.39492E-009	0.00000E+000	5.40000E-001	8.00223E-005	4	..........a	-327.66
	270	0.0542	5.29769E-001	3.32191E-009	0.00000E+000	5.30000E-001	8.00223E-005	4	..........a	-327.66
	271	0.0544	5.19870E-001	3.24391E-009	0.00000E+000	5.20000E-001	8.00223E-005	4	..........a	-327.66
	272	0.0546	5.09969E-001	3.16391E-009	0.00000E+000	5.10000E-001	8.00223E-005	4	..........a	-327.66
	273	0.0548	5.00069E-001	3.08391E-009	0.00000E+000	5.00000E-001	-2.19978E-004	4	..........a	-327.66
	274	0.055	4.89870E-001	3.00190E-009	0.00000E+000	4.90000E-001	8.00223E-005	4	..........a	-327.66
	275	0.0552	4.79970E-001	2.91690E-009	0.00000E+000	4.80000E-001	8.00223E-005	4	..........a	-327.66
	276	0.0554	4.69970E-001	2.82390E-009	0.00000E+000	4.70000E-001	8.00223E-005	4	..........a	-327.66
	277	0.0556	4.59870E-001	2.73189E-009	0.00000E+000	4.60000E-001	8.00223E-005	4	..........a	-327.66
	278	0.0558	4.49670E-001	2.63889E-009	0.00000E+000	4.50000E-001	-2.19978E-004	4	..........a	-327.66
	279	0.056	4.39870E-001	2.53989E-009	0.00000E+000	4.40000E-001	8.00223E-005	4	..........a	-327.66
	280	0.0562	4.29870E-001	2.44088E-009	0.00000E+000	4.30000E-001	8.00223E-005	4	..........a	-327.66
	281	0.0564	4.19970E-001	2.33588E-009	0.00000E+000	4.20000E-001	8.00223E-005	4	..........a	-327.66
	282	0.0566	4.09870E-001	2.23187E-009	0.00000E+000	4.10000E-001	8.00223E-005	4	..........a	-327.66
	283	0.0568	3.99870E-001	2.11987E-009	0.00000E+000	4.00000E-001	8.00223E-005	4	..........a	-327.66
	284	0.057	3.89870E-001	2.00986E-009	0.00000E+000	3.90000E-001	8.00223E-005	4	..........a	-327.66
	285	0.0572	3.80070E-001	1.89186E-009	0.00000E+000	3.80000E-001	8.00223E-005	4	..........a	-327.66
	286	0.0574	3.69770E-001	1.77686E-009	0.00000E+000	3.70000E-001	8.00223E-005	4	..........a	-327.66
	287	0.0576	3.59870E-001	1.65085E-009	0.00000E+000	3.60000E-001	8.00223E-005	4	..........a	-327.66
	288	0.0578	3.50070E-001	1.52985E-009	0.00000E+000	3.50000E-001	8.00223E-005	4	..........a	-327.66
	289	0.058	3.40170E-001	1.40284E-009	0.00000E+000	3.40000E-001	8.00223E-005	4	..........a	-327.66
	290	0.0582	3.30070E-001	1.26584E-009	0.00000E+000	3.30000E-001	8.00223E-005	4	..........a	-327.66
	291	0.0584	3.19970E-001	1.12983E-009	0.00000E+000	3.20000E-001	8.00223E-005	4	..........a	-327.66
	292	0.0586	3.10070E-001	9.92826E-010	0.00000E+000	3.10000E-001	8.00223E-005	4	..........a	-327.66
	293	0.0588	3.00170E-001	8.49820E-010	0.00000E+000	3.00000E-001	-2.19978E-004	4	..........a	-327.66
	294	0.059	2.89970E-001	7.08815E-010	0.00000E+000	2.90000E-001	8.00223E-005	4	..........a	-327.66
	295	0.0592	2.79870E-001	5.56809E-010	0.00000E+000	2.80000E-001	8.00223E-005	4	..........a	-327.66
	296	0.0594	2.69970E-001	4.05803E-010	0.00000E+000	2.70000E-001	8.00223E-005	4	..........a	-327.66
	297	0.0596	2.60270E-001	2.48797E-010	0.00000E+000	2.60000E-001	8.00223E-005	4	..........a	-327.66
	298	0.0598	2.49870E-001	8.97911E-011	0.00000E+000	2.50000E-001	-3.19978E-004	4	..........a	-327.66
	299	0.06	2.39870E-001	-7.42152E-011	0.00000E+000	2.40000E-001	8.00223E-005	4	..........a	-327.66
	300	0.0602	2.29870E-001	-2.42222E-010	0.00000E+000	2.30000E-001	-4.19978E-004	4	..........a	-327.66
	301	0.0604	2.20170E-001	-4.10228E-010	0.00000E+000	2.20000E-001	8.00223E-005	4	..........a	-327.66
	302	0.0606	2.09870E-001	-5.84235E-010	0.00000E+000	2.10000E-001	8.00223E-005	4	..........a	-327.66
	303	0.0608	2.00170E-001	-7.61242E-010	0.00000E+000	2.00000E-001	8.00223E-005	4	..........a	-327.66
	304	0.061	1.90070E-001	-9.38248E-010	0.00000E+000	1.90000E-001	8.00223E-005	4	..........a	-327.66
	305	0.0612	1.79870E-001	-1.12226E-009	0.00000E+000	1.80000E-001	-2.19978E-004	4	..........a	-327.66
	306	0.0614	1.69970E-001	-1.31626E-009	0.00000E+000	1.70000E-001	8.00223E-005	4	..........a	-327.66
	307	0.0616	1.59970E-001	-1.49627E-009	0.00000E+000	1.60000E-001	8.00223E-005	4	..........a	-327.66
	308	0.0618	1.49870E-001	-1.69028E-009	0.00000E+000	1.50000E-001	8.00223E-005	4	..........a	-327.66
	309	0.062	1.40070E-001	-1.88228E-009	0.00000E+000	1.40000E-001	8.00223E-005	4	..........a	-327.66
	310	0.0622	1.30070E-001	-2.07929E-009	0.00000E+000	1.30000E-001	8.00223E-005	4	..........a	-327.66
	311	0.0624	1.20170E-001	-2.27730E-009	0.00000E+000	1.20000E-001	8.00223E-005	4	..........a	-327.66
	312	0.0626	1.10070E-001	-2.47431E-009	0.00000E+000	1.10000E-001	8.00223E-005	4	..........a	-327.66
	313	0.0628	1.00170E-001	-2.67131E-009	0.00000E+000	1.00000E-001	-3.19978E-004	4	..........a	-327.66
	314	0.063	9.00695E-002	-2.87432E-009	0.00000E+000	9.00000E-002	8.00223E-005	4	..........a	-327.66
	315	0.0632	8.00695E-002	-3.07933E-009	0.00000E+000	8.00000E-002	8.00223E-005	4	..........a	-327.66
	316	0.0634	6.98695E-002	-3.28434E-009	0.00000E+000	7.00000E-002	8.00223E-005	4	..........a	-327.66
	317	0.0636	6.01695E-002	-3.48435E-009	0.00000E+000	6.00000E-002	8.00223E-005	4	..........a	-327.66
	318	0.0638	5.00695E-002	-3.68835E-009	0.00000E+000	5.00000E-002	8.00223E-005	4	..........a	-327.66
	319	0.064	3.99695E-002	-3.88836E-009	0.00000E+000	4.00000E-002	8.00223E-005	4	..........a	-327.66
	320	0.0642	2.99695E-002	-4.08937E-009	0.00000E+000	3.00000E-002	8.00223E-005	4	..........a	-327.66
	321	0.0644	1.99695E-002	-4.29738E-009	0.00000E+000	2.00000E-002	8.00223E-005	4	..........a	-327.66
	322	0.0646	1.00695E-002	-4.49538E-009	0.00000E+000	1.00000E-002	8.00223E-005	4	..........a	-327.66
	323	0.0648	1.69519E-004	-4.69239E-009	0.00000E+000	7.45058E-009	8.00223E-005	4	..........a	-327.66
	324	0.065	-1.00305E-002	-4.90040E-009	0.00000E+000	-1.00000E-002	8.00223E-005	4	..........a	-327.66
	325	0.0652	-1.99305E-002	-5.09441E-009	0.00000E+000	-2.00000E-002	8.00223E-005	4	..........a	-327.66
	326	0.0654	-3.00305E-002	-5.29242E-009	0.00000E+000	-3.00000E-002	8.00223E-005	4	..........a	-327.66
	327	0.0656	-3.99305E-002	-5.48142E-009	0.00000E+000	-4.00000E-002	8.00223E-005	4	..........a	-327.66
	328	0.0658	-4.99305E-002	-5.67843E-009	0.00000E+000	-5.00000E-002	8.00223E-005	4	..........a	-327.66
	329	0.066	-5.98305E-002	-5.86944E-009	0.00000E+000	-6.00000E-002	8.00223E-005	4	..........a	-327.66
	330	0.0662	-6.99305E-002	-6.06245E-009	0.00000E+000	-7.00000E-002	8.00223E-005	4	..........a	-327.66
	331	0.0664	-8.01305E-002	-6.25245E-009	0.00000E+000	-8.00000E-002	8.00223E-005	4	..........a	-327.66
	332	0.0666	-8.99305E-002	-6.43846E-009	0.00000E+000	-9.00000E-002	8.00223E-005	4	..........a	-327.66
	333	0.0668	-9.99305E-002	-6.62647E-009	0.00000E+000	-1.00000E-001	8.00223E-005	4	..........a	-327.66
	334	0.067	-1.10030E-001	-6.81047E-009	0.00000E+000	-1.10000E-001	8.00223E-005	4	..........a	-327.66
	335	0.0672	-1.19930E-001	-6.99448E-009	0.00000E+000	-1.20000E-001	8.00223E-005	4	..........a	-327.66
	336	0.0674	-1.29830E-001	-7.17849E-009	0.00000E+000	-1.30000E-001	8.00223E-005	4	..........a	-327.66
	337	0.0676	-1.39730E-001	-7.35649E-009	0.00000E+000	-1.40000E-001	8.00223E-005	4	..........a	-327.66
	338	0.0678	-1.50030E-001	-7.53850E-009	0.00000E+000	-1.50000E-001	8.00223E-005	4	..........a	-327.66
	339	0.068	-1.59930E-001	-7.71651E-009	0.00000E+000	-1.60000E-001	8.00223E-005	4	..........a	-327.66
	340	0.0682	-1.69930E-001	-7.89152E-009	0.00000E+000	-1.70000E-001	8.00223E-005	4	..........a	-327.66
	341	0.0684	-1.79830E-001	-8.06352E-009	0.00000E+000	-1.80000E-001	8.00223E-005	4	..........a	-327.66
	342	0.0686	-1.89930E-001	-8.24253E-009	0.00000E+000	-1.90000E-001	8.00223E-005	4	..........a	-327.66
	343	0.0688	-2.00030E-001	-8.41654E-009	0.00000E+000	-2.00000E-001	8.00223E-005	4	..........a	-327.66
	344	0.069	-2.09930E-001	-8.59254E-009	0.00000E+000	-2.10000E-001	8.00223E-005	4	..........a	-327.66
[...]
	2605	0.5212	-4.19730E-001	-6.44846E-009	0.00000E+000	-4.20000E-001	8.00223E-005	4	..........a	-327.66
	2606	0.5214	-4.29930E-001	-6.61347E-009	0.00000E+000	-4.30000E-001	8.00223E-005	4	..........a	-327.66
	2607	0.5216	-4.39830E-001	-6.78047E-009	0.00000E+000	-4.40000E-001	8.00223E-005	4	..........a	-327.66
	2608	0.5218	-4.49930E-001	-6.95048E-009	0.00000E+000	-4.50000E-001	8.00223E-005	4	..........a	-327.66
	2609	0.522	-4.59730E-001	-7.12049E-009	0.00000E+000	-4.60000E-001	8.00223E-005	4	..........a	-327.66
	2610	0.5222	-4.69930E-001	-7.28849E-009	0.00000E+000	-4.70000E-001	8.00223E-005	4	..........a	-327.66
	2611	0.5224	-4.79730E-001	-7.46050E-009	0.00000E+000	-4.80000E-001	8.00223E-005	4	..........a	-327.66
	2612	0.5226	-4.89930E-001	-7.63051E-009	0.00000E+000	-4.90000E-001	8.00223E-005	4	..........a	-327.66
	2613	0.5228	-4.99830E-001	-7.80651E-009	0.00000E+000	-5.00000E-001	8.00223E-005	4	..........a	-327.66
	2614	0.523	-5.09930E-001	-7.98052E-009	0.00000E+000	-5.10000E-001	8.00223E-005	4	..........a	-327.66
	2615	0.5232	-5.19830E-001	-8.16253E-009	0.00000E+000	-5.20000E-001	8.00223E-005	4	..........a	-327.66
	2616	0.5234	-5.29930E-001	-8.34153E-009	0.00000E+000	-5.30000E-001	8.00223E-005	4	..........a	-327.66
	2617	0.5236	-5.39630E-001	-8.52254E-009	0.00000E+000	-5.40000E-001	8.00223E-005	4	..........a	-327.66
	2618	0.5238	-5.50030E-001	-8.71055E-009	0.00000E+000	-5.50000E-001	-3.19978E-004	4	..........a	-327.66
	2619	0.524	-5.60030E-001	-8.89355E-009	0.00000E+000	-5.60000E-001	8.00223E-005	4	..........a	-327.66
	2620	0.5242	-5.69830E-001	-9.08656E-009	0.00000E+000	-5.70000E-001	8.00223E-005	4	..........a	-327.66
	2621	0.5244	-5.79930E-001	-9.27457E-009	0.00000E+000	-5.80000E-001	8.00223E-005	4	..........a	-327.66
	2622	0.5246	-5.89930E-001	-9.47158E-009	0.00000E+000	-5.90000E-001	8.00223E-005	4	..........a	-327.66
	2623	0.5248	-5.99930E-001	-9.66858E-009	0.00000E+000	-6.00000E-001	8.00223E-005	4	..........a	-327.66
	2624	0.525	-5.89930E-001	-9.73559E-009	0.00000E+000	-5.90000E-001	8.00223E-005	4	..........a	-327.66
	2625	0.5252	-5.79930E-001	-9.77459E-009	0.00000E+000	-5.80000E-001	-4.19978E-004	4	..........a	-327.66
	2626	0.5254	-5.69930E-001	-9.80359E-009	0.00000E+000	-5.70000E-001	8.00223E-005	4	..........a	-327.66
	2627	0.5256	-5.59931E-001	-9.81359E-009	0.00000E+000	-5.60000E-001	8.00223E-005	4	..........a	-327.66
	2628	0.5258	-5.49931E-001	-9.82159E-009	0.00000E+000	-5.50000E-001	8.00223E-005	4	..........a	-327.66
	2629	0.526	-5.39831E-001	-9.81259E-009	0.00000E+000	-5.40000E-001	8.00223E-005	4	..........a	-327.66
	2630	0.5262	-5.29930E-001	-9.80759E-009	0.00000E+000	-5.30000E-001	-3.19978E-004	4	..........a	-327.66
	2631	0.5264	-5.19880E-001	-9.79259E-009	0.00000E+000	-5.20000E-001	8.00223E-005	4	..........a	-327.66
	2632	0.5266	-5.09930E-001	-9.77159E-009	0.00000E+000	-5.10000E-001	8.00223E-005	4	..........a	-327.66
	2633	0.5268	-4.99930E-001	-9.74259E-009	0.00000E+000	-5.00000E-001	8.00223E-005	4	..........a	-327.66
	2634	0.527	-4.89930E-001	-9.71459E-009	0.00000E+000	-4.90000E-001	8.00223E-005	4	..........a	-327.66
	2635	0.5272	-4.79930E-001	-9.68258E-009	0.00000E+000	-4.80000E-001	8.00223E-005	4	..........a	-327.66
	2636	0.5274	-4.69930E-001	-9.64258E-009	0.00000E+000	-4.70000E-001	8.00223E-005	4	..........a	-327.66
	2637	0.5276	-4.59830E-001	-9.60258E-009	0.00000E+000	-4.60000E-001	8.00223E-005	4	..........a	-327.66
	2638	0.5278	-4.49930E-001	-9.56058E-009	0.00000E+000	-4.50000E-001	8.00223E-005	4	..........a	-327.66
	2639	0.528	-4.39830E-001	-9.51458E-009	0.00000E+000	-4.40000E-001	8.00223E-005	4	..........a	-327.66
	2640	0.5282	-4.29830E-001	-9.46158E-009	0.00000E+000	-4.30000E-001	8.00223E-005	4	..........a	-327.66
	2641	0.5284	-4.19730E-001	-9.41257E-009	0.00000E+000	-4.20000E-001	8.00223E-005	4	..........a	-327.66
	2642	0.5286	-4.09930E-001	-9.35857E-009	0.00000E+000	-4.10000E-001	8.00223E-005	4	..........a	-327.66
	2643	0.5288	-3.99830E-001	-9.30257E-009	0.00000E+000	-4.00000E-001	8.00223E-005	4	..........a	-327.66
	2644	0.529	-3.89930E-001	-9.24857E-009	0.00000E+000	-3.90000E-001	8.00223E-005	4	..........a	-327.66
	2645	0.5292	-3.79930E-001	-9.18657E-009	0.00000E+000	-3.80000E-001	8.00223E-005	4	..........a	-327.66
	2646	0.5294	-3.69930E-001	-9.12456E-009	0.00000E+000	-3.70000E-001	8.00223E-005	4	..........a	-327.66
	2647	0.5296	-3.59930E-001	-9.05456E-009	0.00000E+000	-3.60000E-001	8.00223E-005	4	..........a	-327.66
	2648	0.5298	-3.49930E-001	-8.99456E-009	0.00000E+000	-3.50000E-001	8.00223E-005	4	..........a	-327.66
	2649	0.53	-3.39730E-001	-8.92356E-009	0.00000E+000	-3.40000E-001	8.00223E-005	4	..........a	-327.66
	2650	0.5302	-3.30030E-001	-8.85255E-009	0.00000E+000	-3.30000E-001	8.00223E-005	4	..........a	-327.66
	2651	0.5304	-3.19530E-001	-8.78255E-009	0.00000E+000	-3.20000E-001	8.00223E-005	4	..........a	-327.66
	2652	0.5306	-3.09930E-001	-8.71055E-009	0.00000E+000	-3.10000E-001	8.00223E-005	4	..........a	-327.66
	2653	0.5308	-2.99830E-001	-8.63654E-009	0.00000E+000	-3.00000E-001	8.00223E-005	4	..........a	-327.66
	2654	0.531	-2.89930E-001	-8.55854E-009	0.00000E+000	-2.90000E-001	8.00223E-005	4	..........a	-327.66
	2655	0.5312	-2.80030E-001	-8.48254E-009	0.00000E+000	-2.80000E-001	8.00223E-005	4	..........a	-327.66
	2656	0.5314	-2.69930E-001	-8.40054E-009	0.00000E+000	-2.70000E-001	8.00223E-005	4	..........a	-327.66
	2657	0.5316	-2.59730E-001	-8.31753E-009	0.00000E+000	-2.60000E-001	8.00223E-005	4	..........a	-327.66
	2658	0.5318	-2.49930E-001	-8.24253E-009	0.00000E+000	-2.50000E-001	8.00223E-005	4	..........a	-327.66
	2659	0.532	-2.39930E-001	-8.15453E-009	0.00000E+000	-2.40000E-001	8.00223E-005	4	..........a	-327.66
	2660	0.5322	-2.29930E-001	-8.06352E-009	0.00000E+000	-2.30000E-001	8.00223E-005	4	..........a	-327.66
	2661	0.5324	-2.20030E-001	-7.98052E-009	0.00000E+000	-2.20000E-001	8.00223E-005	4	..........a	-327.66
	2662	0.5326	-2.09830E-001	-7.89252E-009	0.00000E+000	-2.10000E-001	8.00223E-005	4	..........a	-327.66
	2663	0.5328	-2.00030E-001	-7.80151E-009	0.00000E+000	-2.00000E-001	8.00223E-005	4	..........a	-327.66
	2664	0.533	-1.89930E-001	-7.71451E-009	0.00000E+000	-1.90000E-001	8.00223E-005	4	..........a	-327.66
	2665	0.5332	-1.79880E-001	-7.61750E-009	0.00000E+000	-1.80000E-001	-1.19978E-004	4	..........a	-327.66
	2666	0.5334	-1.69930E-001	-7.52050E-009	0.00000E+000	-1.70000E-001	8.00223E-005	4	..........a	-327.66
	2667	0.5336	-1.60030E-001	-7.43150E-009	0.00000E+000	-1.60000E-001	8.00223E-005	4	..........a	-327.66
	2668	0.5338	-1.49930E-001	-7.33549E-009	0.00000E+000	-1.50000E-001	8.00223E-005	4	..........a	-327.66
	2669	0.534	-1.40130E-001	-7.23849E-009	0.00000E+000	-1.40000E-001	-1.19978E-004	4	..........a	-327.66
	2670	0.5342	-1.29930E-001	-7.13549E-009	0.00000E+000	-1.30000E-001	8.00223E-005	4	..........a	-327.66
	2671	0.5344	-1.20030E-001	-7.04348E-009	0.00000E+000	-1.20000E-001	8.00223E-005	4	..........a	-327.66
	2672	0.5346	-1.10030E-001	-6.94648E-009	0.00000E+000	-1.10000E-001	8.00223E-005	4	..........a	-327.66
	2673	0.5348	-9.98305E-002	-6.84048E-009	0.00000E+000	-1.00000E-001	8.00223E-005	4	..........a	-327.66
	2674	0.535	-9.00305E-002	-6.73847E-009	0.00000E+000	-9.00000E-002	8.00223E-005	4	..........a	-327.66
	2675	0.5352	-7.99305E-002	-6.63147E-009	0.00000E+000	-8.00000E-002	8.00223E-005	4	..........a	-327.66
	2676	0.5354	-6.99305E-002	-6.53046E-009	0.00000E+000	-7.00000E-002	8.00223E-005	4	..........a	-327.66
	2677	0.5356	-5.97805E-002	-6.42846E-009	0.00000E+000	-6.00000E-002	8.00223E-005	4	..........a	-327.66
	2678	0.5358	-4.99305E-002	-6.31645E-009	0.00000E+000	-5.00000E-002	8.00223E-005	4	..........a	-327.66
	2679	0.536	-3.99305E-002	-6.20345E-009	0.00000E+000	-4.00000E-002	8.00223E-005	4	..........a	-327.66
	2680	0.5362	-2.99305E-002	-6.09445E-009	0.00000E+000	-3.00000E-002	8.00223E-005	4	..........a	-327.66
	2681	0.5364	-1.97305E-002	-5.98044E-009	0.00000E+000	-2.00000E-002	8.00223E-005	4	..........a	-327.66
	2682	0.5366	-9.93048E-003	-5.86844E-009	0.00000E+000	-1.00000E-002	8.00223E-005	4	..........a	-327.66
	2683	0.5368	-3.04808E-005	-5.75443E-009	0.00000E+000	7.45058E-009	8.00223E-005	4	..........a	-327.66
	2684	0.537	1.00695E-002	-5.63943E-009	0.00000E+000	1.00000E-002	8.00223E-005	4	..........a	-327.66
	2685	0.5372	1.98195E-002	-5.51842E-009	0.00000E+000	2.00000E-002	8.00223E-005	4	..........a	-327.66
	2686	0.5374	2.99195E-002	-5.40342E-009	0.00000E+000	3.00000E-002	8.00223E-005	4	..........a	-327.66
	2687	0.5376	4.02695E-002	-5.27842E-009	0.00000E+000	4.00000E-002	8.00223E-005	4	..........a	-327.66
	2688	0.5378	4.99695E-002	-5.15841E-009	0.00000E+000	5.00000E-002	8.00223E-005	4	..........a	-327.66
	2689	0.538	6.00695E-002	-5.03841E-009	0.00000E+000	6.00000E-002	8.00223E-005	4	..........a	-327.66
	2690	0.5382	6.99695E-002	-4.91440E-009	0.00000E+000	7.00000E-002	8.00223E-005	4	..........a	-327.66
	2691	0.5384	7.98695E-002	-4.78340E-009	0.00000E+000	8.00000E-002	8.00223E-005	4	..........a	-327.66
	2692	0.5386	9.00695E-002	-4.65439E-009	0.00000E+000	9.00000E-002	8.00223E-005	4	..........a	-327.66
	2693	0.5388	1.00170E-001	-4.52439E-009	0.00000E+000	1.00000E-001	8.00223E-005	4	..........a	-327.66
	2694	0.539	1.09970E-001	-4.39238E-009	0.00000E+000	1.10000E-001	8.00223E-005	4	..........a	-327.66
	2695	0.5392	1.20270E-001	-4.25838E-009	0.00000E+000	1.20000E-001	8.00223E-005	4	..........a	-327.66
	2696	0.5394	1.29870E-001	-4.11737E-009	0.00000E+000	1.30000E-001	8.00223E-005	4	..........a	-327.66
	2697	0.5396	1.40170E-001	-3.97737E-009	0.00000E+000	1.40000E-001	8.00223E-005	4	..........a	-327.66
	2698	0.5398	1.50020E-001	-3.83936E-009	0.00000E+000	1.50000E-001	8.00223E-005	4	..........a	-327.66
	2699	0.54	1.60070E-001	-3.69535E-009	0.00000E+000	1.60000E-001	-3.19978E-004	4	..........a	-327.66
	2700	0.5402	1.69970E-001	-3.55035E-009	0.00000E+000	1.70000E-001	-2.19978E-004	4	..........a	-327.66
	2701	0.5404	1.80270E-001	-3.40234E-009	0.00000E+000	1.80000E-001	8.00223E-005	4	..........a	-327.66
	2702	0.5406	1.90070E-001	-3.25334E-009	0.00000E+000	1.90000E-001	8.00223E-005	4	..........a	-327.66
	2703	0.5408	2.00070E-001	-3.10833E-009	0.00000E+000	2.00000E-001	8.00223E-005	4	..........a	-327.66
	2704	0.541	2.10070E-001	-2.94433E-009	0.00000E+000	2.10000E-001	8.00223E-005	4	..........a	-327.66
	2705	0.5412	2.20070E-001	-2.78532E-009	0.00000E+000	2.20000E-001	8.00223E-005	4	..........a	-327.66
	2706	0.5414	2.29870E-001	-2.62831E-009	0.00000E+000	2.30000E-001	8.00223E-005	4	..........a	-327.66
	2707	0.5416	2.40070E-001	-2.46831E-009	0.00000E+000	2.40000E-001	-4.19978E-004	4	..........a	-327.66
	2708	0.5418	2.49870E-001	-2.30430E-009	0.00000E+000	2.50000E-001	8.00223E-005	4	..........a	-327.66
	2709	0.542	2.60220E-001	-2.13029E-009	0.00000E+000	2.60000E-001	8.00223E-005	4	..........a	-327.66
	2710	0.5422	2.70070E-001	-1.96229E-009	0.00000E+000	2.70000E-001	8.00223E-005	4	..........a	-327.66
	2711	0.5424	2.80020E-001	-1.78928E-009	0.00000E+000	2.80000E-001	8.00223E-005	4	..........a	-327.66
	2712	0.5426	2.90170E-001	-1.60827E-009	0.00000E+000	2.90000E-001	8.00223E-005	4	..........a	-327.66
	2713	0.5428	3.00070E-001	-1.43227E-009	0.00000E+000	3.00000E-001	8.00223E-005	4	..........a	-327.66
	2714	0.543	3.10120E-001	-1.24726E-009	0.00000E+000	3.10000E-001	8.00223E-005	4	..........a	-327.66
	2715	0.5432	3.20170E-001	-1.06125E-009	0.00000E+000	3.20000E-001	8.00223E-005	4	..........a	-327.66
	2716	0.5434	3.29970E-001	-8.73246E-010	0.00000E+000	3.30000E-001	8.00223E-005	4	..........a	-327.66
	2717	0.5436	3.39970E-001	-6.86239E-010	0.00000E+000	3.40000E-001	8.00223E-005	4	..........a	-327.66
	2718	0.5438	3.50070E-001	-4.98232E-010	0.00000E+000	3.50000E-001	8.00223E-005	4	..........a	-327.66
	2719	0.544	3.60170E-001	-3.02224E-010	0.00000E+000	3.60000E-001	-1.19978E-004	4	..........a	-327.66
	2720	0.5442	3.70070E-001	-1.04216E-010	0.00000E+000	3.70000E-001	8.00223E-005	4	..........a	-327.66
	2721	0.5444	3.79970E-001	9.17912E-011	0.00000E+000	3.80000E-001	-2.19978E-004	4	..........a	-327.66
	2722	0.5446	3.89870E-001	2.93799E-010	0.00000E+000	3.90000E-001	8.00223E-005	4	..........a	-327.66
	2723	0.5448	3.99870E-001	5.00807E-010	0.00000E+000	4.00000E-001	8.00223E-005	4	..........a	-327.66
	2724	0.545	4.09970E-001	7.08815E-010	0.00000E+000	4.10000E-001	-2.19978E-004	4	..........a	-327.66
	2725	0.5452	4.20070E-001	9.11823E-010	0.00000E+000	4.20000E-001	8.00223E-005	4	..........a	-327.66
	2726	0.5454	4.29820E-001	1.11983E-009	0.00000E+000	4.30000E-001	8.00223E-005	4	..........a	-327.66
	2727	0.5456	4.39970E-001	1.33284E-009	0.00000E+000	4.40000E-001	8.00223E-005	4	..........a	-327.66
	2728	0.5458	4.49620E-001	1.54785E-009	0.00000E+000	4.50000E-001	8.00223E-005	4	..........a	-327.66
	2729	0.546	4.60120E-001	1.76086E-009	0.00000E+000	4.60000E-001	8.00223E-005	4	..........a	-327.66
	2730	0.5462	4.70070E-001	1.98486E-009	0.00000E+000	4.70000E-001	8.00223E-005	4	..........a	-327.66
	2731	0.5464	4.79920E-001	2.20587E-009	0.00000E+000	4.80000E-001	8.00223E-005	4	..........a	-327.66
	2732	0.5466	4.89870E-001	2.43288E-009	0.00000E+000	4.90000E-001	8.00223E-005	4	..........a	-327.66
	2733	0.5468	5.00120E-001	2.65689E-009	0.00000E+000	5.00000E-001	8.00223E-005	4	..........a	-327.66
	2734	0.547	5.09969E-001	2.88390E-009	0.00000E+000	5.10000E-001	8.00223E-005	4	..........a	-327.66
	2735	0.5472	5.19870E-001	3.11791E-009	0.00000E+000	5.20000E-001	8.00223E-005	4	..........a	-327.66
	2736	0.5474	5.29869E-001	3.35192E-009	0.00000E+000	5.30000E-001	-2.19978E-004	4	..........a	-327.66
	2737	0.5476	5.40069E-001	3.58793E-009	0.00000E+000	5.40000E-001	8.00223E-005	4	..........a	-327.66
	2738	0.5478	5.49969E-001	3.82593E-009	0.00000E+000	5.50000E-001	8.00223E-005	4	..........a	-327.66
	2739	0.548	5.59969E-001	4.06594E-009	0.00000E+000	5.60000E-001	8.00223E-005	4	..........a	-327.66
	2740	0.5482	5.69969E-001	4.31195E-009	0.00000E+000	5.70000E-001	8.00223E-005	4	..........a	-327.66
	2741	0.5484	5.79969E-001	4.56396E-009	0.00000E+000	5.80000E-001	8.00223E-005	4	..........a	-327.66
	2742	0.5486	5.89969E-001	4.80597E-009	0.00000E+000	5.90000E-001	8.00223E-005	4	..........a	-327.66
	2743	0.5488	5.99869E-001	5.06198E-009	0.00000E+000	6.00000E-001	8.00223E-005	4	..........a	-327.66
	2744	0.549	6.09969E-001	5.31399E-009	0.00000E+000	6.10000E-001	8.00223E-005	4	..........a	-327.66
	2745	0.5492	6.19869E-001	5.57400E-009	0.00000E+000	6.20000E-001	8.00223E-005	4	..........a	-327.66
	2746	0.5494	6.29969E-001	5.83401E-009	0.00000E+000	6.30000E-001	8.00223E-005	4	..........a	-327.66
	2747	0.5496	6.39870E-001	6.09602E-009	0.00000E+000	6.40000E-001	8.00223E-005	4	..........a	-327.66
	2748	0.5498	6.49870E-001	6.36003E-009	0.00000E+000	6.50000E-001	8.00223E-005	4	..........a	-327.66
	2749	0.55	6.59570E-001	6.62804E-009	0.00000E+000	6.60000E-001	8.00223E-005	4	..........a	-327.66
	2750	0.5502	6.69719E-001	6.90705E-009	0.00000E+000	6.70000E-001	8.00223E-005	4	..........a	-327.66
	2751	0.5504	6.79669E-001	7.18506E-009	0.00000E+000	6.80000E-001	8.00223E-005	4	..........a	-327.66
	2752	0.5506	6.89770E-001	7.46107E-009	0.00000E+000	6.90000E-001	8.00223E-005	4	..........a	-327.66
	2753	0.5508	6.99869E-001	7.74109E-009	0.00000E+000	7.00000E-001	8.00223E-005	4	..........a	-327.66
	2754	0.551	7.09969E-001	8.03310E-009	0.00000E+000	7.10000E-001	8.00223E-005	4	..........a	-327.66
	2755	0.5512	7.19869E-001	8.32711E-009	0.00000E+000	7.20000E-001	8.00223E-005	4	..........a	-327.66
	2756	0.5514	7.29869E-001	8.61912E-009	0.00000E+000	7.30000E-001	8.00223E-005	4	..........a	-327.66
	2757	0.5516	7.40070E-001	8.91613E-009	0.00000E+000	7.40000E-001	8.00223E-005	4	..........a	-327.66
	2758	0.5518	7.49969E-001	9.22014E-009	0.00000E+000	7.50000E-001	8.00223E-005	4	..........a	-327.66
	2759	0.552	7.59769E-001	9.52715E-009	0.00000E+000	7.60000E-001	8.00223E-005	4	..........a	-327.66
	2760	0.5522	7.69769E-001	9.83517E-009	0.00000E+000	7.70000E-001	8.00223E-005	4	..........a	-327.66
	2761	0.5524	7.79669E-001	1.01612E-008	0.00000E+000	7.80000E-001	8.00223E-005	4	..........a	-327.66
	2762	0.5526	7.89869E-001	1.04762E-008	0.00000E+000	7.90000E-001	8.00223E-005	4	..........a	-327.66
	2763	0.5528	7.99869E-001	1.08052E-008	0.00000E+000	8.00000E-001	8.00223E-005	4	..........a	-327.66
CURVE11	TABLE
	Pt	T	Vf	Im	Vu	Sig	Ach	IERange	Over	Temp
	#	s	V vs. Ref.	A	V	V	V	#	bits	deg C
	2764	0.553	7.89869E-001	1.09872E-008	0.00000E+000	7.90000E-001	8.00223E-005	4	..........a	-327.66
	2765	0.5532	7.79869E-001	1.11212E-008	0.00000E+000	7.80000E-001	8.00223E-005	4	..........a	-327.66
	2766	0.5534	7.69969E-001	1.12142E-008	0.00000E+000	7.70000E-001	8.00223E-005	4	..........a	-327.66
	2767	0.5536	7.59869E-001	1.12862E-008	0.00000E+000	7.60000E-001	8.00223E-005	4	..........a	-327.66
	2768	0.5538	7.49869E-001	1.13322E-008	0.00000E+000	7.50000E-001	-4.19978E-004	4	..........a	-327.66
	2769	0.554	7.39869E-001	1.13672E-008	0.00000E+000	7.40000E-001	8.00223E-005	4	..........a	-327.66
	2770	0.5542	7.29869E-001	1.13842E-008	0.00000E+000	7.30000E-001	8.00223E-005	4	..........a	-327.66
	2771	0.5544	7.19969E-001	1.13872E-008	0.00000E+000	7.20000E-001	-1.19978E-004	4	..........a	-327.66
	2772	0.5546	7.09870E-001	1.13782E-008	0.00000E+000	7.10000E-001	8.00223E-005	4	..........a	-327.66
	2773	0.5548	6.99769E-001	1.13582E-008	0.00000E+000	7.00000E-001	8.00223E-005	4	..........a	-327.66
	2774	0.555	6.89869E-001	1.13362E-008	0.00000E+000	6.90000E-001	-3.19978E-004	4	..........a	-327.66
	2775	0.5552	6.80070E-001	1.13062E-008	0.00000E+000	6.80000E-001	8.00223E-005	4	..........a	-327.66
	2776	0.5554	6.69869E-001	1.12722E-008	0.00000E+000	6.70000E-001	8.00223E-005	4	..........a	-327.66
	2777	0.5556	6.59769E-001	1.12262E-008	0.00000E+000	6.60000E-001	8.00223E-005	4	..........a	-327.66
	2778	0.5558	6.49769E-001	1.11772E-008	0.00000E+000	6.50000E-001	8.00223E-005	4	..........a	-327.66
	2779	0.556	6.39769E-001	1.11222E-008	0.00000E+000	6.40000E-001	8.00223E-005	4	..........a	-327.66
	2780	0.5562	6.29869E-001	1.10672E-008	0.00000E+000	6.30000E-001	-3.19978E-004	4	..........a	-327.66
	2781	0.5564	6.19969E-001	1.10022E-008	0.00000E+000	6.20000E-001	8.00223E-005	4	..........a	-327.66
	2782	0.5566	6.09969E-001	1.09382E-008	0.00000E+000	6.10000E-001	8.00223E-005	4	..........a	-327.66
	2783	0.5568	5.99769E-001	1.08632E-008	0.00000E+000	6.00000E-001	8.00223E-005	4	..........a	-327.66
	2784	0.557	5.89769E-001	1.07932E-008	0.00000E+000	5.90000E-001	8.00223E-005	4	..........a	-327.66
	2785	0.5572	5.79669E-001	1.07182E-008	0.00000E+000	5.80000E-001	8.00223E-005	4	..........a	-327.66
	2786	0.5574	5.69869E-001	1.06322E-008	0.00000E+000	5.70000E-001	8.00223E-005	4	..........a	-327.66
	2787	0.5576	5.59569E-001	1.05502E-008	0.00000E+000	5.60000E-001	8.00223E-005	4	..........a	-327.66
	2788	0.5578	5.50070E-001	1.04582E-008	0.00000E+000	5.50000E-001	8.00223E-005	4	..........a	-327.66
	2789	0.558	5.39869E-001	1.03732E-008	0.00000E+000	5.40000E-001	8.00223E-005	4	..........a	-327.66
	2790	0.5582	5.30069E-001	1.02812E-008	0.00000E+000	5.30000E-001	8.00223E-005	4	..........a	-327.66
	2791	0.5584	5.20069E-001	1.01852E-008	0.00000E+000	5.20000E-001	8.00223E-005	4	..........a	-327.66
	2792	0.5586	5.09969E-001	1.00852E-008	0.00000E+000	5.10000E-001	8.00223E-005	4	..........a	-327.66
	2793	0.5588	5.00069E-001	9.98017E-009	0.00000E+000	5.00000E-001	8.00223E-005	4	..........a	-327.66
	2794	0.559	4.90070E-001	9.87717E-009	0.00000E+000	4.90000E-001	8.00223E-005	4	..........a	-327.66
	2795	0.5592	4.79870E-001	9.77016E-009	0.00000E+000	4.80000E-001	8.00223E-005	4	..........a	-327.66
	2796	0.5594	4.69970E-001	9.65816E-009	0.00000E+000	4.70000E-001	8.00223E-005	4	..........a	-327.66
	2797	0.5596	4.60170E-001	9.54415E-009	0.00000E+000	4.60000E-001	8.00223E-005	4	..........a	-327.66
	2798	0.5598	4.49670E-001	9.42415E-009	0.00000E+000	4.50000E-001	8.00223E-005	4	..........a	-327.66
	2799	0.56	4.40170E-001	9.30615E-009	0.00000E+000	4.40000E-001	8.00223E-005	4	..........a	-327.66
	2800	0.5602	4.29870E-001	9.18714E-009	0.00000E+000	4.30000E-001	8.00223E-005	4	..........a	-327.66