File: data/raw/batch_data/20240509_G_GM0016_HL03_E02_CV50.DTA
EXPLAIN
TAG	CV
TITLE	LABEL	Cyclic Voltammetry	Test &Identifier
DATE	LABEL	5/9/2024	Date
TIME	LABEL	12:44:04	Time
NOTES	NOTES	1	&Notes...

PSTAT	PSTAT	REF600P-43058	Potentiostat
VINIT	POTEN	0.00000E+000	T	Initial &E (V)
VLIMIT1	POTEN	8.00000E-001	F	Scan Limit &1 (V)
VLIMIT2	POTEN	-6.00000E-001	F	Scan Limit &2 (V)
VFINAL	POTEN	0.00000E+000	T	Final &E (V)
SCANRATE	QUANT	4.99999E+001	&Scan Rate (mV/s)
STEPSIZE	QUANT	1.00000E+001	St&ep Size (mV)
CYCLES	IQUANT	4	C&ycles (#)
IMODE	SELECTOR	0	I/E Range &Mode
IRANGE	QUANT	1.00000E-005	&Max Current (mA)
AREA	QUANT	1.00000E+000	Electrode &Area (cm^2)
ELECTRODETYPE	SELECTOR	0	Electrode Type
STRIPPING	TOGGLE	F	Used for Stripping
POLARITY	TOGGLE	F	Signal Polarity
CONDIT	TWOPARAM	F	1.50000E+001	0.00000E+000	Conditionin&g	Time(s)	E(V)
DELAY	TWOPARAM	T	1.00000E+001	0.00000E+000	Init. De&lay	Time(s)	Stab.(mV/s)
EQDELAY	QUANT	1.00000E+001	Equil. &Time (s)
IRCOMP	SELECTOR	0	IRCom&p
PFCOR	QUANT	5.00000E+001	PF Corr. (ohm)
SAMPLINGMODE	SELECTOR	1	Sampling &Mode
OCVCURVE	TABLE	39
	Pt	T	Vf	Vm	Ach	Over	Temp
	#	s	V vs. Ref.	V	V	bits	deg C
	0	0.258333	-1.22479E-001	-1.22479E-001	2.41992E-004	..........a	-327.66
	1	0.516667	-1.22480E-001	-1.22528E-001	2.47192E-004	..........a	-327.66
	2	0.775	-1.22486E-001	-1.22579E-001	2.59192E-004	..........a	-327.66
	3	1.03333	-1.22503E-001	-1.22636E-001	2.55659E-004	..........a	-327.66
	4	1.29167	-1.22534E-001	-1.22678E-001	2.54059E-004	..........a	-327.66
	5	1.55	-1.22577E-001	-1.22731E-001	2.65192E-004	..........a	-327.66
	6	1.80833	-1.22626E-001	-1.22783E-001	2.56926E-004	..........a	-327.66
	7	2.06667	-1.22676E-001	-1.22832E-001	2.58526E-004	..........a	-327.66
	8	2.325	-1.22727E-001	-1.22885E-001	2.57326E-004	..........a	-327.66
	9	2.58333	-1.22778E-001	-1.22935E-001	2.39326E-004	..........a	-327.66
	10	2.84167	-1.22829E-001	-1.22984E-001	2.55192E-004	..........a	-327.66
	11	3.1	-1.22880E-001	-1.23032E-001	2.46859E-004	..........a	-327.66
	12	3.35833	-1.22930E-001	-1.23067E-001	2.52126E-004	..........a	-327.66
	13	3.61667	-1.22978E-001	-1.23123E-001	2.41392E-004	..........a	-327.66
	14	3.875	-1.23025E-001	-1.23168E-001	2.63659E-004	..........a	-327.66
	15	4.13333	-1.23071E-001	-1.23217E-001	2.51526E-004	..........a	-327.66
	16	4.39167	-1.23118E-001	-1.23264E-001	2.35926E-004	..........a	-327.66
	17	4.65	-1.23165E-001	-1.23308E-001	2.64926E-004	..........a	-327.66
	18	4.90833	-1.23212E-001	-1.23361E-001	2.62992E-004	..........a	-327.66
	19	5.16667	-1.23259E-001	-1.23388E-001	2.63926E-004	..........a	-327.66
	20	5.425	-1.23305E-001	-1.23444E-001	2.45926E-004	..........a	-327.66
	21	5.68333	-1.23350E-001	-1.23488E-001	2.54059E-004	..........a	-327.66
	22	5.94167	-1.23394E-001	-1.23538E-001	2.69126E-004	..........a	-327.66
	23	6.2	-1.23439E-001	-1.23574E-001	2.39392E-004	..........a	-327.66
	24	6.45833	-1.23485E-001	-1.23624E-001	2.64526E-004	..........a	-327.66
	25	6.71667	-1.23530E-001	-1.23677E-001	2.54592E-004	..........a	-327.66
	26	6.975	-1.23575E-001	-1.23706E-001	2.61126E-004	..........a	-327.66
	27	7.23333	-1.23621E-001	-1.23764E-001	2.45192E-004	..........a	-327.66
	28	7.49167	-1.23666E-001	-1.23804E-001	2.50126E-004	..........a	-327.66
	29	7.75	-1.23711E-001	-1.23852E-001	2.45859E-004	..........a	-327.66
	30	8.00833	-1.23756E-001	-1.23890E-001	2.46992E-004	..........a	-327.66
	31	8.26667	-1.23801E-001	-1.23940E-001	2.59792E-004	..........a	-327.66
	32	8.525	-1.23846E-001	-1.23998E-001	2.58059E-004	..........a	-327.66
	33	8.78333	-1.23892E-001	-1.24027E-001	2.55526E-004	..........a	-327.66
	34	9.04167	-1.23938E-001	-1.24091E-001	2.48459E-004	..........a	-327.66
	35	9.3	-1.23986E-001	-1.24138E-001	2.46392E-004	..........a	-327.66
	36	9.5583	-1.24034E-001	-1.24181E-001	2.60392E-004	..........a	-327.66
	37	9.8167	-1.24083E-001	-1.24238E-001	2.63926E-004	..........a	-327.66
	38	10.075	-1.24132E-001	-1.24277E-001	2.51926E-004	..........a	-327.66
EOC	QUANT	-0.124132	Open Circuit (V)
PSTATMODEL	IQUANT	7	Pstat Model
PSTATSECTION	LABEL	REF600P-43058	Pstat Section
PSTATSERIALNO	LABEL	43058	Pstat Serial Number
CTRLMODE	IQUANT	1	Control Mode
ELECTROMETER	IQUANT	0	RE=0 or CS=1
IESTAB	IQUANT	2	I/E Stability
CASPEED	IQUANT	4	Control Amp Speed
CONVENTION	IQUANT	1	Current Convention
ICHRANGE	IQUANT	2	Ich Range
ICHRANGEMODE	TOGGLE	F	Ich Auto Range
ICHOFFSETENABLE	TOGGLE	F	Ich Offset Enable
ICHOFFSET	QUANT	0	Ich Offset (V)
ICHFILTER	IQUANT	2	Ich Filter
VCHRANGE	IQUANT	2	Vch Range
VCHRANGEMODE	TOGGLE	F	Vch Auto Range
VCHOFFSETENABLE	TOGGLE	F	Vch Offset Enable
VCHOFFSET	QUANT	0	Vch Offset (V)
VCHFILTER	IQUANT	2	Vch Filter
ACHRANGE	IQUANT	2	Ach Range
ACHOFFSETENABLE	TOGGLE	F	Ach Offset Enable
ACHOFFSET	QUANT	0	Ach Offset (V)
ACHFILTER	IQUANT	1	Ach Filter
IERANGELOWERLIMIT	IQUANT	1	I/E Range Lower Limit
IERANGEMODE	TOGGLE	T	I/E AutoRange
IERANGE	IQUANT	4	I/E Range
POSFEEDENABLE	TOGGLE	F	Positive Feedback IR Comp
POSFEEDRESISTANCE	QUANT	0	Positive Feedback Resistance (ohm)
ACHSELECT	IQUANT	4	Ach Select
SENSECABLEID	IQUANT	7	Sense Cable ID
PWRCABLEID	IQUANT	7	Power Cable ID
DCCALDATE	LABEL	3/22/2024	DC Calibration Date
ACCALDATE	LABEL	3/22/2024	AC Calibration Date
THERMOSELECT	IQUANT	1	Thermo Select
FRAMEWORKVERSION	LABEL	7.8.4	Framework Version
INSTRUMENTVERSION	LABEL	4.42	Instrument Version
CURVE1	TABLE
	Pt	T	Vf	Im	Vu	Sig	Ach	IERange	Over	Temp
	#	s	V vs. Ref.	A	V	V	V	#	bits	deg C
	0	0.2	-1.24120E-001	7.64635E-010	0.00000E+000	-1.24150E-001	1.01559E-003	5	..........a	-327.66
	1	0.4	-1.14009E-001	1.80205E-009	0.00000E+000	-1.14150E-001	1.04039E-003	5	..........a	-327.66
	2	0.6	-1.04141E-001	2.46744E-009	0.00000E+000	-1.04150E-001	1.00639E-003	5	..........a	-327.66
	3	0.8	-9.41228E-002	3.06200E-009	0.00000E+000	-9.41500E-002	1.06349E-003	5	..........a	-327.66
	4	1	-8.40751E-002	3.59310E-009	0.00000E+000	-8.41500E-002	1.00769E-003	5	..........a	-327.66
	5	1.2	-7.40294E-002	4.09667E-009	0.00000E+000	-7.41500E-002	1.01309E-003	5	..........a	-327.66
	6	1.4	-6.41075E-002	4.60847E-009	0.00000E+000	-6.41500E-002	1.02319E-003	5	..........a	-327.66
	7	1.6	-5.41791E-002	5.07211E-009	0.00000E+000	-5.41500E-002	1.00559E-003	5	..........a	-327.66
	8	1.8	-4.41116E-002	5.60269E-009	0.00000E+000	-4.41500E-002	1.02029E-003	5	..........a	-327.66
	9	2	-3.40390E-002	6.10731E-009	0.00000E+000	-3.41500E-002	1.03159E-003	5	..........a	-327.66
	10	2.2	-2.41176E-002	6.65055E-009	0.00000E+000	-2.41500E-002	1.03669E-003	5	..........a	-327.66
	11	2.4	-1.40647E-002	7.21377E-009	0.00000E+000	-1.41500E-002	1.00449E-003	5	..........a	-327.66
	12	2.6	-4.11586E-003	7.75493E-009	0.00000E+000	-4.15000E-003	1.02469E-003	5	..........a	-327.66
	13	2.8	5.97224E-003	8.39500E-009	0.00000E+000	5.85000E-003	1.04359E-003	5	..........a	-327.66
	14	3	1.58828E-002	9.03476E-009	0.00000E+000	1.58500E-002	1.03329E-003	5	..........a	-327.66
	15	3.2	2.58939E-002	9.71637E-009	0.00000E+000	2.58500E-002	1.04439E-003	5	..........a	-327.66
	16	3.4	3.59206E-002	1.04043E-008	0.00000E+000	3.58500E-002	1.02209E-003	5	..........a	-327.66
	17	3.6	4.59855E-002	1.11519E-008	0.00000E+000	4.58500E-002	1.03079E-003	5	..........a	-327.66
	18	3.8	5.58924E-002	1.19772E-008	0.00000E+000	5.58500E-002	1.03839E-003	5	..........a	-327.66
	19	4	6.58140E-002	1.28094E-008	0.00000E+000	6.58500E-002	1.02199E-003	5	..........a	-327.66
	20	4.2	7.58980E-002	1.37596E-008	0.00000E+000	7.58500E-002	1.01909E-003	5	..........a	-327.66
	21	4.4	8.59745E-002	1.47809E-008	0.00000E+000	8.58500E-002	1.02429E-003	5	..........a	-327.66
	22	4.6	9.58934E-002	1.58868E-008	0.00000E+000	9.58500E-002	1.01649E-003	5	..........a	-327.66
	23	4.8	1.05865E-001	1.71228E-008	0.00000E+000	1.05850E-001	1.03319E-003	5	..........a	-327.66
	24	5	1.15959E-001	1.85350E-008	0.00000E+000	1.15850E-001	1.01479E-003	5	..........a	-327.66
	25	5.2	1.25962E-001	2.00693E-008	0.00000E+000	1.25850E-001	1.04359E-003	5	..........a	-327.66
	26	5.4	1.35896E-001	2.17946E-008	0.00000E+000	1.35850E-001	1.03279E-003	5	..........a	-327.66
	27	5.6	1.45863E-001	2.37493E-008	0.00000E+000	1.45850E-001	1.04709E-003	5	..........a	-327.66
	28	5.8	1.55899E-001	2.61018E-008	0.00000E+000	1.55850E-001	1.02129E-003	5	..........a	-327.66
	29	6	1.65948E-001	2.99455E-008	0.00000E+000	1.65850E-001	1.02459E-003	5	..........a	-327.66
	30	6.2	1.75843E-001	4.38238E-008	0.00000E+000	1.75850E-001	1.02319E-003	5	..........a	-327.66
	31	6.4	1.85853E-001	5.46454E-008	0.00000E+000	1.85850E-001	1.02879E-003	5	..........a	-327.66
	32	6.6	1.95913E-001	4.68626E-008	0.00000E+000	1.95850E-001	1.01939E-003	5	..........a	-327.66
	33	6.8	2.05946E-001	4.22226E-008	0.00000E+000	2.05850E-001	1.03209E-003	5	..........a	-327.66
	34	7	2.15857E-001	4.06014E-008	0.00000E+000	2.15850E-001	1.01689E-003	5	..........a	-327.66
	35	7.2	2.25828E-001	4.08396E-008	0.00000E+000	2.25850E-001	1.02759E-003	5	..........a	-327.66
	36	7.4	2.35862E-001	4.18808E-008	0.00000E+000	2.35850E-001	1.00399E-003	5	..........a	-327.66
	37	7.6	2.45853E-001	4.32790E-008	0.00000E+000	2.45850E-001	1.01179E-003	5	..........a	-327.66
	38	7.8	2.55851E-001	4.48801E-008	0.00000E+000	2.55850E-001	1.04269E-003	5	..........a	-327.66
	39	8	2.65842E-001	4.65110E-008	0.00000E+000	2.65850E-001	1.02489E-003	5	..........a	-327.66
	40	8.2	2.75865E-001	4.81726E-008	0.00000E+000	2.75850E-001	1.00149E-003	5	..........a	-327.66
	41	8.4	2.85934E-001	4.98479E-008	0.00000E+000	2.85850E-001	1.01669E-003	5	..........a	-327.66
	42	8.6	2.95845E-001	5.14897E-008	0.00000E+000	2.95850E-001	1.01579E-003	5	..........a	-327.66
	43	8.8	3.05813E-001	5.31457E-008	0.00000E+000	3.05850E-001	1.01929E-003	5	..........a	-327.66
	44	9	3.15859E-001	5.48290E-008	0.00000E+000	3.15850E-001	1.02009E-003	5	..........a	-327.66
	45	9.2	3.25960E-001	5.65916E-008	0.00000E+000	3.25850E-001	1.03529E-003	5	..........a	-327.66
	46	9.4	3.35859E-001	5.84733E-008	0.00000E+000	3.35850E-001	1.03169E-003	5	..........a	-327.66
	47	9.6	3.45897E-001	6.04342E-008	0.00000E+000	3.45850E-001	1.03419E-003	5	..........a	-327.66
	48	9.8	3.55862E-001	6.25169E-008	0.00000E+000	3.55850E-001	1.01189E-003	5	..........a	-327.66
	49	10	3.65929E-001	6.47195E-008	0.00000E+000	3.65850E-001	1.01979E-003	5	..........a	-327.66
	50	10.2	3.75850E-001	6.70142E-008	0.00000E+000	3.75850E-001	1.03779E-003	5	..........a	-327.66
	51	10.4	3.85816E-001	6.94536E-008	0.00000E+000	3.85850E-001	1.02349E-003	5	..........a	-327.66
	52	10.6	3.95838E-001	7.19548E-008	0.00000E+000	3.95850E-001	1.02599E-003	5	..........a	-327.66
	53	10.8	4.05940E-001	7.45899E-008	0.00000E+000	4.05850E-001	1.03939E-003	5	..........a	-327.66
	54	11	4.15822E-001	7.73165E-008	0.00000E+000	4.15850E-001	1.05369E-003	5	..........a	-327.66
	55	11.2	4.25776E-001	8.01474E-008	0.00000E+000	4.25850E-001	1.00219E-003	5	..........a	-327.66
	56	11.4	4.35798E-001	8.30720E-008	0.00000E+000	4.35850E-001	1.00689E-003	5	..........a	-327.66
	57	11.6	4.45893E-001	8.60381E-008	0.00000E+000	4.45850E-001	1.01609E-003	5	..........a	-327.66
	58	11.8	4.55828E-001	8.90176E-008	0.00000E+000	4.55850E-001	1.03279E-003	5	..........a	-327.66
	59	12	4.65780E-001	9.20362E-008	0.00000E+000	4.65850E-001	1.01599E-003	5	..........a	-327.66
	60	12.2	4.75697E-001	9.51210E-008	0.00000E+000	4.75850E-001	1.03479E-003	5	..........a	-327.66
	61	12.4	4.85910E-001	9.82404E-008	0.00000E+000	4.85850E-001	1.00639E-003	5	..........a	-327.66
	62	12.6	4.95800E-001	1.01435E-007	0.00000E+000	4.95850E-001	1.02629E-003	5	..........a	-327.66
	63	12.8	5.05716E-001	1.04717E-007	0.00000E+000	5.05850E-001	1.02829E-003	5	..........a	-327.66
	64	13	5.15811E-001	1.07987E-007	0.00000E+000	5.15850E-001	1.01599E-003	5	..........a	-327.66
	65	13.2	5.25885E-001	1.11403E-007	0.00000E+000	5.25850E-001	1.00629E-003	5	..........a	-327.66
	66	13.4	5.35779E-001	1.14815E-007	0.00000E+000	5.35850E-001	1.04939E-003	5	..........a	-327.66
	67	13.6	5.45812E-001	1.18279E-007	0.00000E+000	5.45850E-001	1.03279E-003	5	..........a	-327.66
	68	13.8	5.55790E-001	1.21735E-007	0.00000E+000	5.55850E-001	1.00209E-003	5	..........a	-327.66
	69	14	5.65889E-001	1.25270E-007	0.00000E+000	5.65850E-001	1.02499E-003	5	..........a	-327.66
	70	14.2	5.75786E-001	1.28754E-007	0.00000E+000	5.75850E-001	1.02749E-003	5	..........a	-327.66
	71	14.4	5.85763E-001	1.32365E-007	0.00000E+000	5.85850E-001	1.05229E-003	5	..........a	-327.66
	72	14.6	5.95784E-001	1.35944E-007	0.00000E+000	5.95850E-001	1.00789E-003	5	..........a	-327.66
	73	14.8	6.05907E-001	1.39598E-007	0.00000E+000	6.05850E-001	1.03269E-003	5	..........a	-327.66
	74	15	6.15746E-001	1.43273E-007	0.00000E+000	6.15850E-001	1.01309E-003	5	..........a	-327.66
	75	15.2	6.25741E-001	1.47009E-007	0.00000E+000	6.25850E-001	1.03499E-003	5	..........a	-327.66
	76	15.4	6.35734E-001	1.50865E-007	0.00000E+000	6.35850E-001	1.02689E-003	5	..........a	-327.66
	77	15.6	6.45806E-001	1.54830E-007	0.00000E+000	6.45850E-001	1.01769E-003	5	..........a	-327.66
	78	15.8	6.55748E-001	1.58887E-007	0.00000E+000	6.55850E-001	1.03129E-003	5	..........a	-327.66
	79	16	6.65670E-001	1.63062E-007	0.00000E+000	6.65850E-001	1.01189E-003	5	..........a	-327.66
	80	16.2	6.75731E-001	1.67417E-007	0.00000E+000	6.75850E-001	1.02009E-003	5	..........a	-327.66
	81	16.4	6.85828E-001	1.71946E-007	0.00000E+000	6.85850E-001	1.02329E-003	5	..........a	-327.66
	82	16.6	6.95689E-001	1.76558E-007	0.00000E+000	6.95850E-001	1.00749E-003	5	..........a	-327.66
	83	16.8	7.05731E-001	1.81413E-007	0.00000E+000	7.05850E-001	1.02409E-003	5	..........a	-327.66
	84	17	7.15696E-001	1.86338E-007	0.00000E+000	7.15850E-001	1.01459E-003	5	..........a	-327.66
	85	17.2	7.25781E-001	1.91489E-007	0.00000E+000	7.25850E-001	1.02779E-003	5	..........a	-327.66
	86	17.4	7.35693E-001	1.96687E-007	0.00000E+000	7.35850E-001	1.02949E-003	5	..........a	-327.66
	87	17.6	7.45694E-001	2.02034E-007	0.00000E+000	7.45850E-001	1.02289E-003	5	..........a	-327.66
	88	17.8	7.55741E-001	2.07549E-007	0.00000E+000	7.55850E-001	1.03359E-003	5	..........a	-327.66
	89	18	7.65812E-001	2.13202E-007	0.00000E+000	7.65850E-001	1.02589E-003	5	..........a	-327.66
	90	18.2	7.75720E-001	2.19103E-007	0.00000E+000	7.75850E-001	1.03199E-003	5	..........a	-327.66
	91	18.4	7.85672E-001	2.25153E-007	0.00000E+000	7.85850E-001	1.03359E-003	5	..........a	-327.66
	92	18.6	7.95689E-001	2.31518E-007	0.00000E+000	7.95850E-001	1.02469E-003	5	..........a	-327.66
	93	18.8	7.85688E-001	1.90736E-007	0.00000E+000	7.85850E-001	1.04199E-003	5	..........a	-327.66
	94	19	7.75739E-001	1.63800E-007	0.00000E+000	7.75850E-001	1.04229E-003	5	..........a	-327.66
	95	19.2	7.65858E-001	1.43823E-007	0.00000E+000	7.65850E-001	9.99092E-004	5	..........a	-327.66
	96	19.4	7.55774E-001	1.27923E-007	0.00000E+000	7.55850E-001	1.02529E-003	5	..........a	-327.66
	97	19.6	7.45726E-001	1.14897E-007	0.00000E+000	7.45850E-001	1.03309E-003	5	..........a	-327.66
	98	19.8	7.35757E-001	1.03887E-007	0.00000E+000	7.35850E-001	1.01819E-003	5	..........a	-327.66
	99	20	7.25838E-001	9.44118E-008	0.00000E+000	7.25850E-001	1.03829E-003	5	..........a	-327.66
	100	20.2	7.15758E-001	8.61622E-008	0.00000E+000	7.15850E-001	1.02639E-003	5	..........a	-327.66
	101	20.4	7.05813E-001	7.88383E-008	0.00000E+000	7.05850E-001	1.01749E-003	5	..........a	-327.66
	102	20.6	6.95774E-001	7.23129E-008	0.00000E+000	6.95850E-001	1.01359E-003	5	..........a	-327.66
	103	20.8	6.85907E-001	6.64322E-008	0.00000E+000	6.85850E-001	1.04319E-003	5	..........a	-327.66
	104	21	6.75784E-001	6.10878E-008	0.00000E+000	6.75850E-001	1.01539E-003	5	..........a	-327.66
	105	21.2	6.65764E-001	5.62404E-008	0.00000E+000	6.65850E-001	1.03409E-003	5	..........a	-327.66
	106	21.4	6.55798E-001	5.18227E-008	0.00000E+000	6.55850E-001	1.02579E-003	5	..........a	-327.66
	107	21.6	6.45880E-001	4.77265E-008	0.00000E+000	6.45850E-001	1.01379E-003	5	..........a	-327.66
	108	21.8	6.35785E-001	4.39798E-008	0.00000E+000	6.35850E-001	1.02099E-003	5	..........a	-327.66
	109	22	6.25798E-001	4.04760E-008	0.00000E+000	6.25850E-001	1.00579E-003	5	..........a	-327.66
	110	22.2	6.15801E-001	3.72620E-008	0.00000E+000	6.15850E-001	1.00009E-003	5	..........a	-327.66
	111	22.4	6.05935E-001	3.42429E-008	0.00000E+000	6.05850E-001	1.03529E-003	5	..........a	-327.66
	112	22.6	5.95831E-001	3.14491E-008	0.00000E+000	5.95850E-001	1.01889E-003	5	..........a	-327.66
	113	22.8	5.85791E-001	2.88401E-008	0.00000E+000	5.85850E-001	1.01799E-003	5	..........a	-327.66
	114	23	5.75821E-001	2.63832E-008	0.00000E+000	5.75850E-001	9.88692E-004	5	..........a	-327.66
	115	23.2	5.65924E-001	2.40710E-008	0.00000E+000	5.65850E-001	1.01779E-003	5	..........a	-327.66
	116	23.4	5.55848E-001	2.19049E-008	0.00000E+000	5.55850E-001	1.01149E-003	5	..........a	-327.66
	117	23.6	5.45839E-001	1.98245E-008	0.00000E+000	5.45850E-001	1.02109E-003	5	..........a	-327.66
	118	23.8	5.35824E-001	1.78753E-008	0.00000E+000	5.35850E-001	1.01599E-003	5	..........a	-327.66
	119	24	5.25926E-001	1.60129E-008	0.00000E+000	5.25850E-001	1.02849E-003	5	..........a	-327.66
	120	24.2	5.15842E-001	1.42195E-008	0.00000E+000	5.15850E-001	1.02449E-003	5	..........a	-327.66
	121	24.4	5.05774E-001	1.24968E-008	0.00000E+000	5.05850E-001	1.01639E-003	5	..........a	-327.66
	122	24.6	4.95845E-001	1.08495E-008	0.00000E+000	4.95850E-001	1.02849E-003	5	..........a	-327.66
	123	24.8	4.85936E-001	9.26063E-009	0.00000E+000	4.85850E-001	1.03519E-003	5	..........a	-327.66
	124	25	4.75695E-001	7.74333E-009	0.00000E+000	4.75850E-001	1.01199E-003	5	..........a	-327.66
	125	25.2	4.65798E-001	6.21545E-009	0.00000E+000	4.65850E-001	9.86792E-004	5	..........a	-327.66
	126	25.4	4.55842E-001	4.72690E-009	0.00000E+000	4.55850E-001	9.96692E-004	5	..........a	-327.66
	127	25.6	4.45923E-001	3.31180E-009	0.00000E+000	4.45850E-001	1.02009E-003	5	..........a	-327.66
	128	25.8	4.35828E-001	1.89386E-009	0.00000E+000	4.35850E-001	1.02399E-003	5	..........a	-327.66
	129	26	4.25819E-001	4.74604E-010	0.00000E+000	4.25850E-001	1.03039E-003	5	..........a	-327.66
	130	26.2	4.15849E-001	-1.02950E-009	0.00000E+000	4.15850E-001	1.01629E-003	5	..........a	-327.66
	131	26.4	4.05956E-001	-2.37805E-009	0.00000E+000	4.05850E-001	1.01229E-003	5	..........a	-327.66
	132	26.6	3.95866E-001	-3.76712E-009	0.00000E+000	3.95850E-001	1.00279E-003	5	..........a	-327.66
	133	26.8	3.85899E-001	-5.16342E-009	0.00000E+000	3.85850E-001	1.02379E-003	5	..........a	-327.66
	134	27	3.75868E-001	-6.57330E-009	0.00000E+000	3.75850E-001	1.01159E-003	5	..........a	-327.66
	135	27.2	3.65958E-001	-8.00654E-009	0.00000E+000	3.65850E-001	1.01469E-003	5	..........a	-327.66
	136	27.4	3.55882E-001	-9.45981E-009	0.00000E+000	3.55850E-001	9.98192E-004	5	..........a	-327.66
	137	27.6	3.45949E-001	-1.10176E-008	0.00000E+000	3.45850E-001	1.03389E-003	5	..........a	-327.66
	138	27.8	3.35885E-001	-1.25233E-008	0.00000E+000	3.35850E-001	1.00269E-003	5	..........a	-327.66
	139	28	3.25976E-001	-1.41707E-008	0.00000E+000	3.25850E-001	1.02079E-003	5	..........a	-327.66
	140	28.2	3.15899E-001	-1.58886E-008	0.00000E+000	3.15850E-001	1.02059E-003	5	..........a	-327.66
	141	28.4	3.05868E-001	-1.76631E-008	0.00000E+000	3.05850E-001	1.00739E-003	5	..........a	-327.66
	142	28.6	2.95883E-001	-1.95686E-008	0.00000E+000	2.95850E-001	1.02499E-003	5	..........a	-327.66
	143	28.8	2.85954E-001	-2.16176E-008	0.00000E+000	2.85850E-001	1.01399E-003	5	..........a	-327.66
	144	29	2.75896E-001	-2.37577E-008	0.00000E+000	2.75850E-001	9.89292E-004	5	..........a	-327.66
	145	29.2	2.65913E-001	-2.59397E-008	0.00000E+000	2.65850E-001	1.02359E-003	5	..........a	-327.66
	146	29.4	2.55892E-001	-2.82260E-008	0.00000E+000	2.55850E-001	1.01219E-003	5	..........a	-327.66
	147	29.6	2.46008E-001	-3.05319E-008	0.00000E+000	2.45850E-001	1.04519E-003	5	..........a	-327.66
	148	29.8	2.35897E-001	-3.28386E-008	0.00000E+000	2.35850E-001	1.01889E-003	5	..........a	-327.66
	149	30	2.25883E-001	-3.49918E-008	0.00000E+000	2.25850E-001	1.01829E-003	5	..........a	-327.66
	150	30.2	2.15891E-001	-3.70758E-008	0.00000E+000	2.15850E-001	1.03179E-003	5	..........a	-327.66
	151	30.4	2.05969E-001	-3.88327E-008	0.00000E+000	2.05850E-001	1.02199E-003	5	..........a	-327.66
	152	30.6	1.95943E-001	-4.02724E-008	0.00000E+000	1.95850E-001	1.00069E-003	5	..........a	-327.66
	153	30.8	1.85924E-001	-4.12308E-008	0.00000E+000	1.85850E-001	1.02839E-003	5	..........a	-327.66
	154	31	1.75917E-001	-4.16831E-008	0.00000E+000	1.75850E-001	1.03029E-003	5	..........a	-327.66
	155	31.2	1.65986E-001	-4.16165E-008	0.00000E+000	1.65850E-001	1.01569E-003	5	..........a	-327.66
	156	31.4	1.55945E-001	-4.11908E-008	0.00000E+000	1.55850E-001	1.00639E-003	5	..........a	-327.66
	157	31.6	1.45926E-001	-4.01605E-008	0.00000E+000	1.45850E-001	1.02349E-003	5	..........a	-327.66
	158	31.8	1.35933E-001	-3.87768E-008	0.00000E+000	1.35850E-001	1.01339E-003	5	..........a	-327.66
	159	32	1.25968E-001	-3.71179E-008	0.00000E+000	1.25850E-001	1.04839E-003	5	..........a	-327.66
	160	32.2	1.16001E-001	-3.52951E-008	0.00000E+000	1.15850E-001	1.02129E-003	5	..........a	-327.66
	161	32.4	1.05917E-001	-3.33682E-008	0.00000E+000	1.05850E-001	1.02939E-003	5	..........a	-327.66
	162	32.6	9.59117E-002	-3.15405E-008	0.00000E+000	9.58500E-002	1.03619E-003	5	..........a	-327.66
	163	32.8	8.59891E-002	-2.97739E-008	0.00000E+000	8.58500E-002	1.00549E-003	5	..........a	-327.66
	164	33	7.59232E-002	-2.81586E-008	0.00000E+000	7.58500E-002	9.97792E-004	5	..........a	-327.66
	165	33.2	6.59795E-002	-2.67295E-008	0.00000E+000	6.58500E-002	1.01349E-003	5	..........a	-327.66
	166	33.4	5.59218E-002	-2.56260E-008	0.00000E+000	5.58500E-002	1.03489E-003	5	..........a	-327.66
	167	33.6	4.59890E-002	-2.48634E-008	0.00000E+000	4.58500E-002	1.01689E-003	5	..........a	-327.66
	168	33.8	3.59410E-002	-2.43086E-008	0.00000E+000	3.58500E-002	1.01169E-003	5	..........a	-327.66
	169	34	2.59284E-002	-2.38958E-008	0.00000E+000	2.58500E-002	1.01339E-003	5	..........a	-327.66
	170	34.2	1.59293E-002	-2.35405E-008	0.00000E+000	1.58500E-002	1.01889E-003	5	..........a	-327.66
	171	34.4	5.98734E-003	-2.33061E-008	0.00000E+000	5.85000E-003	1.02559E-003	5	..........a	-327.66
	172	34.6	-4.09951E-003	-2.37121E-008	0.00000E+000	-4.15000E-003	1.03299E-003	5	..........a	-327.66
	173	34.8	-1.40703E-002	-2.33086E-008	0.00000E+000	-1.41500E-002	1.01639E-003	5	..........a	-327.66
	174	35	-2.40975E-002	-2.30162E-008	0.00000E+000	-2.41500E-002	1.00669E-003	5	..........a	-327.66
	175	35.2	-3.40215E-002	-2.27424E-008	0.00000E+000	-3.41500E-002	1.03749E-003	5	..........a	-327.66
	176	35.4	-4.40895E-002	-2.28207E-008	0.00000E+000	-4.41500E-002	1.01879E-003	5	..........a	-327.66
	177	35.6	-5.41066E-002	-2.30436E-008	0.00000E+000	-5.41500E-002	1.01969E-003	5	..........a	-327.66
	178	35.8	-6.40790E-002	-2.29390E-008	0.00000E+000	-6.41500E-002	9.98292E-004	5	..........a	-327.66
	179	36	-7.40220E-002	-2.30008E-008	0.00000E+000	-7.41500E-002	1.03609E-003	5	..........a	-327.66
	180	36.2	-8.40838E-002	-2.30001E-008	0.00000E+000	-8.41500E-002	1.02429E-003	5	..........a	-327.66
	181	36.4	-9.40907E-002	-2.34048E-008	0.00000E+000	-9.41500E-002	1.00979E-003	5	..........a	-327.66
	182	36.6	-1.04106E-001	-2.37423E-008	0.00000E+000	-1.04150E-001	1.02349E-003	5	..........a	-327.66
	183	36.8	-1.14008E-001	-2.42250E-008	0.00000E+000	-1.14150E-001	1.01949E-003	5	..........a	-327.66
	184	37	-1.24109E-001	-2.46813E-008	0.00000E+000	-1.24150E-001	9.98092E-004	5	..........a	-327.66
	185	37.2	-1.34065E-001	-2.54201E-008	0.00000E+000	-1.34150E-001	1.04389E-003	5	..........a	-327.66
	186	37.4	-1.44100E-001	-2.61138E-008	0.00000E+000	-1.44150E-001	1.02799E-003	5	..........a	-327.66
	187	37.6	-1.54025E-001	-2.70754E-008	0.00000E+000	-1.54150E-001	1.01239E-003	5	..........a	-327.66
	188	37.8	-1.64131E-001	-2.80566E-008	0.00000E+000	-1.64150E-001	1.01929E-003	5	..........a	-327.66
	189	38	-1.74069E-001	-2.89022E-008	0.00000E+000	-1.74150E-001	1.01699E-003	5	..........a	-327.66
	190	38.2	-1.84105E-001	-3.01094E-008	0.00000E+000	-1.84150E-001	1.03809E-003	5	..........a	-327.66
	191	38.4	-1.94041E-001	-3.11713E-008	0.00000E+000	-1.94150E-001	1.01929E-003	5	..........a	-327.66
	192	38.6	-2.04113E-001	-3.21180E-008	0.00000E+000	-2.04150E-001	1.00579E-003	5	..........a	-327.66
	193	38.8	-2.14078E-001	-3.29671E-008	0.00000E+000	-2.14150E-001	1.02899E-003	5	..........a	-327.66
	194	39	-2.24049E-001	-3.38560E-008	0.00000E+000	-2.24150E-001	1.01339E-003	5	..........a	-327.66
	195	39.2	-2.33997E-001	-3.48658E-008	0.00000E+000	-2.34150E-001	1.01999E-003	5	..........a	-327.66
	196	39.4	-2.44046E-001	-3.54834E-008	0.00000E+000	-2.44150E-001	1.02249E-003	5	..........a	-327.66
	197	39.6	-2.54062E-001	-3.61291E-008	0.00000E+000	-2.54150E-001	1.03789E-003	5	..........a	-327.66
	198	39.8	-2.64064E-001	-3.71185E-008	0.00000E+000	-2.64150E-001	1.01209E-003	5	..........a	-327.66
	199	40	-2.73999E-001	-3.77023E-008	0.00000E+000	-2.74150E-001	1.00489E-003	5	..........a	-327.66
	200	40.2	-2.84030E-001	-3.85295E-008	0.00000E+000	-2.84150E-001	9.94592E-004	5	..........a	-327.66
	201	40.4	-2.94006E-001	-3.92904E-008	0.00000E+000	-2.94150E-001	1.02009E-003	5	..........a	-327.66
	202	40.6	-3.04054E-001	-3.99027E-008	0.00000E+000	-3.04150E-001	1.03179E-003	5	..........a	-327.66
	203	40.8	-3.13987E-001	-4.07923E-008	0.00000E+000	-3.14150E-001	1.02719E-003	5	..........a	-327.66
	204	41	-3.24040E-001	-4.19704E-008	0.00000E+000	-3.24150E-001	9.92392E-004	5	..........a	-327.66
	205	41.2	-3.34068E-001	-4.23426E-008	0.00000E+000	-3.34150E-001	1.04549E-003	5	..........a	-327.66
	206	41.4	-3.44016E-001	-4.32155E-008	0.00000E+000	-3.44150E-001	1.02049E-003	5	..........a	-327.66
	207	41.6	-3.54013E-001	-4.38244E-008	0.00000E+000	-3.54150E-001	1.02329E-003	5	..........a	-327.66
	208	41.8	-3.64028E-001	-4.44757E-008	0.00000E+000	-3.64150E-001	1.01329E-003	5	..........a	-327.66
	209	42	-3.73993E-001	-4.51219E-008	0.00000E+000	-3.74150E-001	1.02619E-003	5	..........a	-327.66
	210	42.2	-3.84071E-001	-4.58092E-008	0.00000E+000	-3.84150E-001	1.02289E-003	5	..........a	-327.66
	211	42.4	-3.93960E-001	-4.65428E-008	0.00000E+000	-3.94150E-001	1.01359E-003	5	..........a	-327.66
	212	42.6	-4.04038E-001	-4.71212E-008	0.00000E+000	-4.04150E-001	1.01769E-003	5	..........a	-327.66
	213	42.8	-4.14023E-001	-4.81065E-008	0.00000E+000	-4.14150E-001	1.01489E-003	5	..........a	-327.66
	214	43	-4.24005E-001	-4.87327E-008	0.00000E+000	-4.24150E-001	1.01279E-003	5	..........a	-327.66
	215	43.2	-4.33936E-001	-4.98768E-008	0.00000E+000	-4.34150E-001	1.02999E-003	5	..........a	-327.66
	216	43.4	-4.43981E-001	-5.04486E-008	0.00000E+000	-4.44150E-001	1.02509E-003	5	..........a	-327.66
	217	43.6	-4.53977E-001	-5.12693E-008	0.00000E+000	-4.54150E-001	1.02979E-003	5	..........a	-327.66
	218	43.8	-4.64014E-001	-5.22411E-008	0.00000E+000	-4.64150E-001	9.98392E-004	5	..........a	-327.66
	219	44	-4.73958E-001	-5.34124E-008	0.00000E+000	-4.74150E-001	1.00589E-003	5	..........a	-327.66
	220	44.2	-4.83970E-001	-5.44295E-008	0.00000E+000	-4.84150E-001	1.01089E-003	5	..........a	-327.66
	221	44.4	-4.94007E-001	-5.56090E-008	0.00000E+000	-4.94150E-001	1.04419E-003	5	..........a	-327.66
	222	44.6	-5.03988E-001	-5.65478E-008	0.00000E+000	-5.04150E-001	1.01799E-003	5	..........a	-327.66
	223	44.8	-5.13981E-001	-5.76334E-008	0.00000E+000	-5.14150E-001	1.01779E-003	5	..........a	-327.66
	224	45	-5.23975E-001	-5.89831E-008	0.00000E+000	-5.24150E-001	1.00069E-003	5	..........a	-327.66
	225	45.2	-5.34001E-001	-6.03236E-008	0.00000E+000	-5.34150E-001	1.02069E-003	5	..........a	-327.66
	226	45.4	-5.44038E-001	-6.15127E-008	0.00000E+000	-5.44150E-001	1.03029E-003	5	..........a	-327.66
	227	45.6	-5.53962E-001	-6.32707E-008	0.00000E+000	-5.54150E-001	1.02339E-003	5	..........a	-327.66
	228	45.8	-5.64003E-001	-6.47958E-008	0.00000E+000	-5.64150E-001	1.01669E-003	5	..........a	-327.66
	229	46	-5.73975E-001	-6.62810E-008	0.00000E+000	-5.74150E-001	1.02969E-003	5	..........a	-327.66
	230	46.2	-5.84028E-001	-6.80393E-008	0.00000E+000	-5.84150E-001	1.01649E-003	5	..........a	-327.66
	231	46.4	-5.93979E-001	-7.04407E-008	0.00000E+000	-5.94150E-001	1.02259E-003	5	..........a	-327.66
	232	46.6	-6.03979E-001	-7.26484E-008	0.00000E+000	-6.04150E-001	1.00109E-003	5	..........a	-327.66
CURVE2	TABLE
	Pt	T	Vf	Im	Vu	Sig	Ach	IERange	Over	Temp
	#	s	V vs. Ref.	A	V	V	V	#	bits	deg C
	233	46.8	-5.89861E-001	-6.07427E-008	0.00000E+000	-5.90000E-001	1.02289E-003	5	..........a	-327.66
	234	47	-5.79801E-001	-5.48900E-008	0.00000E+000	-5.80000E-001	1.00419E-003	5	..........a	-327.66
	235	47.2	-5.69866E-001	-5.06297E-008	0.00000E+000	-5.70000E-001	1.03419E-003	5	..........a	-327.66
	236	47.4	-5.59883E-001	-4.74070E-008	0.00000E+000	-5.60000E-001	1.01009E-003	5	..........a	-327.66
	237	47.6	-5.49855E-001	-4.42916E-008	0.00000E+000	-5.50000E-001	1.03699E-003	5	..........a	-327.66
	238	47.8	-5.39795E-001	-4.19039E-008	0.00000E+000	-5.40000E-001	1.01979E-003	5	..........a	-327.66
	239	48	-5.29837E-001	-3.91693E-008	0.00000E+000	-5.30000E-001	9.90792E-004	5	..........a	-327.66
	240	48.2	-5.19885E-001	-3.69631E-008	0.00000E+000	-5.20000E-001	9.95592E-004	5	..........a	-327.66
	241	48.4	-5.09857E-001	-3.50494E-008	0.00000E+000	-5.10000E-001	1.01759E-003	5	..........a	-327.66
	242	48.6	-4.99831E-001	-3.31683E-008	0.00000E+000	-5.00000E-001	1.02839E-003	5	..........a	-327.66
	243	48.8	-4.89858E-001	-3.11313E-008	0.00000E+000	-4.90000E-001	1.01989E-003	5	..........a	-327.66
	244	49	-4.79846E-001	-2.94273E-008	0.00000E+000	-4.80000E-001	1.00149E-003	5	..........a	-327.66
	245	49.2	-4.69863E-001	-2.75160E-008	0.00000E+000	-4.70000E-001	1.00319E-003	5	..........a	-327.66
	246	49.4	-4.59821E-001	-2.59492E-008	0.00000E+000	-4.60000E-001	1.01769E-003	5	..........a	-327.66
	247	49.6	-4.49847E-001	-2.44361E-008	0.00000E+000	-4.50000E-001	1.01949E-003	5	..........a	-327.66
	248	49.8	-4.39943E-001	-2.29483E-008	0.00000E+000	-4.40000E-001	1.01849E-003	5	..........a	-327.66
	249	50	-4.29860E-001	-2.10391E-008	0.00000E+000	-4.30000E-001	1.01699E-003	5	..........a	-327.66
	250	50.2	-4.19795E-001	-1.98365E-008	0.00000E+000	-4.20000E-001	9.95692E-004	5	..........a	-327.66
	251	50.4	-4.09859E-001	-1.83694E-008	0.00000E+000	-4.10000E-001	1.01829E-003	5	..........a	-327.66
	252	50.6	-3.99881E-001	-1.69678E-008	0.00000E+000	-4.00000E-001	1.00159E-003	5	..........a	-327.66
	253	50.8	-3.89908E-001	-1.57442E-008	0.00000E+000	-3.90000E-001	1.02799E-003	5	..........a	-327.66
	254	51	-3.79860E-001	-1.44593E-008	0.00000E+000	-3.80000E-001	1.00839E-003	5	..........a	-327.66
	255	51.2	-3.69871E-001	-1.33649E-008	0.00000E+000	-3.70000E-001	1.00179E-003	5	..........a	-327.66
	256	51.4	-3.59931E-001	-1.20440E-008	0.00000E+000	-3.60000E-001	1.01649E-003	5	..........a	-327.66
	257	51.6	-3.49873E-001	-1.09446E-008	0.00000E+000	-3.50000E-001	9.93992E-004	5	..........a	-327.66
	258	51.8	-3.39860E-001	-9.77146E-009	0.00000E+000	-3.40000E-001	1.01889E-003	5	..........a	-327.66
	259	52	-3.29875E-001	-8.79416E-009	0.00000E+000	-3.30000E-001	1.02219E-003	5	..........a	-327.66
	260	52.2	-3.19887E-001	-7.83387E-009	0.00000E+000	-3.20000E-001	1.02139E-003	5	..........a	-327.66
	261	52.4	-3.09918E-001	-6.83908E-009	0.00000E+000	-3.10000E-001	1.01919E-003	5	..........a	-327.66
	262	52.6	-2.99858E-001	-5.89690E-009	0.00000E+000	-3.00000E-001	1.01589E-003	5	..........a	-327.66
	263	52.8	-2.89879E-001	-5.05756E-009	0.00000E+000	-2.90000E-001	1.02169E-003	5	..........a	-327.66
	264	53	-2.79868E-001	-4.20554E-009	0.00000E+000	-2.80000E-001	1.02259E-003	5	..........a	-327.66
	265	53.2	-2.69875E-001	-3.25827E-009	0.00000E+000	-2.70000E-001	1.00799E-003	5	..........a	-327.66
	266	53.4	-2.59849E-001	-2.37032E-009	0.00000E+000	-2.60000E-001	1.00429E-003	5	..........a	-327.66
	267	53.6	-2.49938E-001	-1.47160E-009	0.00000E+000	-2.50000E-001	1.03369E-003	5	..........a	-327.66
	268	53.8	-2.39958E-001	-6.20967E-010	0.00000E+000	-2.40000E-001	1.02029E-003	5	..........a	-327.66
	269	54	-2.29965E-001	2.15455E-010	0.00000E+000	-2.30000E-001	1.02589E-003	5	..........a	-327.66
	270	54.2	-2.19888E-001	1.08975E-009	0.00000E+000	-2.20000E-001	1.01689E-003	5	..........a	-327.66
	271	54.4	-2.09922E-001	1.88239E-009	0.00000E+000	-2.10000E-001	1.01579E-003	5	..........a	-327.66
	272	54.6	-2.00071E-001	2.62515E-009	0.00000E+000	-2.00000E-001	1.02449E-003	5	..........a	-327.66
	273	54.8	-1.89923E-001	3.47122E-009	0.00000E+000	-1.90000E-001	1.03749E-003	5	..........a	-327.66
	274	55	-1.79922E-001	4.26520E-009	0.00000E+000	-1.80000E-001	1.00779E-003	5	..........a	-327.66
	275	55.2	-1.69897E-001	5.01822E-009	0.00000E+000	-1.70000E-001	1.01689E-003	5	..........a	-327.66
	276	55.4	-1.60022E-001	5.75111E-009	0.00000E+000	-1.60000E-001	1.03349E-003	5	..........a	-327.66
	277	55.6	-1.49970E-001	6.46050E-009	0.00000E+000	-1.50000E-001	1.01949E-003	5	..........a	-327.66
	278	55.8	-1.39867E-001	7.17911E-009	0.00000E+000	-1.40000E-001	1.01049E-003	5	..........a	-327.66
	279	56	-1.30029E-001	7.87389E-009	0.00000E+000	-1.30000E-001	1.03399E-003	5	..........a	-327.66
	280	56.2	-1.19973E-001	8.59025E-009	0.00000E+000	-1.20000E-001	1.02669E-003	5	..........a	-327.66
	281	56.4	-1.09985E-001	9.29781E-009	0.00000E+000	-1.10000E-001	1.03579E-003	5	..........a	-327.66
	282	56.6	-9.99027E-002	9.96588E-009	0.00000E+000	-1.00000E-001	1.00029E-003	5	..........a	-327.66
	283	56.8	-8.99005E-002	1.06454E-008	0.00000E+000	-9.00000E-002	9.98492E-004	5	..........a	-327.66
	284	57	-8.00084E-002	1.13622E-008	0.00000E+000	-8.00000E-002	1.02369E-003	5	..........a	-327.66
	285	57.2	-6.99216E-002	1.20600E-008	0.00000E+000	-7.00000E-002	1.00529E-003	5	..........a	-327.66
	286	57.4	-5.98830E-002	1.27578E-008	0.00000E+000	-6.00000E-002	1.01329E-003	5	..........a	-327.66
	287	57.6	-4.99527E-002	1.34892E-008	0.00000E+000	-5.00000E-002	1.01979E-003	5	..........a	-327.66
	288	57.8	-3.99431E-002	1.42249E-008	0.00000E+000	-4.00000E-002	1.01289E-003	5	..........a	-327.66
	289	58	-2.99517E-002	1.49646E-008	0.00000E+000	-3.00000E-002	1.03349E-003	5	..........a	-327.66
	290	58.2	-1.99223E-002	1.57329E-008	0.00000E+000	-2.00000E-002	1.03399E-003	5	..........a	-327.66
	291	58.4	-9.89181E-003	1.65202E-008	0.00000E+000	-1.00000E-002	1.03749E-003	5	..........a	-327.66
	292	58.6	-1.20833E-006	1.73106E-008	0.00000E+000	7.45058E-009	1.04649E-003	5	..........a	-327.66
	293	58.8	1.00682E-002	1.81579E-008	0.00000E+000	1.00000E-002	1.01159E-003	5	..........a	-327.66
	294	59	2.00757E-002	1.90210E-008	0.00000E+000	2.00000E-002	1.02609E-003	5	..........a	-327.66
	295	59.2	3.00542E-002	1.99316E-008	0.00000E+000	3.00000E-002	1.01869E-003	5	..........a	-327.66
	296	59.4	3.99843E-002	2.08443E-008	0.00000E+000	4.00000E-002	1.04149E-003	5	..........a	-327.66
	297	59.6	5.00087E-002	2.18508E-008	0.00000E+000	5.00000E-002	1.01989E-003	5	..........a	-327.66
	298	59.8	6.00790E-002	2.28966E-008	0.00000E+000	6.00000E-002	1.02489E-003	5	..........a	-327.66
	299	60	6.99618E-002	2.39903E-008	0.00000E+000	7.00000E-002	1.04989E-003	5	..........a	-327.66
	300	60.2	8.00149E-002	2.51529E-008	0.00000E+000	8.00000E-002	1.04929E-003	5	..........a	-327.66
	301	60.4	9.00797E-002	2.63056E-008	0.00000E+000	9.00000E-002	1.00539E-003	5	..........a	-327.66
	302	60.6	1.00116E-001	2.75621E-008	0.00000E+000	1.00000E-001	1.01859E-003	5	..........a	-327.66
	303	60.8	1.10062E-001	2.90578E-008	0.00000E+000	1.10000E-001	1.02349E-003	5	..........a	-327.66
	304	61	1.20003E-001	3.05832E-008	0.00000E+000	1.20000E-001	1.02319E-003	5	..........a	-327.66
	305	61.2	1.30035E-001	3.22161E-008	0.00000E+000	1.30000E-001	1.01599E-003	5	..........a	-327.66
	306	61.4	1.40081E-001	3.33765E-008	0.00000E+000	1.40000E-001	1.00809E-003	5	..........a	-327.66
	307	61.6	1.50009E-001	3.44355E-008	0.00000E+000	1.50000E-001	1.02599E-003	5	..........a	-327.66
	308	61.8	1.60030E-001	3.58333E-008	0.00000E+000	1.60000E-001	1.00409E-003	5	..........a	-327.66
	309	62	1.70077E-001	3.72528E-008	0.00000E+000	1.70000E-001	1.00739E-003	5	..........a	-327.66
	310	62.2	1.80039E-001	3.87142E-008	0.00000E+000	1.80000E-001	1.01019E-003	5	..........a	-327.66
	311	62.4	1.90093E-001	4.01785E-008	0.00000E+000	1.90000E-001	1.02289E-003	5	..........a	-327.66
	312	62.6	2.00009E-001	4.15786E-008	0.00000E+000	2.00000E-001	1.03909E-003	5	..........a	-327.66
	313	62.8	2.09988E-001	4.28658E-008	0.00000E+000	2.10000E-001	1.00979E-003	5	..........a	-327.66
	314	63	2.20093E-001	4.40035E-008	0.00000E+000	2.20000E-001	1.02469E-003	5	..........a	-327.66
	315	63.2	2.29968E-001	4.49115E-008	0.00000E+000	2.30000E-001	1.02459E-003	5	..........a	-327.66
	316	63.4	2.40010E-001	4.56886E-008	0.00000E+000	2.40000E-001	1.04169E-003	5	..........a	-327.66
	317	63.6	2.49956E-001	4.62907E-008	0.00000E+000	2.50000E-001	1.02769E-003	5	..........a	-327.66
	318	63.8	2.60033E-001	4.68231E-008	0.00000E+000	2.60000E-001	1.00689E-003	5	..........a	-327.66
	319	64	2.70029E-001	4.73539E-008	0.00000E+000	2.70000E-001	1.01959E-003	5	..........a	-327.66
	320	64.2	2.79951E-001	4.79594E-008	0.00000E+000	2.80000E-001	1.02939E-003	5	..........a	-327.66
	321	64.4	2.89971E-001	4.86307E-008	0.00000E+000	2.90000E-001	1.03209E-003	5	..........a	-327.66
	322	64.6	3.00054E-001	4.93262E-008	0.00000E+000	3.00000E-001	1.01359E-003	5	..........a	-327.66
	323	64.8	3.09996E-001	5.01323E-008	0.00000E+000	3.10000E-001	1.00909E-003	5	..........a	-327.66
	324	65	3.20011E-001	5.09945E-008	0.00000E+000	3.20000E-001	1.00409E-003	5	..........a	-327.66
	325	65.2	3.29991E-001	5.19916E-008	0.00000E+000	3.30000E-001	1.03279E-003	5	..........a	-327.66
	326	65.4	3.40057E-001	5.29829E-008	0.00000E+000	3.40000E-001	1.00679E-003	5	..........a	-327.66
	327	65.6	3.49959E-001	5.40706E-008	0.00000E+000	3.50000E-001	1.01079E-003	5	..........a	-327.66
	328	65.8	3.59976E-001	5.52281E-008	0.00000E+000	3.60000E-001	1.01549E-003	5	..........a	-327.66
	329	66	3.70019E-001	5.64617E-008	0.00000E+000	3.70000E-001	1.02639E-003	5	..........a	-327.66
	330	66.2	3.80064E-001	5.77342E-008	0.00000E+000	3.80000E-001	9.89092E-004	5	..........a	-327.66
	331	66.4	3.90003E-001	5.90430E-008	0.00000E+000	3.90000E-001	1.02319E-003	5	..........a	-327.66
	332	66.6	3.99965E-001	6.04970E-008	0.00000E+000	4.00000E-001	1.01829E-003	5	..........a	-327.66
	333	66.8	4.09941E-001	6.19465E-008	0.00000E+000	4.10000E-001	1.05209E-003	5	..........a	-327.66
	334	67	4.20003E-001	6.35727E-008	0.00000E+000	4.20000E-001	1.01669E-003	5	..........a	-327.66
	335	67.2	4.29972E-001	6.52287E-008	0.00000E+000	4.30000E-001	1.00499E-003	5	..........a	-327.66
	336	67.4	4.39954E-001	6.70061E-008	0.00000E+000	4.40000E-001	1.00709E-003	5	..........a	-327.66
	337	67.6	4.49852E-001	6.89231E-008	0.00000E+000	4.50000E-001	9.92492E-004	5	..........a	-327.66
	338	67.8	4.59990E-001	7.09753E-008	0.00000E+000	4.60000E-001	1.01679E-003	5	..........a	-327.66
	339	68	4.70023E-001	7.31928E-008	0.00000E+000	4.70000E-001	1.01859E-003	5	..........a	-327.66
	340	68.2	4.79916E-001	7.55429E-008	0.00000E+000	4.80000E-001	1.03479E-003	5	..........a	-327.66
	341	68.4	4.89972E-001	7.80201E-008	0.00000E+000	4.90000E-001	1.02269E-003	5	..........a	-327.66
	342	68.6	5.00025E-001	8.06756E-008	0.00000E+000	5.00000E-001	1.00079E-003	5	..........a	-327.66
	343	68.8	5.09969E-001	8.35252E-008	0.00000E+000	5.10000E-001	1.01809E-003	5	..........a	-327.66
	344	69	5.19950E-001	8.64414E-008	0.00000E+000	5.20000E-001	1.00269E-003	5	..........a	-327.66
	345	69.2	5.29918E-001	8.94796E-008	0.00000E+000	5.30000E-001	1.00849E-003	5	..........a	-327.66
	346	69.4	5.39971E-001	9.25846E-008	0.00000E+000	5.40000E-001	1.00169E-003	5	..........a	-327.66
	347	69.6	5.50013E-001	9.57250E-008	0.00000E+000	5.50000E-001	1.02709E-003	5	..........a	-327.66
	348	69.8	5.59943E-001	9.88814E-008	0.00000E+000	5.60000E-001	1.01959E-003	5	..........a	-327.66
	349	70	5.69933E-001	1.02009E-007	0.00000E+000	5.70000E-001	1.02949E-003	5	..........a	-327.66
	350	70.2	5.79988E-001	1.05195E-007	0.00000E+000	5.80000E-001	1.02629E-003	5	..........a	-327.66
	351	70.4	5.90005E-001	1.08335E-007	0.00000E+000	5.90000E-001	1.03289E-003	5	..........a	-327.66
	352	70.6	5.99933E-001	1.11536E-007	0.00000E+000	6.00000E-001	1.00789E-003	5	..........a	-327.66
	353	70.8	6.09920E-001	1.14833E-007	0.00000E+000	6.10000E-001	1.02279E-003	5	..........a	-327.66
	354	71	6.19905E-001	1.18175E-007	0.00000E+000	6.20000E-001	1.00609E-003	5	..........a	-327.66
[...]
	922	184.6	6.99888E-001	1.35881E-007	0.00000E+000	7.00000E-001	1.01189E-003	5	..........a	-327.66
	923	184.8	7.09966E-001	1.40406E-007	0.00000E+000	7.10000E-001	1.02759E-003	5	..........a	-327.66
	924	185	7.19889E-001	1.45100E-007	0.00000E+000	7.20000E-001	1.01199E-003	5	..........a	-327.66
	925	185.2	7.29912E-001	1.49965E-007	0.00000E+000	7.30000E-001	1.03419E-003	5	..........a	-327.66
	926	185.4	7.39887E-001	1.55032E-007	0.00000E+000	7.40000E-001	1.00279E-003	5	..........a	-327.66
	927	185.6	7.49956E-001	1.60284E-007	0.00000E+000	7.50000E-001	1.01089E-003	5	..........a	-327.66
	928	185.8	7.59876E-001	1.65805E-007	0.00000E+000	7.60000E-001	1.01179E-003	5	..........a	-327.66
	929	186	7.69857E-001	1.71271E-007	0.00000E+000	7.70000E-001	1.01779E-003	5	..........a	-327.66
	930	186.2	7.79867E-001	1.77023E-007	0.00000E+000	7.80000E-001	1.02539E-003	5	..........a	-327.66
	931	186.4	7.89960E-001	1.83014E-007	0.00000E+000	7.90000E-001	1.02799E-003	5	..........a	-327.66
	932	186.6	7.99856E-001	1.89429E-007	0.00000E+000	8.00000E-001	1.01399E-003	5	..........a	-327.66
	933	186.8	7.89969E-001	1.54554E-007	0.00000E+000	7.90000E-001	1.02449E-003	5	..........a	-327.66
	934	187	7.79886E-001	1.31932E-007	0.00000E+000	7.80000E-001	1.00519E-003	5	..........a	-327.66
	935	187.2	7.69848E-001	1.15164E-007	0.00000E+000	7.70000E-001	9.99692E-004	5	..........a	-327.66
	936	187.4	7.59908E-001	1.01931E-007	0.00000E+000	7.60000E-001	1.02139E-003	5	..........a	-327.66
	937	187.6	7.49986E-001	9.10816E-008	0.00000E+000	7.50000E-001	1.01979E-003	5	..........a	-327.66
	938	187.8	7.39917E-001	8.19340E-008	0.00000E+000	7.40000E-001	1.01389E-003	5	..........a	-327.66
	939	188	7.29913E-001	7.40202E-008	0.00000E+000	7.30000E-001	1.00959E-003	5	..........a	-327.66
	940	188.2	7.19933E-001	6.71484E-008	0.00000E+000	7.20000E-001	1.01699E-003	5	..........a	-327.66
	941	188.4	7.09988E-001	6.10246E-008	0.00000E+000	7.10000E-001	1.01259E-003	5	..........a	-327.66
	942	188.6	6.99935E-001	5.56429E-008	0.00000E+000	7.00000E-001	1.00999E-003	5	..........a	-327.66
	943	188.8	6.89908E-001	5.07284E-008	0.00000E+000	6.90000E-001	1.02549E-003	5	..........a	-327.66
	944	189	6.79918E-001	4.63195E-008	0.00000E+000	6.80000E-001	1.00049E-003	5	..........a	-327.66
	945	189.2	6.69986E-001	4.23377E-008	0.00000E+000	6.70000E-001	1.01339E-003	5	..........a	-327.66
	946	189.4	6.59977E-001	3.86587E-008	0.00000E+000	6.60000E-001	9.98792E-004	5	..........a	-327.66
	947	189.6	6.49971E-001	3.53265E-008	0.00000E+000	6.50000E-001	9.98692E-004	5	..........a	-327.66
	948	189.8	6.39905E-001	3.22699E-008	0.00000E+000	6.40000E-001	1.03699E-003	5	..........a	-327.66
	949	190	6.30013E-001	2.94082E-008	0.00000E+000	6.30000E-001	1.01309E-003	5	..........a	-327.66
	950	190.2	6.19959E-001	2.67841E-008	0.00000E+000	6.20000E-001	1.02699E-003	5	..........a	-327.66
	951	190.4	6.09958E-001	2.42880E-008	0.00000E+000	6.10000E-001	1.01999E-003	5	..........a	-327.66
	952	190.6	5.99999E-001	2.19874E-008	0.00000E+000	6.00000E-001	1.00839E-003	5	..........a	-327.66
	953	190.8	5.90015E-001	1.97822E-008	0.00000E+000	5.90000E-001	1.00529E-003	5	..........a	-327.66
	954	191	5.80040E-001	1.76904E-008	0.00000E+000	5.80000E-001	1.01289E-003	5	..........a	-327.66
	955	191.2	5.69987E-001	1.56829E-008	0.00000E+000	5.70000E-001	1.01619E-003	5	..........a	-327.66
	956	191.4	5.59944E-001	1.37645E-008	0.00000E+000	5.60000E-001	1.02809E-003	5	..........a	-327.66
	957	191.6	5.50052E-001	1.18734E-008	0.00000E+000	5.50000E-001	1.02059E-003	5	..........a	-327.66
	958	191.8	5.40016E-001	1.00149E-008	0.00000E+000	5.40000E-001	9.88792E-004	5	..........a	-327.66
	959	192	5.29927E-001	8.24346E-009	0.00000E+000	5.30000E-001	1.02779E-003	5	..........a	-327.66
	960	192.2	5.19995E-001	6.48676E-009	0.00000E+000	5.20000E-001	1.01199E-003	5	..........a	-327.66
	961	192.4	5.09977E-001	4.76685E-009	0.00000E+000	5.10000E-001	1.00889E-003	5	..........a	-327.66
	962	192.6	5.00087E-001	3.08520E-009	0.00000E+000	5.00000E-001	1.00489E-003	5	..........a	-327.66
	963	192.8	4.89968E-001	1.45408E-009	0.00000E+000	4.90000E-001	1.01799E-003	5	..........a	-327.66
	964	193	4.79944E-001	-1.98091E-010	0.00000E+000	4.80000E-001	1.01369E-003	5	..........a	-327.66
	965	193.2	4.70025E-001	-1.76538E-009	0.00000E+000	4.70000E-001	9.98792E-004	5	..........a	-327.66
	966	193.4	4.60039E-001	-3.27539E-009	0.00000E+000	4.60000E-001	1.00449E-003	5	..........a	-327.66
	967	193.6	4.50059E-001	-4.75562E-009	0.00000E+000	4.50000E-001	1.01599E-003	5	..........a	-327.66
	968	193.8	4.40007E-001	-6.17725E-009	0.00000E+000	4.40000E-001	1.00179E-003	5	..........a	-327.66
	969	194	4.30020E-001	-7.56749E-009	0.00000E+000	4.30000E-001	1.02719E-003	5	..........a	-327.66
	970	194.2	4.20055E-001	-8.92903E-009	0.00000E+000	4.20000E-001	1.00429E-003	5	..........a	-327.66
	971	194.4	4.10028E-001	-1.03151E-008	0.00000E+000	4.10000E-001	1.01679E-003	5	..........a	-327.66
	972	194.6	4.00036E-001	-1.16285E-008	0.00000E+000	4.00000E-001	1.00679E-003	5	..........a	-327.66
	973	194.8	3.90063E-001	-1.29229E-008	0.00000E+000	3.90000E-001	1.03949E-003	5	..........a	-327.66
	974	195	3.80084E-001	-1.42295E-008	0.00000E+000	3.80000E-001	1.00839E-003	5	..........a	-327.66
	975	195.2	3.70078E-001	-1.56578E-008	0.00000E+000	3.70000E-001	1.01859E-003	5	..........a	-327.66
	976	195.4	3.60005E-001	-1.70467E-008	0.00000E+000	3.60000E-001	1.00419E-003	5	..........a	-327.66
	977	195.6	3.50035E-001	-1.85480E-008	0.00000E+000	3.50000E-001	1.01859E-003	5	..........a	-327.66
	978	195.8	3.40110E-001	-2.01283E-008	0.00000E+000	3.40000E-001	1.01159E-003	5	..........a	-327.66
	979	196	3.30039E-001	-2.18019E-008	0.00000E+000	3.30000E-001	1.00909E-003	5	..........a	-327.66
	980	196.2	3.20075E-001	-2.35418E-008	0.00000E+000	3.20000E-001	1.03259E-003	5	..........a	-327.66
	981	196.4	3.10072E-001	-2.54121E-008	0.00000E+000	3.10000E-001	1.00259E-003	5	..........a	-327.66
	982	196.6	3.00121E-001	-2.74023E-008	0.00000E+000	3.00000E-001	1.00269E-003	5	..........a	-327.66
	983	196.8	2.90085E-001	-2.95131E-008	0.00000E+000	2.90000E-001	1.03029E-003	5	..........a	-327.66
	984	197	2.80011E-001	-3.18102E-008	0.00000E+000	2.80000E-001	1.04719E-003	5	..........a	-327.66
	985	197.2	2.70082E-001	-3.41935E-008	0.00000E+000	2.70000E-001	1.00379E-003	5	..........a	-327.66
	986	197.4	2.60089E-001	-3.66785E-008	0.00000E+000	2.60000E-001	9.99392E-004	5	..........a	-327.66
	987	197.6	2.50028E-001	-3.92122E-008	0.00000E+000	2.50000E-001	1.01299E-003	5	..........a	-327.66
	988	197.8	2.40077E-001	-4.17971E-008	0.00000E+000	2.40000E-001	1.00879E-003	5	..........a	-327.66
	989	198	2.30047E-001	-4.42174E-008	0.00000E+000	2.30000E-001	1.02809E-003	5	..........a	-327.66
	990	198.2	2.20124E-001	-4.64723E-008	0.00000E+000	2.20000E-001	1.00259E-003	5	..........a	-327.66
	991	198.4	2.10042E-001	-4.84266E-008	0.00000E+000	2.10000E-001	1.03139E-003	5	..........a	-327.66
	992	198.6	2.00096E-001	-4.99794E-008	0.00000E+000	2.00000E-001	1.01429E-003	5	..........a	-327.66
	993	198.8	1.90145E-001	-5.10915E-008	0.00000E+000	1.90000E-001	1.02369E-003	5	..........a	-327.66
	994	199	1.80148E-001	-5.17203E-008	0.00000E+000	1.80000E-001	9.89792E-004	5	..........a	-327.66
	995	199.2	1.70095E-001	-5.17304E-008	0.00000E+000	1.70000E-001	1.00689E-003	5	..........a	-327.66
	996	199.4	1.60090E-001	-5.12018E-008	0.00000E+000	1.60000E-001	1.00429E-003	5	..........a	-327.66
	997	199.6	1.50106E-001	-5.00976E-008	0.00000E+000	1.50000E-001	1.05239E-003	5	..........a	-327.66
	998	199.8	1.40149E-001	-4.84786E-008	0.00000E+000	1.40000E-001	9.92592E-004	5	..........a	-327.66
	999	200	1.30101E-001	-4.64162E-008	0.00000E+000	1.30000E-001	1.00539E-003	5	..........a	-327.66
	1000	200.2	1.20075E-001	-4.39307E-008	0.00000E+000	1.20000E-001	1.00959E-003	5	..........a	-327.66
	1001	200.4	1.10117E-001	-4.12102E-008	0.00000E+000	1.10000E-001	1.02719E-003	5	..........a	-327.66
	1002	200.6	1.00162E-001	-3.84593E-008	0.00000E+000	1.00000E-001	9.93892E-004	5	..........a	-327.66
	1003	200.8	9.01159E-002	-3.59401E-008	0.00000E+000	9.00000E-002	9.96692E-004	5	..........a	-327.66
	1004	201	8.00470E-002	-3.36648E-008	0.00000E+000	8.00000E-002	1.02279E-003	5	..........a	-327.66
	1005	201.2	7.00425E-002	-3.18617E-008	0.00000E+000	7.00000E-002	1.00379E-003	5	..........a	-327.66
	1006	201.4	6.01403E-002	-3.03949E-008	0.00000E+000	6.00000E-002	9.99092E-004	5	..........a	-327.66
	1007	201.6	5.00886E-002	-2.92427E-008	0.00000E+000	5.00000E-002	1.02269E-003	5	..........a	-327.66
	1008	201.8	4.00550E-002	-2.83201E-008	0.00000E+000	4.00000E-002	1.00929E-003	5	..........a	-327.66
	1009	202	3.00598E-002	-2.76475E-008	0.00000E+000	3.00000E-002	1.02549E-003	5	..........a	-327.66
	1010	202.2	2.01484E-002	-2.73504E-008	0.00000E+000	2.00000E-002	9.96492E-004	5	..........a	-327.66
	1011	202.4	1.01211E-002	-2.70354E-008	0.00000E+000	1.00000E-002	1.01699E-003	5	..........a	-327.66
	1012	202.6	4.76917E-005	-2.62653E-008	0.00000E+000	7.45058E-009	1.00179E-003	5	..........a	-327.66
	1013	202.8	-9.86841E-003	-2.55904E-008	0.00000E+000	-1.00000E-002	1.02919E-003	5	..........a	-327.66
	1014	203	-1.98870E-002	-2.53446E-008	0.00000E+000	-2.00000E-002	9.92092E-004	5	..........a	-327.66
	1015	203.2	-2.99129E-002	-2.49677E-008	0.00000E+000	-3.00000E-002	9.97092E-004	5	..........a	-327.66
	1016	203.4	-3.98877E-002	-2.47452E-008	0.00000E+000	-4.00000E-002	1.01769E-003	5	..........a	-327.66
	1017	203.6	-4.98750E-002	-2.47461E-008	0.00000E+000	-5.00000E-002	1.00949E-003	5	..........a	-327.66
	1018	203.8	-5.98640E-002	-2.47890E-008	0.00000E+000	-6.00000E-002	1.01649E-003	5	..........a	-327.66
	1019	204	-6.98863E-002	-2.48992E-008	0.00000E+000	-7.00000E-002	1.02519E-003	5	..........a	-327.66
	1020	204.2	-7.99049E-002	-2.52092E-008	0.00000E+000	-8.00000E-002	1.02629E-003	5	..........a	-327.66
	1021	204.4	-8.98965E-002	-2.60681E-008	0.00000E+000	-9.00000E-002	1.00339E-003	5	..........a	-327.66
	1022	204.6	-9.98833E-002	-2.58272E-008	0.00000E+000	-1.00000E-001	1.00159E-003	5	..........a	-327.66
	1023	204.8	-1.09956E-001	-2.62944E-008	0.00000E+000	-1.10000E-001	9.92692E-004	5	..........a	-327.66
	1024	205	-1.19933E-001	-2.70387E-008	0.00000E+000	-1.20000E-001	1.01849E-003	5	..........a	-327.66
	1025	205.2	-1.29973E-001	-2.74727E-008	0.00000E+000	-1.30000E-001	1.01749E-003	5	..........a	-327.66
	1026	205.4	-1.39836E-001	-2.81296E-008	0.00000E+000	-1.40000E-001	9.99292E-004	5	..........a	-327.66
	1027	205.6	-1.49929E-001	-2.88801E-008	0.00000E+000	-1.50000E-001	1.01019E-003	5	..........a	-327.66
	1028	205.8	-1.59934E-001	-2.96803E-008	0.00000E+000	-1.60000E-001	9.99092E-004	5	..........a	-327.66
	1029	206	-1.69879E-001	-3.04774E-008	0.00000E+000	-1.70000E-001	1.02529E-003	5	..........a	-327.66
	1030	206.2	-1.79900E-001	-3.13561E-008	0.00000E+000	-1.80000E-001	1.02119E-003	5	..........a	-327.66
	1031	206.4	-1.89924E-001	-3.20841E-008	0.00000E+000	-1.90000E-001	1.00519E-003	5	..........a	-327.66
	1032	206.6	-1.99968E-001	-3.27579E-008	0.00000E+000	-2.00000E-001	1.00379E-003	5	..........a	-327.66
	1033	206.8	-2.09896E-001	-3.35093E-008	0.00000E+000	-2.10000E-001	1.00479E-003	5	..........a	-327.66
	1034	207	-2.19853E-001	-3.42935E-008	0.00000E+000	-2.20000E-001	1.00829E-003	5	..........a	-327.66
	1035	207.2	-2.29897E-001	-3.48401E-008	0.00000E+000	-2.30000E-001	1.00209E-003	5	..........a	-327.66
	1036	207.4	-2.39887E-001	-3.54726E-008	0.00000E+000	-2.40000E-001	1.02949E-003	5	..........a	-327.66
	1037	207.6	-2.49871E-001	-3.61547E-008	0.00000E+000	-2.50000E-001	9.93992E-004	5	..........a	-327.66
	1038	207.8	-2.59810E-001	-3.70037E-008	0.00000E+000	-2.60000E-001	1.00569E-003	5	..........a	-327.66
	1039	208	-2.69869E-001	-3.76003E-008	0.00000E+000	-2.70000E-001	1.00459E-003	5	..........a	-327.66
	1040	208.2	-2.79926E-001	-3.83870E-008	0.00000E+000	-2.80000E-001	1.01219E-003	5	..........a	-327.66
	1041	208.4	-2.89877E-001	-3.92308E-008	0.00000E+000	-2.90000E-001	1.01309E-003	5	..........a	-327.66
	1042	208.6	-2.99834E-001	-4.01324E-008	0.00000E+000	-3.00000E-001	1.00829E-003	5	..........a	-327.66
	1043	208.8	-3.09887E-001	-4.10675E-008	0.00000E+000	-3.10000E-001	1.01539E-003	5	..........a	-327.66
	1044	209	-3.19857E-001	-4.19981E-008	0.00000E+000	-3.20000E-001	9.89292E-004	5	..........a	-327.66
	1045	209.2	-3.29910E-001	-4.28873E-008	0.00000E+000	-3.30000E-001	1.00649E-003	5	..........a	-327.66
	1046	209.4	-3.39815E-001	-4.37186E-008	0.00000E+000	-3.40000E-001	1.00459E-003	5	..........a	-327.66
	1047	209.6	-3.49854E-001	-4.44059E-008	0.00000E+000	-3.50000E-001	9.99092E-004	5	..........a	-327.66
	1048	209.8	-3.59867E-001	-4.50105E-008	0.00000E+000	-3.60000E-001	1.03679E-003	5	..........a	-327.66
	1049	210	-3.69849E-001	-4.55889E-008	0.00000E+000	-3.70000E-001	9.90592E-004	5	..........a	-327.66
	1050	210.2	-3.79829E-001	-4.61644E-008	0.00000E+000	-3.80000E-001	1.03099E-003	5	..........a	-327.66
	1051	210.4	-3.89897E-001	-4.67075E-008	0.00000E+000	-3.90000E-001	1.01629E-003	5	..........a	-327.66
	1052	210.6	-3.99850E-001	-4.71903E-008	0.00000E+000	-4.00000E-001	9.97492E-004	5	..........a	-327.66
	1053	210.8	-4.09882E-001	-4.77321E-008	0.00000E+000	-4.10000E-001	1.02029E-003	5	..........a	-327.66
	1054	211	-4.19774E-001	-4.83102E-008	0.00000E+000	-4.20000E-001	9.93892E-004	5	..........a	-327.66
	1055	211.2	-4.29862E-001	-4.88891E-008	0.00000E+000	-4.30000E-001	1.00849E-003	5	..........a	-327.66
	1056	211.4	-4.39843E-001	-4.95109E-008	0.00000E+000	-4.40000E-001	1.01269E-003	5	..........a	-327.66
	1057	211.6	-4.49834E-001	-5.03247E-008	0.00000E+000	-4.50000E-001	9.85592E-004	5	..........a	-327.66
	1058	211.8	-4.59809E-001	-5.08722E-008	0.00000E+000	-4.60000E-001	1.00699E-003	5	..........a	-327.66
	1059	212	-4.69841E-001	-5.15309E-008	0.00000E+000	-4.70000E-001	9.99092E-004	5	..........a	-327.66
	1060	212.2	-4.79841E-001	-5.22188E-008	0.00000E+000	-4.80000E-001	1.00339E-003	5	..........a	-327.66
	1061	212.4	-4.89872E-001	-5.28214E-008	0.00000E+000	-4.90000E-001	1.01169E-003	5	..........a	-327.66
	1062	212.6	-4.99819E-001	-5.35932E-008	0.00000E+000	-5.00000E-001	1.00569E-003	5	..........a	-327.66
	1063	212.8	-5.09853E-001	-5.43498E-008	0.00000E+000	-5.10000E-001	1.00239E-003	5	..........a	-327.66
	1064	213	-5.19860E-001	-5.51636E-008	0.00000E+000	-5.20000E-001	1.01269E-003	5	..........a	-327.66
	1065	213.2	-5.29840E-001	-5.61384E-008	0.00000E+000	-5.30000E-001	1.01629E-003	5	..........a	-327.66
	1066	213.4	-5.39790E-001	-5.71752E-008	0.00000E+000	-5.40000E-001	9.76192E-004	5	..........a	-327.66
	1067	213.6	-5.49878E-001	-5.82554E-008	0.00000E+000	-5.50000E-001	1.02059E-003	5	..........a	-327.66
	1068	213.8	-5.59884E-001	-5.93804E-008	0.00000E+000	-5.60000E-001	1.00949E-003	5	..........a	-327.66
	1069	214	-5.69868E-001	-6.06410E-008	0.00000E+000	-5.70000E-001	9.88692E-004	5	..........a	-327.66
	1070	214.2	-5.79814E-001	-6.20310E-008	0.00000E+000	-5.80000E-001	9.95792E-004	5	..........a	-327.66
	1071	214.4	-5.89882E-001	-6.33725E-008	0.00000E+000	-5.90000E-001	1.01449E-003	5	..........a	-327.66
	1072	214.6	-5.99890E-001	-6.50537E-008	0.00000E+000	-6.00000E-001	9.84292E-004	5	..........a	-327.66
CURVE5	TABLE
	Pt	T	Vf	Im	Vu	Sig	Ach	IERange	Over	Temp
	#	s	V vs. Ref.	A	V	V	V	#	bits	deg C
	1073	214.8	-5.89862E-001	-5.57743E-008	0.00000E+000	-5.90000E-001	1.00999E-003	5	..........a	-327.66
	1074	215	-5.79808E-001	-4.99583E-008	0.00000E+000	-5.80000E-001	1.01349E-003	5	..........a	-327.66
	1075	215.2	-5.69849E-001	-4.55439E-008	0.00000E+000	-5.70000E-001	1.00939E-003	5	..........a	-327.66
	1076	215.4	-5.59859E-001	-4.20248E-008	0.00000E+000	-5.60000E-001	9.88292E-004	5	..........a	-327.66
	1077	215.6	-5.49861E-001	-3.90055E-008	0.00000E+000	-5.50000E-001	1.00539E-003	5	..........a	-327.66
	1078	215.8	-5.39803E-001	-3.63107E-008	0.00000E+000	-5.40000E-001	9.99492E-004	5	..........a	-327.66
	1079	216	-5.29839E-001	-3.40779E-008	0.00000E+000	-5.30000E-001	1.01299E-003	5	..........a	-327.66
	1080	216.2	-5.19903E-001	-3.18898E-008	0.00000E+000	-5.20000E-001	1.02309E-003	5	..........a	-327.66
	1081	216.4	-5.09848E-001	-2.99377E-008	0.00000E+000	-5.10000E-001	1.02479E-003	5	..........a	-327.66
	1082	216.6	-4.99831E-001	-2.81971E-008	0.00000E+000	-5.00000E-001	9.89192E-004	5	..........a	-327.66
	1083	216.8	-4.89854E-001	-2.64388E-008	0.00000E+000	-4.90000E-001	1.02329E-003	5	..........a	-327.66
	1084	217	-4.79850E-001	-2.48603E-008	0.00000E+000	-4.80000E-001	9.94392E-004	5	..........a	-327.66
	1085	217.2	-4.69856E-001	-2.34060E-008	0.00000E+000	-4.70000E-001	1.03129E-003	5	..........a	-327.66
	1086	217.4	-4.59807E-001	-2.19930E-008	0.00000E+000	-4.60000E-001	1.00869E-003	5	..........a	-327.66
	1087	217.6	-4.49846E-001	-2.06796E-008	0.00000E+000	-4.50000E-001	9.96192E-004	5	..........a	-327.66
	1088	217.8	-4.39884E-001	-1.94014E-008	0.00000E+000	-4.40000E-001	1.00979E-003	5	..........a	-327.66
	1089	218	-4.29892E-001	-1.81485E-008	0.00000E+000	-4.30000E-001	9.98592E-004	5	..........a	-327.66
	1090	218.2	-4.19759E-001	-1.68859E-008	0.00000E+000	-4.20000E-001	1.00659E-003	5	..........a	-327.66
	1091	218.4	-4.09860E-001	-1.57814E-008	0.00000E+000	-4.10000E-001	9.97092E-004	5	..........a	-327.66
	1092	218.6	-3.99861E-001	-1.46065E-008	0.00000E+000	-4.00000E-001	9.98992E-004	5	..........a	-327.66
	1093	218.8	-3.89873E-001	-1.35282E-008	0.00000E+000	-3.90000E-001	1.02349E-003	5	..........a	-327.66
	1094	219	-3.79848E-001	-1.24520E-008	0.00000E+000	-3.80000E-001	1.00039E-003	5	..........a	-327.66
	1095	219.2	-3.69854E-001	-1.14621E-008	0.00000E+000	-3.70000E-001	1.00289E-003	5	..........a	-327.66
	1096	219.4	-3.59935E-001	-1.04411E-008	0.00000E+000	-3.60000E-001	1.01699E-003	5	..........a	-327.66
	1097	219.6	-3.49878E-001	-9.43821E-009	0.00000E+000	-3.50000E-001	1.02049E-003	5	..........a	-327.66
	1098	219.8	-3.39874E-001	-8.46774E-009	0.00000E+000	-3.40000E-001	9.96592E-004	5	..........a	-327.66
	1099	220	-3.29953E-001	-7.55749E-009	0.00000E+000	-3.30000E-001	1.01179E-003	5	..........a	-327.66
	1100	220.2	-3.19884E-001	-6.61963E-009	0.00000E+000	-3.20000E-001	9.92592E-004	5	..........a	-327.66
	1101	220.4	-3.09915E-001	-5.73512E-009	0.00000E+000	-3.10000E-001	1.00439E-003	5	..........a	-327.66
	1102	220.6	-2.99847E-001	-4.79750E-009	0.00000E+000	-3.00000E-001	1.01739E-003	5	..........a	-327.66
	1103	220.8	-2.89854E-001	-3.91960E-009	0.00000E+000	-2.90000E-001	1.01789E-003	5	..........a	-327.66
	1104	221	-2.79848E-001	-3.04888E-009	0.00000E+000	-2.80000E-001	1.01319E-003	5	..........a	-327.66
	1105	221.2	-2.69886E-001	-2.19962E-009	0.00000E+000	-2.70000E-001	1.02229E-003	5	..........a	-327.66
	1106	221.4	-2.59864E-001	-1.37699E-009	0.00000E+000	-2.60000E-001	9.96192E-004	5	..........a	-327.66
	1107	221.6	-2.49900E-001	-5.46634E-010	0.00000E+000	-2.50000E-001	1.00039E-003	5	..........a	-327.66
	1108	221.8	-2.39939E-001	3.04648E-010	0.00000E+000	-2.40000E-001	1.00469E-003	5	..........a	-327.66
	1109	222	-2.30012E-001	1.11891E-009	0.00000E+000	-2.30000E-001	1.00679E-003	5	..........a	-327.66
	1110	222.2	-2.19883E-001	1.91502E-009	0.00000E+000	-2.20000E-001	9.92292E-004	5	..........a	-327.66
	1111	222.4	-2.09987E-001	2.72056E-009	0.00000E+000	-2.10000E-001	1.02869E-003	5	..........a	-327.66
	1112	222.6	-1.99983E-001	3.53539E-009	0.00000E+000	-2.00000E-001	9.93692E-004	5	..........a	-327.66
	1113	222.8	-1.89904E-001	4.34705E-009	0.00000E+000	-1.90000E-001	1.00969E-003	5	..........a	-327.66
	1114	223	-1.79941E-001	5.08954E-009	0.00000E+000	-1.80000E-001	1.01149E-003	5	..........a	-327.66
	1115	223.2	-1.69910E-001	5.89523E-009	0.00000E+000	-1.70000E-001	1.00529E-003	5	..........a	-327.66
	1116	223.4	-1.60003E-001	6.67788E-009	0.00000E+000	-1.60000E-001	1.01079E-003	5	..........a	-327.66
	1117	223.6	-1.50074E-001	7.44687E-009	0.00000E+000	-1.50000E-001	1.01409E-003	5	..........a	-327.66
	1118	223.8	-1.39947E-001	8.19146E-009	0.00000E+000	-1.40000E-001	1.01479E-003	5	..........a	-327.66
	1119	224	-1.30015E-001	8.94640E-009	0.00000E+000	-1.30000E-001	1.01639E-003	5	..........a	-327.66
	1120	224.2	-1.19952E-001	9.68296E-009	0.00000E+000	-1.20000E-001	1.02809E-003	5	..........a	-327.66