File: data/raw/batch_data/20240424_G_GM0016_HL03_E02_CV50.DTA
EXPLAIN
TAG	CV
TITLE	LABEL	Cyclic Voltammetry	Test &Identifier
DATE	LABEL	4/24/2024	Date
TIME	LABEL	17:03:10	Time
NOTES	NOTES	1	&Notes...

PSTAT	PSTAT	REF600P-43058	Potentiostat
VINIT	POTEN	0.00000E+000	T	Initial &E (V)
VLIMIT1	POTEN	-6.00000E-001	F	Scan Limit &1 (V)
VLIMIT2	POTEN	8.00000E-001	F	Scan Limit &2 (V)
VFINAL	POTEN	0.00000E+000	T	Final &E (V)
SCANRATE	QUANT	4.99999E+001	&Scan Rate (mV/s)
STEPSIZE	QUANT	1.00000E+001	St&ep Size (mV)
CYCLES	IQUANT	4	C&ycles (#)
IMODE	SELECTOR	0	I/E Range &Mode
IRANGE	QUANT	1.00000E-005	&Max Current (mA)
AREA	QUANT	1.00000E+000	Electrode &Area (cm^2)
ELECTRODETYPE	SELECTOR	0	Electrode Type
STRIPPING	TOGGLE	F	Used for Stripping
POLARITY	TOGGLE	F	Signal Polarity
CONDIT	TWOPARAM	F	1.50000E+001	0.00000E+000	Conditionin&g	Time(s)	E(V)
DELAY	TWOPARAM	T	1.00000E+001	0.00000E+000	Init. De&lay	Time(s)	Stab.(mV/s)
EQDELAY	QUANT	1.00000E+001	Equil. &Time (s)
IRCOMP	SELECTOR	0	IRCom&p
PFCOR	QUANT	5.00000E+001	PF Corr. (ohm)
SAMPLINGMODE	SELECTOR	1	Sampling &Mode
OCVCURVE	TABLE	39
	Pt	T	Vf	Vm	Ach	Over	Temp
	#	s	V vs. Ref.	V	V	bits	deg C
	0	0.258333	-1.48000E-001	-1.48000E-001	2.32726E-004	..........a	-327.66
	1	0.516667	-1.47985E-001	-1.47233E-001	2.37926E-004	..........a	-327.66
	2	0.775	-1.47896E-001	-1.46517E-001	2.39926E-004	..........a	-327.66
	3	1.03333	-1.47643E-001	-1.45845E-001	2.29526E-004	..........a	-327.66
	4	1.29167	-1.47193E-001	-1.45220E-001	2.39992E-004	..........a	-327.66
	5	1.55	-1.46601E-001	-1.44631E-001	2.24526E-004	..........a	-327.66
	6	1.80833	-1.45955E-001	-1.44086E-001	2.32192E-004	..........a	-327.66
	7	2.06667	-1.45316E-001	-1.43579E-001	2.40459E-004	..........a	-327.66
	8	2.325	-1.44715E-001	-1.43104E-001	2.37059E-004	..........a	-327.66
	9	2.58333	-1.44159E-001	-1.42671E-001	2.43592E-004	..........a	-327.66
	10	2.84167	-1.43644E-001	-1.42257E-001	2.37059E-004	..........a	-327.66
	11	3.1	-1.43167E-001	-1.41880E-001	2.32659E-004	..........a	-327.66
	12	3.35833	-1.42724E-001	-1.41534E-001	2.49992E-004	..........a	-327.66
	13	3.61667	-1.42313E-001	-1.41210E-001	2.25859E-004	..........a	-327.66
	14	3.875	-1.41932E-001	-1.40903E-001	2.33326E-004	..........a	-327.66
	15	4.13333	-1.41578E-001	-1.40620E-001	2.23659E-004	..........a	-327.66
	16	4.39167	-1.41249E-001	-1.40356E-001	2.26659E-004	..........a	-327.66
	17	4.65	-1.40943E-001	-1.40125E-001	2.27526E-004	..........a	-327.66
	18	4.90833	-1.40658E-001	-1.39907E-001	2.23059E-004	..........a	-327.66
	19	5.16667	-1.40396E-001	-1.39709E-001	2.35659E-004	..........a	-327.66
	20	5.425	-1.40157E-001	-1.39536E-001	2.44259E-004	..........a	-327.66
	21	5.68333	-1.39938E-001	-1.39367E-001	2.29859E-004	..........a	-327.66
	22	5.94167	-1.39739E-001	-1.39215E-001	2.31192E-004	..........a	-327.66
	23	6.2	-1.39557E-001	-1.39073E-001	2.34126E-004	..........a	-327.66
	24	6.45833	-1.39390E-001	-1.38965E-001	2.29792E-004	..........a	-327.66
	25	6.71667	-1.39238E-001	-1.38860E-001	2.29526E-004	..........a	-327.66
	26	6.975	-1.39102E-001	-1.38756E-001	2.33659E-004	..........a	-327.66
	27	7.23333	-1.38981E-001	-1.38676E-001	2.40259E-004	..........a	-327.66
	28	7.49167	-1.38872E-001	-1.38599E-001	2.34326E-004	..........a	-327.66
	29	7.75	-1.38775E-001	-1.38548E-001	2.27392E-004	..........a	-327.66
	30	8.00833	-1.38691E-001	-1.38496E-001	2.35726E-004	..........a	-327.66
	31	8.26667	-1.38618E-001	-1.38448E-001	2.22526E-004	..........a	-327.66
	32	8.525	-1.38556E-001	-1.38422E-001	2.40192E-004	..........a	-327.66
	33	8.78333	-1.38505E-001	-1.38406E-001	2.38726E-004	..........a	-327.66
	34	9.04167	-1.38463E-001	-1.38394E-001	2.39659E-004	..........a	-327.66
	35	9.3	-1.38432E-001	-1.38385E-001	2.41726E-004	..........a	-327.66
	36	9.5583	-1.38411E-001	-1.38378E-001	2.31592E-004	..........a	-327.66
	37	9.8167	-1.38397E-001	-1.38396E-001	2.33992E-004	..........a	-327.66
	38	10.075	-1.38390E-001	-1.38410E-001	2.34659E-004	..........a	-327.66
EOC	QUANT	-0.1383899	Open Circuit (V)
PSTATMODEL	IQUANT	7	Pstat Model
PSTATSECTION	LABEL	REF600P-43058	Pstat Section
PSTATSERIALNO	LABEL	43058	Pstat Serial Number
CTRLMODE	IQUANT	1	Control Mode
ELECTROMETER	IQUANT	0	RE=0 or CS=1
IESTAB	IQUANT	2	I/E Stability
CASPEED	IQUANT	4	Control Amp Speed
CONVENTION	IQUANT	1	Current Convention
ICHRANGE	IQUANT	2	Ich Range
ICHRANGEMODE	TOGGLE	F	Ich Auto Range
ICHOFFSETENABLE	TOGGLE	F	Ich Offset Enable
ICHOFFSET	QUANT	0	Ich Offset (V)
ICHFILTER	IQUANT	2	Ich Filter
VCHRANGE	IQUANT	2	Vch Range
VCHRANGEMODE	TOGGLE	F	Vch Auto Range
VCHOFFSETENABLE	TOGGLE	F	Vch Offset Enable
VCHOFFSET	QUANT	0	Vch Offset (V)
VCHFILTER	IQUANT	2	Vch Filter
ACHRANGE	IQUANT	2	Ach Range
ACHOFFSETENABLE	TOGGLE	F	Ach Offset Enable
ACHOFFSET	QUANT	0	Ach Offset (V)
ACHFILTER	IQUANT	1	Ach Filter
IERANGELOWERLIMIT	IQUANT	1	I/E Range Lower Limit
IERANGEMODE	TOGGLE	T	I/E AutoRange
IERANGE	IQUANT	4	I/E Range
POSFEEDENABLE	TOGGLE	F	Positive Feedback IR Comp
POSFEEDRESISTANCE	QUANT	0	Positive Feedback Resistance (ohm)
ACHSELECT	IQUANT	4	Ach Select
SENSECABLEID	IQUANT	7	Sense Cable ID
PWRCABLEID	IQUANT	7	Power Cable ID
DCCALDATE	LABEL	3/22/2024	DC Calibration Date
ACCALDATE	LABEL	3/22/2024	AC Calibration Date
THERMOSELECT	IQUANT	1	Thermo Select
FRAMEWORKVERSION	LABEL	7.8.4	Framework Version
INSTRUMENTVERSION	LABEL	4.42	Instrument Version
CURVE1	TABLE
	Pt	T	Vf	Im	Vu	Sig	Ach	IERange	Over	Temp
	#	s	V vs. Ref.	A	V	V	V	#	bits	deg C
	0	0.2	-1.38366E-001	8.10237E-010	0.00000E+000	-1.38400E-001	9.64192E-004	5	..........a	-327.66
	1	0.4	-1.48398E-001	-2.01041E-009	0.00000E+000	-1.48400E-001	9.87492E-004	5	..........a	-327.66
	2	0.6	-1.58344E-001	-3.88116E-009	0.00000E+000	-1.58400E-001	9.76392E-004	5	..........a	-327.66
	3	0.8	-1.68320E-001	-5.52771E-009	0.00000E+000	-1.68400E-001	9.59792E-004	5	..........a	-327.66
	4	1	-1.78349E-001	-6.94972E-009	0.00000E+000	-1.78400E-001	9.55292E-004	5	..........a	-327.66
	5	1.2	-1.88295E-001	-8.29890E-009	0.00000E+000	-1.88400E-001	9.76192E-004	5	..........a	-327.66
	6	1.4	-1.98319E-001	-9.56095E-009	0.00000E+000	-1.98400E-001	9.78992E-004	5	..........a	-327.66
	7	1.6	-2.08289E-001	-1.08020E-008	0.00000E+000	-2.08400E-001	9.86492E-004	5	..........a	-327.66
	8	1.8	-2.18289E-001	-1.19608E-008	0.00000E+000	-2.18400E-001	9.66092E-004	5	..........a	-327.66
	9	2	-2.28332E-001	-1.31243E-008	0.00000E+000	-2.28400E-001	9.75792E-004	5	..........a	-327.66
	10	2.2	-2.38303E-001	-1.42476E-008	0.00000E+000	-2.38400E-001	9.98492E-004	5	..........a	-327.66
	11	2.4	-2.48277E-001	-1.53488E-008	0.00000E+000	-2.48400E-001	9.72092E-004	5	..........a	-327.66
	12	2.6	-2.58253E-001	-1.64414E-008	0.00000E+000	-2.58400E-001	9.84692E-004	5	..........a	-327.66
	13	2.8	-2.68291E-001	-1.75336E-008	0.00000E+000	-2.68400E-001	9.58192E-004	5	..........a	-327.66
	14	3	-2.78288E-001	-1.86105E-008	0.00000E+000	-2.78400E-001	9.91992E-004	5	..........a	-327.66
	15	3.2	-2.88309E-001	-1.96933E-008	0.00000E+000	-2.88400E-001	9.77092E-004	5	..........a	-327.66
	16	3.4	-2.98265E-001	-2.08046E-008	0.00000E+000	-2.98400E-001	9.65192E-004	5	..........a	-327.66
	17	3.6	-3.08335E-001	-2.18505E-008	0.00000E+000	-3.08400E-001	9.83892E-004	5	..........a	-327.66
	18	3.8	-3.18267E-001	-2.29350E-008	0.00000E+000	-3.18400E-001	9.65492E-004	5	..........a	-327.66
	19	4	-3.28270E-001	-2.40347E-008	0.00000E+000	-3.28400E-001	9.83792E-004	5	..........a	-327.66
	20	4.2	-3.38246E-001	-2.51395E-008	0.00000E+000	-3.38400E-001	9.68992E-004	5	..........a	-327.66
	21	4.4	-3.48279E-001	-2.62575E-008	0.00000E+000	-3.48400E-001	9.88092E-004	5	..........a	-327.66
	22	4.6	-3.58345E-001	-2.73822E-008	0.00000E+000	-3.58400E-001	9.93692E-004	5	..........a	-327.66
	23	4.8	-3.68270E-001	-2.85339E-008	0.00000E+000	-3.68400E-001	9.93792E-004	5	..........a	-327.66
	24	5	-3.78257E-001	-2.96820E-008	0.00000E+000	-3.78400E-001	9.90692E-004	5	..........a	-327.66
	25	5.2	-3.88307E-001	-3.08785E-008	0.00000E+000	-3.88400E-001	9.77492E-004	5	..........a	-327.66
	26	5.4	-3.98280E-001	-3.20673E-008	0.00000E+000	-3.98400E-001	9.69592E-004	5	..........a	-327.66
	27	5.6	-4.08299E-001	-3.32781E-008	0.00000E+000	-4.08400E-001	9.88792E-004	5	..........a	-327.66
	28	5.8	-4.18211E-001	-3.44765E-008	0.00000E+000	-4.18400E-001	9.58292E-004	5	..........a	-327.66
	29	6	-4.28255E-001	-3.56937E-008	0.00000E+000	-4.28400E-001	9.72492E-004	5	..........a	-327.66
	30	6.2	-4.38269E-001	-3.69093E-008	0.00000E+000	-4.38400E-001	9.92192E-004	5	..........a	-327.66
	31	6.4	-4.48257E-001	-3.81309E-008	0.00000E+000	-4.48400E-001	9.74192E-004	5	..........a	-327.66
	32	6.6	-4.58215E-001	-3.93328E-008	0.00000E+000	-4.58400E-001	9.79192E-004	5	..........a	-327.66
	33	6.8	-4.68278E-001	-4.05444E-008	0.00000E+000	-4.68400E-001	9.78192E-004	5	..........a	-327.66
	34	7	-4.78247E-001	-4.17989E-008	0.00000E+000	-4.78400E-001	9.85992E-004	5	..........a	-327.66
	35	7.2	-4.88283E-001	-4.29798E-008	0.00000E+000	-4.88400E-001	9.72992E-004	5	..........a	-327.66
	36	7.4	-4.98175E-001	-4.42208E-008	0.00000E+000	-4.98400E-001	9.92992E-004	5	..........a	-327.66
	37	7.6	-5.08252E-001	-4.53961E-008	0.00000E+000	-5.08400E-001	9.84292E-004	5	..........a	-327.66
	38	7.8	-5.18258E-001	-4.66505E-008	0.00000E+000	-5.18400E-001	9.77692E-004	5	..........a	-327.66
	39	8	-5.28254E-001	-4.79074E-008	0.00000E+000	-5.28400E-001	9.83492E-004	5	..........a	-327.66
	40	8.2	-5.38214E-001	-4.91586E-008	0.00000E+000	-5.38400E-001	9.66592E-004	5	..........a	-327.66
	41	8.4	-5.48321E-001	-5.04447E-008	0.00000E+000	-5.48400E-001	9.61192E-004	5	..........a	-327.66
	42	8.6	-5.58274E-001	-5.17778E-008	0.00000E+000	-5.58400E-001	9.84892E-004	5	..........a	-327.66
	43	8.8	-5.68282E-001	-5.30967E-008	0.00000E+000	-5.68400E-001	9.72592E-004	5	..........a	-327.66
	44	9	-5.78235E-001	-5.45480E-008	0.00000E+000	-5.78400E-001	9.83892E-004	5	..........a	-327.66
	45	9.2	-5.88279E-001	-5.59667E-008	0.00000E+000	-5.88400E-001	9.76392E-004	5	..........a	-327.66
	46	9.4	-5.98259E-001	-5.75506E-008	0.00000E+000	-5.98400E-001	9.93492E-004	5	..........a	-327.66
	47	9.6	-5.88298E-001	-4.78247E-008	0.00000E+000	-5.88400E-001	9.79792E-004	5	..........a	-327.66
	48	9.8	-5.78241E-001	-4.19353E-008	0.00000E+000	-5.78400E-001	9.70592E-004	5	..........a	-327.66
	49	10	-5.68277E-001	-3.73805E-008	0.00000E+000	-5.68400E-001	9.95692E-004	5	..........a	-327.66
	50	10.2	-5.58265E-001	-3.39717E-008	0.00000E+000	-5.58400E-001	9.70292E-004	5	..........a	-327.66
	51	10.4	-5.48515E-001	-3.09019E-008	0.00000E+000	-5.48400E-001	9.72192E-004	5	..........a	-327.66
	52	10.6	-5.38234E-001	-2.83631E-008	0.00000E+000	-5.38400E-001	9.78392E-004	5	..........a	-327.66
	53	10.8	-5.28257E-001	-2.60056E-008	0.00000E+000	-5.28400E-001	9.84492E-004	5	..........a	-327.66
	54	11	-5.18263E-001	-2.40080E-008	0.00000E+000	-5.18400E-001	9.72992E-004	5	..........a	-327.66
	55	11.2	-5.08275E-001	-2.20492E-008	0.00000E+000	-5.08400E-001	9.70492E-004	5	..........a	-327.66
	56	11.4	-4.98199E-001	-2.03173E-008	0.00000E+000	-4.98400E-001	9.86792E-004	5	..........a	-327.66
	57	11.6	-4.88246E-001	-1.87105E-008	0.00000E+000	-4.88400E-001	9.76792E-004	5	..........a	-327.66
	58	11.8	-4.78268E-001	-1.71658E-008	0.00000E+000	-4.78400E-001	9.90792E-004	5	..........a	-327.66
	59	12	-4.68262E-001	-1.57354E-008	0.00000E+000	-4.68400E-001	9.73692E-004	5	..........a	-327.66
	60	12.2	-4.58224E-001	-1.43453E-008	0.00000E+000	-4.58400E-001	9.63492E-004	5	..........a	-327.66
	61	12.4	-4.48261E-001	-1.30222E-008	0.00000E+000	-4.48400E-001	9.60192E-004	5	..........a	-327.66
	62	12.6	-4.38247E-001	-1.17702E-008	0.00000E+000	-4.38400E-001	9.91692E-004	5	..........a	-327.66
	63	12.8	-4.28267E-001	-1.05397E-008	0.00000E+000	-4.28400E-001	9.81292E-004	5	..........a	-327.66
	64	13	-4.18224E-001	-9.37404E-009	0.00000E+000	-4.18400E-001	9.59492E-004	5	..........a	-327.66
	65	13.2	-4.08264E-001	-8.24901E-009	0.00000E+000	-4.08400E-001	9.76592E-004	5	..........a	-327.66
	66	13.4	-3.98281E-001	-7.14697E-009	0.00000E+000	-3.98400E-001	9.67792E-004	5	..........a	-327.66
	67	13.6	-3.88301E-001	-6.09780E-009	0.00000E+000	-3.88400E-001	9.90792E-004	5	..........a	-327.66
	68	13.8	-3.78270E-001	-5.02461E-009	0.00000E+000	-3.78400E-001	9.80292E-004	5	..........a	-327.66
	69	14	-3.68255E-001	-3.99591E-009	0.00000E+000	-3.68400E-001	9.72992E-004	5	..........a	-327.66
	70	14.2	-3.58258E-001	-2.98569E-009	0.00000E+000	-3.58400E-001	9.76792E-004	5	..........a	-327.66
	71	14.4	-3.48325E-001	-2.03308E-009	0.00000E+000	-3.48400E-001	9.71392E-004	5	..........a	-327.66
	72	14.6	-3.38276E-001	-1.07722E-009	0.00000E+000	-3.38400E-001	9.66092E-004	5	..........a	-327.66
	73	14.8	-3.28349E-001	-1.81960E-010	0.00000E+000	-3.28400E-001	9.83292E-004	5	..........a	-327.66
	74	15	-3.18395E-001	7.99996E-010	0.00000E+000	-3.18400E-001	9.70492E-004	5	..........a	-327.66
	75	15.2	-3.08325E-001	1.73958E-009	0.00000E+000	-3.08400E-001	9.78192E-004	5	..........a	-327.66
	76	15.4	-2.98317E-001	2.62222E-009	0.00000E+000	-2.98400E-001	9.85392E-004	5	..........a	-327.66
	77	15.6	-2.88354E-001	3.52622E-009	0.00000E+000	-2.88400E-001	9.84792E-004	5	..........a	-327.66
	78	15.8	-2.78358E-001	4.42629E-009	0.00000E+000	-2.78400E-001	9.85592E-004	5	..........a	-327.66
	79	16	-2.68313E-001	5.30035E-009	0.00000E+000	-2.68400E-001	9.73592E-004	5	..........a	-327.66
	80	16.2	-2.58267E-001	6.17945E-009	0.00000E+000	-2.58400E-001	9.72592E-004	5	..........a	-327.66
	81	16.4	-2.48285E-001	7.05530E-009	0.00000E+000	-2.48400E-001	9.93892E-004	5	..........a	-327.66
	82	16.6	-2.38417E-001	7.90636E-009	0.00000E+000	-2.38400E-001	9.79592E-004	5	..........a	-327.66
	83	16.8	-2.28381E-001	8.78862E-009	0.00000E+000	-2.28400E-001	9.77192E-004	5	..........a	-327.66
	84	17	-2.18294E-001	9.65720E-009	0.00000E+000	-2.18400E-001	9.69392E-004	5	..........a	-327.66
	85	17.2	-2.08326E-001	1.05053E-008	0.00000E+000	-2.08400E-001	9.83792E-004	5	..........a	-327.66
	86	17.4	-1.98388E-001	1.13552E-008	0.00000E+000	-1.98400E-001	9.98792E-004	5	..........a	-327.66
	87	17.6	-1.88330E-001	1.22090E-008	0.00000E+000	-1.88400E-001	9.73392E-004	5	..........a	-327.66
	88	17.8	-1.78413E-001	1.30250E-008	0.00000E+000	-1.78400E-001	9.69192E-004	5	..........a	-327.66
	89	18	-1.68322E-001	1.38977E-008	0.00000E+000	-1.68400E-001	9.63692E-004	5	..........a	-327.66
	90	18.2	-1.58371E-001	1.47537E-008	0.00000E+000	-1.58400E-001	9.89292E-004	5	..........a	-327.66
	91	18.4	-1.48363E-001	1.55833E-008	0.00000E+000	-1.48400E-001	9.86492E-004	5	..........a	-327.66
	92	18.6	-1.38358E-001	1.64590E-008	0.00000E+000	-1.38400E-001	9.76692E-004	5	..........a	-327.66
	93	18.8	-1.28369E-001	1.73295E-008	0.00000E+000	-1.28400E-001	9.89892E-004	5	..........a	-327.66
	94	19	-1.18379E-001	1.81984E-008	0.00000E+000	-1.18400E-001	9.91492E-004	5	..........a	-327.66
	95	19.2	-1.08435E-001	1.90931E-008	0.00000E+000	-1.08400E-001	9.89992E-004	5	..........a	-327.66
	96	19.4	-9.83303E-002	2.00078E-008	0.00000E+000	-9.84000E-002	9.74192E-004	5	..........a	-327.66
	97	19.6	-8.83714E-002	2.09026E-008	0.00000E+000	-8.84000E-002	9.99592E-004	5	..........a	-327.66
	98	19.8	-7.84068E-002	2.18308E-008	0.00000E+000	-7.84000E-002	9.77892E-004	5	..........a	-327.66
	99	20	-6.83814E-002	2.27649E-008	0.00000E+000	-6.84000E-002	9.77492E-004	5	..........a	-327.66
	100	20.2	-5.83201E-002	2.36941E-008	0.00000E+000	-5.84000E-002	9.77192E-004	5	..........a	-327.66
	101	20.4	-4.83488E-002	2.46784E-008	0.00000E+000	-4.84000E-002	9.81892E-004	5	..........a	-327.66
	102	20.6	-3.83485E-002	2.56280E-008	0.00000E+000	-3.84000E-002	9.84292E-004	5	..........a	-327.66
	103	20.8	-2.83814E-002	2.66185E-008	0.00000E+000	-2.84000E-002	9.85892E-004	5	..........a	-327.66
	104	21	-1.83284E-002	2.76175E-008	0.00000E+000	-1.84000E-002	9.49992E-004	5	..........a	-327.66
	105	21.2	-8.37896E-003	2.86114E-008	0.00000E+000	-8.39999E-003	9.90892E-004	5	..........a	-327.66
	106	21.4	1.64419E-003	2.96324E-008	0.00000E+000	1.60000E-003	9.74892E-004	5	..........a	-327.66
	107	21.6	1.16680E-002	3.06452E-008	0.00000E+000	1.16000E-002	9.67792E-004	5	..........a	-327.66
	108	21.8	2.17207E-002	3.17572E-008	0.00000E+000	2.16000E-002	9.79392E-004	5	..........a	-327.66
	109	22	3.16654E-002	3.28324E-008	0.00000E+000	3.16000E-002	9.95492E-004	5	..........a	-327.66
	110	22.2	4.15763E-002	3.39276E-008	0.00000E+000	4.16000E-002	9.92192E-004	5	..........a	-327.66
	111	22.4	5.16254E-002	3.50475E-008	0.00000E+000	5.16000E-002	9.89292E-004	5	..........a	-327.66
	112	22.6	6.16716E-002	3.61980E-008	0.00000E+000	6.16000E-002	9.87292E-004	5	..........a	-327.66
	113	22.8	7.16569E-002	3.73767E-008	0.00000E+000	7.16000E-002	9.82192E-004	5	..........a	-327.66
	114	23	8.15669E-002	3.85223E-008	0.00000E+000	8.16000E-002	9.77192E-004	5	..........a	-327.66
	115	23.2	9.16688E-002	3.97183E-008	0.00000E+000	9.16000E-002	9.73792E-004	5	..........a	-327.66
	116	23.4	1.01668E-001	4.09292E-008	0.00000E+000	1.01600E-001	9.67992E-004	5	..........a	-327.66
	117	23.6	1.11673E-001	4.22118E-008	0.00000E+000	1.11600E-001	9.88892E-004	5	..........a	-327.66
	118	23.8	1.21560E-001	4.34635E-008	0.00000E+000	1.21600E-001	9.87592E-004	5	..........a	-327.66
	119	24	1.31618E-001	4.48012E-008	0.00000E+000	1.31600E-001	9.85192E-004	5	..........a	-327.66
	120	24.2	1.41752E-001	4.60598E-008	0.00000E+000	1.41600E-001	9.84292E-004	5	..........a	-327.66
	121	24.4	1.51636E-001	4.73514E-008	0.00000E+000	1.51600E-001	9.83092E-004	5	..........a	-327.66
	122	24.6	1.61608E-001	4.86299E-008	0.00000E+000	1.61600E-001	9.85192E-004	5	..........a	-327.66
	123	24.8	1.71618E-001	4.99586E-008	0.00000E+000	1.71600E-001	9.84792E-004	5	..........a	-327.66
	124	25	1.81665E-001	5.12715E-008	0.00000E+000	1.81600E-001	9.62192E-004	5	..........a	-327.66
	125	25.2	1.91682E-001	5.26437E-008	0.00000E+000	1.91600E-001	9.89692E-004	5	..........a	-327.66
	126	25.4	2.01559E-001	5.39863E-008	0.00000E+000	2.01600E-001	9.85692E-004	5	..........a	-327.66
	127	25.6	2.11589E-001	5.52808E-008	0.00000E+000	2.11600E-001	9.91692E-004	5	..........a	-327.66
	128	25.8	2.21643E-001	5.65596E-008	0.00000E+000	2.21600E-001	9.78892E-004	5	..........a	-327.66
	129	26	2.31627E-001	5.77983E-008	0.00000E+000	2.31600E-001	9.90492E-004	5	..........a	-327.66
	130	26.2	2.41585E-001	5.89280E-008	0.00000E+000	2.41600E-001	9.88992E-004	5	..........a	-327.66
	131	26.4	2.51586E-001	6.00251E-008	0.00000E+000	2.51600E-001	9.63492E-004	5	..........a	-327.66
	132	26.6	2.61599E-001	6.11399E-008	0.00000E+000	2.61600E-001	9.88992E-004	5	..........a	-327.66
	133	26.8	2.71663E-001	6.22718E-008	0.00000E+000	2.71600E-001	9.95492E-004	5	..........a	-327.66
	134	27	2.81544E-001	6.34416E-008	0.00000E+000	2.81600E-001	9.79992E-004	5	..........a	-327.66
	135	27.2	2.91588E-001	6.46353E-008	0.00000E+000	2.91600E-001	1.00529E-003	5	..........a	-327.66
	136	27.4	3.01614E-001	6.58608E-008	0.00000E+000	3.01600E-001	9.75092E-004	5	..........a	-327.66
	137	27.6	3.11628E-001	6.70715E-008	0.00000E+000	3.11600E-001	1.00389E-003	5	..........a	-327.66
	138	27.8	3.21547E-001	6.83242E-008	0.00000E+000	3.21600E-001	9.86792E-004	5	..........a	-327.66
	139	28	3.31552E-001	6.96600E-008	0.00000E+000	3.31600E-001	9.97592E-004	5	..........a	-327.66
	140	28.2	3.41624E-001	7.09773E-008	0.00000E+000	3.41600E-001	9.79292E-004	5	..........a	-327.66
	141	28.4	3.51614E-001	7.23756E-008	0.00000E+000	3.51600E-001	1.00139E-003	5	..........a	-327.66
	142	28.6	3.61574E-001	7.38200E-008	0.00000E+000	3.61600E-001	9.97192E-004	5	..........a	-327.66
	143	28.8	3.71615E-001	7.52586E-008	0.00000E+000	3.71600E-001	9.94492E-004	5	..........a	-327.66
	144	29	3.81593E-001	7.68063E-008	0.00000E+000	3.81600E-001	9.77692E-004	5	..........a	-327.66
	145	29.2	3.91646E-001	7.83536E-008	0.00000E+000	3.91600E-001	9.81392E-004	5	..........a	-327.66
	146	29.4	4.01524E-001	7.99415E-008	0.00000E+000	4.01600E-001	9.92492E-004	5	..........a	-327.66
	147	29.6	4.11537E-001	8.16133E-008	0.00000E+000	4.11600E-001	9.83092E-004	5	..........a	-327.66
	148	29.8	4.21579E-001	8.33588E-008	0.00000E+000	4.21600E-001	9.79392E-004	5	..........a	-327.66
	149	30	4.31540E-001	8.51151E-008	0.00000E+000	4.31600E-001	9.94292E-004	5	..........a	-327.66
	150	30.2	4.41542E-001	8.68863E-008	0.00000E+000	4.41600E-001	9.72192E-004	5	..........a	-327.66
	151	30.4	4.51568E-001	8.87076E-008	0.00000E+000	4.51600E-001	9.83392E-004	5	..........a	-327.66
	152	30.6	4.61520E-001	9.05851E-008	0.00000E+000	4.61600E-001	9.90792E-004	5	..........a	-327.66
	153	30.8	4.71592E-001	9.24509E-008	0.00000E+000	4.71600E-001	9.77492E-004	5	..........a	-327.66
	154	31	4.81535E-001	9.43798E-008	0.00000E+000	4.81600E-001	9.88092E-004	5	..........a	-327.66
	155	31.2	4.91531E-001	9.63163E-008	0.00000E+000	4.91600E-001	9.82792E-004	5	..........a	-327.66
	156	31.4	5.01418E-001	9.83084E-008	0.00000E+000	5.01600E-001	9.66492E-004	5	..........a	-327.66
	157	31.6	5.11559E-001	1.00276E-007	0.00000E+000	5.11600E-001	9.72992E-004	5	..........a	-327.66
	158	31.8	5.21543E-001	1.02285E-007	0.00000E+000	5.21600E-001	9.80392E-004	5	..........a	-327.66
	159	32	5.31519E-001	1.04327E-007	0.00000E+000	5.31600E-001	9.87092E-004	5	..........a	-327.66
	160	32.2	5.41550E-001	1.06418E-007	0.00000E+000	5.41600E-001	9.85192E-004	5	..........a	-327.66
	161	32.4	5.51618E-001	1.08472E-007	0.00000E+000	5.51600E-001	9.96692E-004	5	..........a	-327.66
	162	32.6	5.61505E-001	1.10551E-007	0.00000E+000	5.61600E-001	9.83592E-004	5	..........a	-327.66
	163	32.8	5.71540E-001	1.12664E-007	0.00000E+000	5.71600E-001	9.83592E-004	5	..........a	-327.66
	164	33	5.81543E-001	1.14808E-007	0.00000E+000	5.81600E-001	9.76492E-004	5	..........a	-327.66
	165	33.2	5.91582E-001	1.16966E-007	0.00000E+000	5.91600E-001	9.89392E-004	5	..........a	-327.66
	166	33.4	6.01531E-001	1.19166E-007	0.00000E+000	6.01600E-001	9.97992E-004	5	..........a	-327.66
	167	33.6	6.11525E-001	1.21398E-007	0.00000E+000	6.11600E-001	9.97092E-004	5	..........a	-327.66
	168	33.8	6.21509E-001	1.23676E-007	0.00000E+000	6.21600E-001	9.86392E-004	5	..........a	-327.66
	169	34	6.31526E-001	1.26003E-007	0.00000E+000	6.31600E-001	9.99592E-004	5	..........a	-327.66
	170	34.2	6.41503E-001	1.28377E-007	0.00000E+000	6.41600E-001	9.87592E-004	5	..........a	-327.66
	171	34.4	6.51483E-001	1.30813E-007	0.00000E+000	6.51600E-001	9.91292E-004	5	..........a	-327.66
	172	34.6	6.61501E-001	1.33300E-007	0.00000E+000	6.61600E-001	9.76192E-004	5	..........a	-327.66
	173	34.8	6.71541E-001	1.35875E-007	0.00000E+000	6.71600E-001	9.75792E-004	5	..........a	-327.66
	174	35	6.81483E-001	1.38530E-007	0.00000E+000	6.81600E-001	9.71492E-004	5	..........a	-327.66
	175	35.2	6.91460E-001	1.41296E-007	0.00000E+000	6.91600E-001	1.00559E-003	5	..........a	-327.66
	176	35.4	7.01466E-001	1.44156E-007	0.00000E+000	7.01600E-001	9.68492E-004	5	..........a	-327.66
	177	35.6	7.11564E-001	1.47195E-007	0.00000E+000	7.11600E-001	9.80292E-004	5	..........a	-327.66
	178	35.8	7.21480E-001	1.50355E-007	0.00000E+000	7.21600E-001	9.90792E-004	5	..........a	-327.66
	179	36	7.31443E-001	1.53705E-007	0.00000E+000	7.31600E-001	9.99492E-004	5	..........a	-327.66
	180	36.2	7.41480E-001	1.57349E-007	0.00000E+000	7.41600E-001	9.89992E-004	5	..........a	-327.66
	181	36.4	7.51523E-001	1.61260E-007	0.00000E+000	7.51600E-001	9.63992E-004	5	..........a	-327.66
	182	36.6	7.61469E-001	1.65575E-007	0.00000E+000	7.61600E-001	9.95492E-004	5	..........a	-327.66
	183	36.8	7.71450E-001	1.70218E-007	0.00000E+000	7.71600E-001	9.87192E-004	5	..........a	-327.66
	184	37	7.81477E-001	1.75311E-007	0.00000E+000	7.81600E-001	9.74492E-004	5	..........a	-327.66
	185	37.2	7.91542E-001	1.80833E-007	0.00000E+000	7.91600E-001	9.93292E-004	5	..........a	-327.66
	186	37.4	8.01457E-001	1.86851E-007	0.00000E+000	8.01600E-001	9.92492E-004	5	..........a	-327.66
CURVE2	TABLE
	Pt	T	Vf	Im	Vu	Sig	Ach	IERange	Over	Temp
	#	s	V vs. Ref.	A	V	V	V	#	bits	deg C
	187	37.6	7.89964E-001	1.52933E-007	0.00000E+000	7.90000E-001	9.84392E-004	5	..........a	-327.66
	188	37.8	7.79888E-001	1.33796E-007	0.00000E+000	7.80000E-001	9.78192E-004	5	..........a	-327.66
	189	38	7.69946E-001	1.19922E-007	0.00000E+000	7.70000E-001	9.80092E-004	5	..........a	-327.66
	190	38.2	7.59922E-001	1.09383E-007	0.00000E+000	7.60000E-001	9.86592E-004	5	..........a	-327.66
	191	38.4	7.49976E-001	1.00991E-007	0.00000E+000	7.50000E-001	1.00129E-003	5	..........a	-327.66
	192	38.6	7.39924E-001	9.41645E-008	0.00000E+000	7.40000E-001	9.83692E-004	5	..........a	-327.66
	193	38.8	7.29934E-001	8.84322E-008	0.00000E+000	7.30000E-001	9.94692E-004	5	..........a	-327.66
	194	39	7.19896E-001	8.34831E-008	0.00000E+000	7.20000E-001	9.80992E-004	5	..........a	-327.66
	195	39.2	7.09976E-001	7.91033E-008	0.00000E+000	7.10000E-001	9.87992E-004	5	..........a	-327.66
	196	39.4	6.99911E-001	7.52417E-008	0.00000E+000	7.00000E-001	9.88792E-004	5	..........a	-327.66
	197	39.6	6.89905E-001	7.17175E-008	0.00000E+000	6.90000E-001	9.97792E-004	5	..........a	-327.66
	198	39.8	6.79913E-001	6.84837E-008	0.00000E+000	6.80000E-001	9.73992E-004	5	..........a	-327.66
	199	40	6.69973E-001	6.54510E-008	0.00000E+000	6.70000E-001	9.82692E-004	5	..........a	-327.66
	200	40.2	6.59934E-001	6.26195E-008	0.00000E+000	6.60000E-001	9.80992E-004	5	..........a	-327.66
	201	40.4	6.49922E-001	5.99293E-008	0.00000E+000	6.50000E-001	9.94392E-004	5	..........a	-327.66
	202	40.6	6.39883E-001	5.74193E-008	0.00000E+000	6.40000E-001	9.77592E-004	5	..........a	-327.66
	203	40.8	6.30012E-001	5.49847E-008	0.00000E+000	6.30000E-001	1.00269E-003	5	..........a	-327.66
	204	41	6.19929E-001	5.26710E-008	0.00000E+000	6.20000E-001	9.86392E-004	5	..........a	-327.66
	205	41.2	6.09950E-001	5.04382E-008	0.00000E+000	6.10000E-001	9.84592E-004	5	..........a	-327.66
	206	41.4	5.99959E-001	4.82973E-008	0.00000E+000	6.00000E-001	9.97292E-004	5	..........a	-327.66
	207	41.6	5.90016E-001	4.62553E-008	0.00000E+000	5.90000E-001	9.80092E-004	5	..........a	-327.66
	208	41.8	5.79972E-001	4.43298E-008	0.00000E+000	5.80000E-001	9.83192E-004	5	..........a	-327.66
	209	42	5.69968E-001	4.25120E-008	0.00000E+000	5.70000E-001	9.90592E-004	5	..........a	-327.66
	210	42.2	5.59941E-001	4.07330E-008	0.00000E+000	5.60000E-001	1.00189E-003	5	..........a	-327.66
	211	42.4	5.50032E-001	3.90310E-008	0.00000E+000	5.50000E-001	9.89892E-004	5	..........a	-327.66
	212	42.6	5.40018E-001	3.73570E-008	0.00000E+000	5.40000E-001	9.72792E-004	5	..........a	-327.66
	213	42.8	5.29981E-001	3.57266E-008	0.00000E+000	5.30000E-001	9.83992E-004	5	..........a	-327.66
	214	43	5.19965E-001	3.41338E-008	0.00000E+000	5.20000E-001	1.00439E-003	5	..........a	-327.66
	215	43.2	5.09981E-001	3.25915E-008	0.00000E+000	5.10000E-001	1.00319E-003	5	..........a	-327.66
	216	43.4	5.00041E-001	3.11234E-008	0.00000E+000	5.00000E-001	9.68992E-004	5	..........a	-327.66
	217	43.6	4.89966E-001	2.97541E-008	0.00000E+000	4.90000E-001	9.94192E-004	5	..........a	-327.66
	218	43.8	4.79915E-001	2.83492E-008	0.00000E+000	4.80000E-001	9.89092E-004	5	..........a	-327.66
	219	44	4.70022E-001	2.69697E-008	0.00000E+000	4.70000E-001	9.80092E-004	5	..........a	-327.66
	220	44.2	4.59990E-001	2.55546E-008	0.00000E+000	4.60000E-001	9.89492E-004	5	..........a	-327.66
	221	44.4	4.50036E-001	2.40966E-008	0.00000E+000	4.50000E-001	9.75092E-004	5	..........a	-327.66
	222	44.6	4.39939E-001	2.25773E-008	0.00000E+000	4.40000E-001	9.81492E-004	5	..........a	-327.66
	223	44.8	4.29997E-001	2.10208E-008	0.00000E+000	4.30000E-001	9.73192E-004	5	..........a	-327.66
	224	45	4.20012E-001	1.94633E-008	0.00000E+000	4.20000E-001	9.70992E-004	5	..........a	-327.66
	225	45.2	4.09957E-001	1.78911E-008	0.00000E+000	4.10000E-001	9.93892E-004	5	..........a	-327.66
	226	45.4	4.00005E-001	1.63161E-008	0.00000E+000	4.00000E-001	9.74692E-004	5	..........a	-327.66
	227	45.6	3.90034E-001	1.47124E-008	0.00000E+000	3.90000E-001	9.92592E-004	5	..........a	-327.66
	228	45.8	3.80057E-001	1.31294E-008	0.00000E+000	3.80000E-001	9.79692E-004	5	..........a	-327.66
	229	46	3.70042E-001	1.15167E-008	0.00000E+000	3.70000E-001	9.86792E-004	5	..........a	-327.66
	230	46.2	3.59994E-001	9.92000E-009	0.00000E+000	3.60000E-001	1.00779E-003	5	..........a	-327.66
	231	46.4	3.49977E-001	8.27793E-009	0.00000E+000	3.50000E-001	9.95592E-004	5	..........a	-327.66
	232	46.6	3.40071E-001	6.67093E-009	0.00000E+000	3.40000E-001	9.77092E-004	5	..........a	-327.66
	233	46.8	3.30016E-001	5.04772E-009	0.00000E+000	3.30000E-001	9.92092E-004	5	..........a	-327.66
	234	47	3.20001E-001	3.39813E-009	0.00000E+000	3.20000E-001	9.84992E-004	5	..........a	-327.66
	235	47.2	3.10004E-001	1.77331E-009	0.00000E+000	3.10000E-001	9.82892E-004	5	..........a	-327.66
	236	47.4	3.00045E-001	4.54882E-011	0.00000E+000	3.00000E-001	9.78892E-004	5	..........a	-327.66
	237	47.6	2.90016E-001	-1.67699E-009	0.00000E+000	2.90000E-001	9.76592E-004	5	..........a	-327.66
	238	47.8	2.80024E-001	-3.41931E-009	0.00000E+000	2.80000E-001	9.87992E-004	5	..........a	-327.66
	239	48	2.70095E-001	-5.20658E-009	0.00000E+000	2.70000E-001	9.57692E-004	5	..........a	-327.66
	240	48.2	2.60042E-001	-7.01828E-009	0.00000E+000	2.60000E-001	9.79392E-004	5	..........a	-327.66
	241	48.4	2.50054E-001	-8.85467E-009	0.00000E+000	2.50000E-001	9.76092E-004	5	..........a	-327.66
	242	48.6	2.40061E-001	-1.07109E-008	0.00000E+000	2.40000E-001	9.85992E-004	5	..........a	-327.66
	243	48.8	2.30008E-001	-1.25863E-008	0.00000E+000	2.30000E-001	9.96692E-004	5	..........a	-327.66
	244	49	2.20012E-001	-1.43959E-008	0.00000E+000	2.20000E-001	9.65692E-004	5	..........a	-327.66
	245	49.2	2.10029E-001	-1.61882E-008	0.00000E+000	2.10000E-001	9.69192E-004	5	..........a	-327.66
	246	49.4	2.00052E-001	-1.77771E-008	0.00000E+000	2.00000E-001	9.84792E-004	5	..........a	-327.66
	247	49.6	1.90124E-001	-1.92540E-008	0.00000E+000	1.90000E-001	9.65792E-004	5	..........a	-327.66
	248	49.8	1.80097E-001	-2.05225E-008	0.00000E+000	1.80000E-001	9.82692E-004	5	..........a	-327.66
	249	50	1.70086E-001	-2.15442E-008	0.00000E+000	1.70000E-001	9.66092E-004	5	..........a	-327.66
	250	50.2	1.60045E-001	-2.22477E-008	0.00000E+000	1.60000E-001	9.77492E-004	5	..........a	-327.66
	251	50.4	1.50056E-001	-2.26816E-008	0.00000E+000	1.50000E-001	9.86992E-004	5	..........a	-327.66
	252	50.6	1.40120E-001	-2.28536E-008	0.00000E+000	1.40000E-001	9.80492E-004	5	..........a	-327.66
	253	50.8	1.30066E-001	-2.28032E-008	0.00000E+000	1.30000E-001	9.91492E-004	5	..........a	-327.66
	254	51	1.20068E-001	-2.25041E-008	0.00000E+000	1.20000E-001	9.80792E-004	5	..........a	-327.66
	255	51.2	1.10101E-001	-2.20489E-008	0.00000E+000	1.10000E-001	9.76692E-004	5	..........a	-327.66
	256	51.4	1.00117E-001	-2.15436E-008	0.00000E+000	1.00000E-001	9.54792E-004	5	..........a	-327.66
	257	51.6	9.01027E-002	-2.09725E-008	0.00000E+000	9.00000E-002	9.62892E-004	5	..........a	-327.66
	258	51.8	8.00716E-002	-2.03325E-008	0.00000E+000	8.00000E-002	9.86992E-004	5	..........a	-327.66
	259	52	7.00533E-002	-1.98402E-008	0.00000E+000	7.00000E-002	9.86692E-004	5	..........a	-327.66
	260	52.2	6.01214E-002	-1.94325E-008	0.00000E+000	6.00000E-002	9.65492E-004	5	..........a	-327.66
	261	52.4	5.00822E-002	-1.91618E-008	0.00000E+000	5.00000E-002	9.78692E-004	5	..........a	-327.66
	262	52.6	4.00236E-002	-1.90040E-008	0.00000E+000	4.00000E-002	9.80492E-004	5	..........a	-327.66
	263	52.8	3.00920E-002	-1.89904E-008	0.00000E+000	3.00000E-002	9.70792E-004	5	..........a	-327.66
	264	53	2.01671E-002	-1.90339E-008	0.00000E+000	2.00000E-002	9.76892E-004	5	..........a	-327.66
	265	53.2	1.01151E-002	-1.91730E-008	0.00000E+000	1.00000E-002	9.80292E-004	5	..........a	-327.66
	266	53.4	4.98417E-005	-1.93970E-008	0.00000E+000	7.45058E-009	9.76992E-004	5	..........a	-327.66
	267	53.6	-9.87551E-003	-1.96885E-008	0.00000E+000	-1.00000E-002	9.74692E-004	5	..........a	-327.66
	268	53.8	-1.98999E-002	-2.01687E-008	0.00000E+000	-2.00000E-002	9.68892E-004	5	..........a	-327.66
	269	54	-2.99257E-002	-2.05663E-008	0.00000E+000	-3.00000E-002	9.83692E-004	5	..........a	-327.66
	270	54.2	-3.99070E-002	-2.09865E-008	0.00000E+000	-4.00000E-002	9.83992E-004	5	..........a	-327.66
	271	54.4	-4.99049E-002	-2.15164E-008	0.00000E+000	-5.00000E-002	9.82392E-004	5	..........a	-327.66
	272	54.6	-5.99031E-002	-2.23068E-008	0.00000E+000	-6.00000E-002	9.64692E-004	5	..........a	-327.66
	273	54.8	-6.99275E-002	-2.27217E-008	0.00000E+000	-7.00000E-002	9.78492E-004	5	..........a	-327.66
	274	55	-7.99425E-002	-2.34152E-008	0.00000E+000	-8.00000E-002	9.85792E-004	5	..........a	-327.66
	275	55.2	-8.99030E-002	-2.41526E-008	0.00000E+000	-9.00000E-002	9.66692E-004	5	..........a	-327.66
	276	55.4	-9.98887E-002	-2.49061E-008	0.00000E+000	-1.00000E-001	9.58692E-004	5	..........a	-327.66
	277	55.6	-1.09929E-001	-2.57108E-008	0.00000E+000	-1.10000E-001	9.94692E-004	5	..........a	-327.66
	278	55.8	-1.19914E-001	-2.65598E-008	0.00000E+000	-1.20000E-001	9.97492E-004	5	..........a	-327.66
	279	56	-1.29946E-001	-2.71870E-008	0.00000E+000	-1.30000E-001	9.82792E-004	5	..........a	-327.66
	280	56.2	-1.39884E-001	-2.79537E-008	0.00000E+000	-1.40000E-001	9.90892E-004	5	..........a	-327.66
	281	56.4	-1.49937E-001	-2.87203E-008	0.00000E+000	-1.50000E-001	9.78192E-004	5	..........a	-327.66
	282	56.6	-1.59930E-001	-2.95073E-008	0.00000E+000	-1.60000E-001	9.94992E-004	5	..........a	-327.66
	283	56.8	-1.69881E-001	-3.03641E-008	0.00000E+000	-1.70000E-001	9.71192E-004	5	..........a	-327.66
	284	57	-1.79904E-001	-3.10356E-008	0.00000E+000	-1.80000E-001	9.77192E-004	5	..........a	-327.66
	285	57.2	-1.89906E-001	-3.19037E-008	0.00000E+000	-1.90000E-001	9.91292E-004	5	..........a	-327.66
	286	57.4	-1.99953E-001	-3.24976E-008	0.00000E+000	-2.00000E-001	9.78592E-004	5	..........a	-327.66
	287	57.6	-2.09887E-001	-3.33604E-008	0.00000E+000	-2.10000E-001	9.79292E-004	5	..........a	-327.66
	288	57.8	-2.19851E-001	-3.41151E-008	0.00000E+000	-2.20000E-001	9.75892E-004	5	..........a	-327.66
	289	58	-2.29890E-001	-3.48162E-008	0.00000E+000	-2.30000E-001	9.75192E-004	5	..........a	-327.66
	290	58.2	-2.39869E-001	-3.55349E-008	0.00000E+000	-2.40000E-001	9.79292E-004	5	..........a	-327.66
	291	58.4	-2.49870E-001	-3.62691E-008	0.00000E+000	-2.50000E-001	9.77492E-004	5	..........a	-327.66
	292	58.6	-2.59820E-001	-3.72603E-008	0.00000E+000	-2.60000E-001	9.57692E-004	5	..........a	-327.66
	293	58.8	-2.69871E-001	-3.77462E-008	0.00000E+000	-2.70000E-001	9.84492E-004	5	..........a	-327.66
	294	59	-2.79920E-001	-3.85324E-008	0.00000E+000	-2.80000E-001	9.85092E-004	5	..........a	-327.66
	295	59.2	-2.89869E-001	-3.91733E-008	0.00000E+000	-2.90000E-001	9.86192E-004	5	..........a	-327.66
	296	59.4	-2.99838E-001	-4.00197E-008	0.00000E+000	-3.00000E-001	9.73592E-004	5	..........a	-327.66
	297	59.6	-3.09891E-001	-4.06349E-008	0.00000E+000	-3.10000E-001	9.79992E-004	5	..........a	-327.66
	298	59.8	-3.19865E-001	-4.14709E-008	0.00000E+000	-3.20000E-001	9.80192E-004	5	..........a	-327.66
	299	60	-3.29890E-001	-4.21384E-008	0.00000E+000	-3.30000E-001	9.96092E-004	5	..........a	-327.66
	300	60.2	-3.39833E-001	-4.28563E-008	0.00000E+000	-3.40000E-001	9.60892E-004	5	..........a	-327.66
	301	60.4	-3.49875E-001	-4.37200E-008	0.00000E+000	-3.50000E-001	9.85692E-004	5	..........a	-327.66
	302	60.6	-3.59864E-001	-4.43891E-008	0.00000E+000	-3.60000E-001	9.99992E-004	5	..........a	-327.66
	303	60.8	-3.69851E-001	-4.50798E-008	0.00000E+000	-3.70000E-001	9.75092E-004	5	..........a	-327.66
	304	61	-3.79842E-001	-4.59476E-008	0.00000E+000	-3.80000E-001	9.64792E-004	5	..........a	-327.66
	305	61.2	-3.89903E-001	-4.66753E-008	0.00000E+000	-3.90000E-001	9.91992E-004	5	..........a	-327.66
	306	61.4	-3.99859E-001	-4.74267E-008	0.00000E+000	-4.00000E-001	9.78592E-004	5	..........a	-327.66
	307	61.6	-4.09888E-001	-4.82469E-008	0.00000E+000	-4.10000E-001	9.91892E-004	5	..........a	-327.66
	308	61.8	-4.19815E-001	-4.90412E-008	0.00000E+000	-4.20000E-001	9.73792E-004	5	..........a	-327.66
	309	62	-4.29845E-001	-4.97488E-008	0.00000E+000	-4.30000E-001	9.70392E-004	5	..........a	-327.66
	310	62.2	-4.39851E-001	-5.05823E-008	0.00000E+000	-4.40000E-001	9.78992E-004	5	..........a	-327.66
	311	62.4	-4.49843E-001	-5.13809E-008	0.00000E+000	-4.50000E-001	9.74892E-004	5	..........a	-327.66
	312	62.6	-4.59810E-001	-5.21429E-008	0.00000E+000	-4.60000E-001	9.66192E-004	5	..........a	-327.66
	313	62.8	-4.69854E-001	-5.29716E-008	0.00000E+000	-4.70000E-001	9.68592E-004	5	..........a	-327.66
	314	63	-4.79855E-001	-5.38614E-008	0.00000E+000	-4.80000E-001	9.87492E-004	5	..........a	-327.66
	315	63.2	-4.89838E-001	-5.46497E-008	0.00000E+000	-4.90000E-001	9.85992E-004	5	..........a	-327.66
	316	63.4	-4.99826E-001	-5.56168E-008	0.00000E+000	-5.00000E-001	9.73192E-004	5	..........a	-327.66
	317	63.6	-5.09850E-001	-5.64784E-008	0.00000E+000	-5.10000E-001	9.74392E-004	5	..........a	-327.66
	318	63.8	-5.19860E-001	-5.74642E-008	0.00000E+000	-5.20000E-001	9.90292E-004	5	..........a	-327.66
	319	64	-5.29856E-001	-5.84144E-008	0.00000E+000	-5.30000E-001	9.88192E-004	5	..........a	-327.66
	320	64.2	-5.39798E-001	-5.93469E-008	0.00000E+000	-5.40000E-001	9.78192E-004	5	..........a	-327.66
	321	64.4	-5.49851E-001	-6.03362E-008	0.00000E+000	-5.50000E-001	9.74592E-004	5	..........a	-327.66
	322	64.6	-5.59858E-001	-6.13787E-008	0.00000E+000	-5.60000E-001	9.96192E-004	5	..........a	-327.66
	323	64.8	-5.69863E-001	-6.24461E-008	0.00000E+000	-5.70000E-001	9.91692E-004	5	..........a	-327.66
	324	65	-5.79818E-001	-6.36442E-008	0.00000E+000	-5.80000E-001	9.71792E-004	5	..........a	-327.66
	325	65.2	-5.89859E-001	-6.46851E-008	0.00000E+000	-5.90000E-001	9.90992E-004	5	..........a	-327.66
	326	65.4	-5.99893E-001	-6.61071E-008	0.00000E+000	-6.00000E-001	9.74692E-004	5	..........a	-327.66
	327	65.6	-5.89867E-001	-5.59143E-008	0.00000E+000	-5.90000E-001	9.91892E-004	5	..........a	-327.66
	328	65.8	-5.79820E-001	-4.95053E-008	0.00000E+000	-5.80000E-001	9.57192E-004	5	..........a	-327.66
	329	66	-5.69850E-001	-4.46639E-008	0.00000E+000	-5.70000E-001	9.74492E-004	5	..........a	-327.66
	330	66.2	-5.59893E-001	-4.10518E-008	0.00000E+000	-5.60000E-001	9.82692E-004	5	..........a	-327.66
	331	66.4	-5.49885E-001	-3.76572E-008	0.00000E+000	-5.50000E-001	9.78292E-004	5	..........a	-327.66
	332	66.6	-5.39814E-001	-3.48791E-008	0.00000E+000	-5.40000E-001	9.70092E-004	5	..........a	-327.66
	333	66.8	-5.29855E-001	-3.23007E-008	0.00000E+000	-5.30000E-001	9.73892E-004	5	..........a	-327.66
	334	67	-5.19831E-001	-3.02291E-008	0.00000E+000	-5.20000E-001	9.90692E-004	5	..........a	-327.66
	335	67.2	-5.09897E-001	-2.80924E-008	0.00000E+000	-5.10000E-001	9.79992E-004	5	..........a	-327.66
	336	67.4	-4.99841E-001	-2.62362E-008	0.00000E+000	-5.00000E-001	9.81092E-004	5	..........a	-327.66
	337	67.6	-4.89858E-001	-2.45063E-008	0.00000E+000	-4.90000E-001	9.88092E-004	5	..........a	-327.66
	338	67.8	-4.79870E-001	-2.27844E-008	0.00000E+000	-4.80000E-001	1.00449E-003	5	..........a	-327.66
	339	68	-4.69848E-001	-2.11810E-008	0.00000E+000	-4.70000E-001	9.79792E-004	5	..........a	-327.66
	340	68.2	-4.59837E-001	-1.96778E-008	0.00000E+000	-4.60000E-001	9.71092E-004	5	..........a	-327.66
	341	68.4	-4.49854E-001	-1.81867E-008	0.00000E+000	-4.50000E-001	9.77892E-004	5	..........a	-327.66
	342	68.6	-4.39862E-001	-1.67716E-008	0.00000E+000	-4.40000E-001	9.82292E-004	5	..........a	-327.66
	343	68.8	-4.29865E-001	-1.54621E-008	0.00000E+000	-4.30000E-001	9.83492E-004	5	..........a	-327.66
	344	69	-4.19851E-001	-1.41067E-008	0.00000E+000	-4.20000E-001	9.64492E-004	5	..........a	-327.66
	345	69.2	-4.09886E-001	-1.28810E-008	0.00000E+000	-4.10000E-001	9.86592E-004	5	..........a	-327.66
	346	69.4	-3.99892E-001	-1.16296E-008	0.00000E+000	-4.00000E-001	9.87692E-004	5	..........a	-327.66
	347	69.6	-3.89959E-001	-1.05036E-008	0.00000E+000	-3.90000E-001	1.00189E-003	5	..........a	-327.66
	348	69.8	-3.79861E-001	-9.28559E-009	0.00000E+000	-3.80000E-001	9.87092E-004	5	..........a	-327.66
	349	70	-3.69863E-001	-8.23763E-009	0.00000E+000	-3.70000E-001	9.65592E-004	5	..........a	-327.66
	350	70.2	-3.59938E-001	-7.03414E-009	0.00000E+000	-3.60000E-001	9.86292E-004	5	..........a	-327.66
	351	70.4	-3.49877E-001	-5.94487E-009	0.00000E+000	-3.50000E-001	9.95592E-004	5	..........a	-327.66
	352	70.6	-3.39876E-001	-4.87546E-009	0.00000E+000	-3.40000E-001	9.77792E-004	5	..........a	-327.66
[...]
	920	184.2	-2.59827E-001	2.34288E-009	0.00000E+000	-2.60000E-001	9.71592E-004	5	..........a	-327.66
	921	184.4	-2.49904E-001	3.31139E-009	0.00000E+000	-2.50000E-001	9.79792E-004	5	..........a	-327.66
	922	184.6	-2.39952E-001	4.30098E-009	0.00000E+000	-2.40000E-001	9.83392E-004	5	..........a	-327.66
	923	184.8	-2.29945E-001	5.23826E-009	0.00000E+000	-2.30000E-001	9.90192E-004	5	..........a	-327.66
	924	185	-2.19881E-001	6.23099E-009	0.00000E+000	-2.20000E-001	9.68792E-004	5	..........a	-327.66
	925	185.2	-2.09886E-001	7.18903E-009	0.00000E+000	-2.10000E-001	9.80692E-004	5	..........a	-327.66
	926	185.4	-1.99987E-001	8.14606E-009	0.00000E+000	-2.00000E-001	9.95192E-004	5	..........a	-327.66
	927	185.6	-1.89913E-001	9.10869E-009	0.00000E+000	-1.90000E-001	9.81192E-004	5	..........a	-327.66
	928	185.8	-1.79917E-001	1.00500E-008	0.00000E+000	-1.80000E-001	9.82592E-004	5	..........a	-327.66
	929	186	-1.69900E-001	1.09786E-008	0.00000E+000	-1.70000E-001	9.80892E-004	5	..........a	-327.66
	930	186.2	-1.59970E-001	1.19178E-008	0.00000E+000	-1.60000E-001	1.00249E-003	5	..........a	-327.66
	931	186.4	-1.50057E-001	1.28665E-008	0.00000E+000	-1.50000E-001	9.78592E-004	5	..........a	-327.66
	932	186.6	-1.39894E-001	1.38127E-008	0.00000E+000	-1.40000E-001	9.70092E-004	5	..........a	-327.66
	933	186.8	-1.29932E-001	1.47531E-008	0.00000E+000	-1.30000E-001	9.78392E-004	5	..........a	-327.66
	934	187	-1.19941E-001	1.56948E-008	0.00000E+000	-1.20000E-001	9.99692E-004	5	..........a	-327.66
	935	187.2	-1.09996E-001	1.66481E-008	0.00000E+000	-1.10000E-001	9.85592E-004	5	..........a	-327.66
	936	187.4	-9.99147E-002	1.76166E-008	0.00000E+000	-1.00000E-001	9.76292E-004	5	..........a	-327.66
	937	187.6	-8.99045E-002	1.85639E-008	0.00000E+000	-9.00000E-002	9.82892E-004	5	..........a	-327.66
	938	187.8	-7.99557E-002	1.95501E-008	0.00000E+000	-8.00000E-002	9.94692E-004	5	..........a	-327.66
	939	188	-6.99604E-002	2.04712E-008	0.00000E+000	-7.00000E-002	9.92092E-004	5	..........a	-327.66
	940	188.2	-5.99173E-002	2.14703E-008	0.00000E+000	-6.00000E-002	9.75592E-004	5	..........a	-327.66
	941	188.4	-4.99076E-002	2.24729E-008	0.00000E+000	-5.00000E-002	9.81192E-004	5	..........a	-327.66
	942	188.6	-3.99534E-002	2.34443E-008	0.00000E+000	-4.00000E-002	9.87892E-004	5	..........a	-327.66
	943	188.8	-2.99640E-002	2.44387E-008	0.00000E+000	-3.00000E-002	9.78692E-004	5	..........a	-327.66
	944	189	-1.99281E-002	2.54446E-008	0.00000E+000	-2.00000E-002	9.81092E-004	5	..........a	-327.66
	945	189.2	-9.91126E-003	2.64574E-008	0.00000E+000	-1.00000E-002	9.62392E-004	5	..........a	-327.66
	946	189.4	2.60416E-005	2.74969E-008	0.00000E+000	7.45058E-009	9.84092E-004	5	..........a	-327.66
	947	189.6	1.00531E-002	2.85002E-008	0.00000E+000	1.00000E-002	9.85392E-004	5	..........a	-327.66
	948	189.8	2.00973E-002	2.95677E-008	0.00000E+000	2.00000E-002	9.87392E-004	5	..........a	-327.66
	949	190	3.00420E-002	3.06087E-008	0.00000E+000	3.00000E-002	9.91992E-004	5	..........a	-327.66
	950	190.2	3.99992E-002	3.16998E-008	0.00000E+000	4.00000E-002	9.74292E-004	5	..........a	-327.66
	951	190.4	5.00519E-002	3.27974E-008	0.00000E+000	5.00000E-002	9.96692E-004	5	..........a	-327.66
	952	190.6	6.00695E-002	3.39013E-008	0.00000E+000	6.00000E-002	9.78192E-004	5	..........a	-327.66
	953	190.8	7.00321E-002	3.50453E-008	0.00000E+000	7.00000E-002	9.79992E-004	5	..........a	-327.66
	954	191	8.00339E-002	3.61621E-008	0.00000E+000	8.00000E-002	9.78392E-004	5	..........a	-327.66
	955	191.2	9.01159E-002	3.73142E-008	0.00000E+000	9.00000E-002	9.77792E-004	5	..........a	-327.66
	956	191.4	1.00054E-001	3.84441E-008	0.00000E+000	1.00000E-001	9.91692E-004	5	..........a	-327.66
	957	191.6	1.10067E-001	3.95925E-008	0.00000E+000	1.10000E-001	9.86792E-004	5	..........a	-327.66
	958	191.8	1.19996E-001	4.07515E-008	0.00000E+000	1.20000E-001	1.00529E-003	5	..........a	-327.66
	959	192	1.30020E-001	4.19683E-008	0.00000E+000	1.30000E-001	9.87792E-004	5	..........a	-327.66
	960	192.2	1.40090E-001	4.31501E-008	0.00000E+000	1.40000E-001	9.74892E-004	5	..........a	-327.66
	961	192.4	1.50023E-001	4.43138E-008	0.00000E+000	1.50000E-001	9.87592E-004	5	..........a	-327.66
	962	192.6	1.60033E-001	4.54946E-008	0.00000E+000	1.60000E-001	1.00769E-003	5	..........a	-327.66
	963	192.8	1.70062E-001	4.66969E-008	0.00000E+000	1.70000E-001	9.82792E-004	5	..........a	-327.66
	964	193	1.80059E-001	4.79259E-008	0.00000E+000	1.80000E-001	9.80792E-004	5	..........a	-327.66
	965	193.2	1.90070E-001	4.91350E-008	0.00000E+000	1.90000E-001	9.81192E-004	5	..........a	-327.66
	966	193.4	2.00006E-001	5.03297E-008	0.00000E+000	2.00000E-001	9.94092E-004	5	..........a	-327.66
	967	193.6	2.09977E-001	5.15063E-008	0.00000E+000	2.10000E-001	9.67892E-004	5	..........a	-327.66
	968	193.8	2.19745E-001	5.26437E-008	0.00000E+000	2.20000E-001	9.72992E-004	5	..........a	-327.66
	969	194	2.29962E-001	5.36497E-008	0.00000E+000	2.30000E-001	9.81792E-004	5	..........a	-327.66
	970	194.2	2.40002E-001	5.46716E-008	0.00000E+000	2.40000E-001	1.00369E-003	5	..........a	-327.66
	971	194.4	2.50001E-001	5.56447E-008	0.00000E+000	2.50000E-001	9.81292E-004	5	..........a	-327.66
	972	194.6	2.60015E-001	5.66089E-008	0.00000E+000	2.60000E-001	9.84692E-004	5	..........a	-327.66
	973	194.8	2.70059E-001	5.76058E-008	0.00000E+000	2.70000E-001	9.92992E-004	5	..........a	-327.66
	974	195	2.79955E-001	5.86321E-008	0.00000E+000	2.80000E-001	9.87992E-004	5	..........a	-327.66
	975	195.2	2.90012E-001	5.96602E-008	0.00000E+000	2.90000E-001	9.83092E-004	5	..........a	-327.66
	976	195.4	3.00011E-001	6.07611E-008	0.00000E+000	3.00000E-001	9.80692E-004	5	..........a	-327.66
	977	195.6	3.10030E-001	6.18382E-008	0.00000E+000	3.10000E-001	9.93792E-004	5	..........a	-327.66
	978	195.8	3.20022E-001	6.30200E-008	0.00000E+000	3.20000E-001	1.00349E-003	5	..........a	-327.66
	979	196	3.29950E-001	6.41755E-008	0.00000E+000	3.30000E-001	9.94092E-004	5	..........a	-327.66
	980	196.2	3.40031E-001	6.53763E-008	0.00000E+000	3.40000E-001	9.77192E-004	5	..........a	-327.66
	981	196.4	3.50009E-001	6.65983E-008	0.00000E+000	3.50000E-001	9.86792E-004	5	..........a	-327.66
	982	196.6	3.59989E-001	6.78586E-008	0.00000E+000	3.60000E-001	9.84692E-004	5	..........a	-327.66
	983	196.8	3.69973E-001	6.91613E-008	0.00000E+000	3.70000E-001	9.86492E-004	5	..........a	-327.66
	984	197	3.79997E-001	7.05142E-008	0.00000E+000	3.80000E-001	9.80292E-004	5	..........a	-327.66
	985	197.2	3.90032E-001	7.18533E-008	0.00000E+000	3.90000E-001	9.83392E-004	5	..........a	-327.66
	986	197.4	4.00017E-001	7.32589E-008	0.00000E+000	4.00000E-001	9.68092E-004	5	..........a	-327.66
	987	197.6	4.09931E-001	7.47114E-008	0.00000E+000	4.10000E-001	9.84692E-004	5	..........a	-327.66
	988	197.8	4.19975E-001	7.61884E-008	0.00000E+000	4.20000E-001	9.83892E-004	5	..........a	-327.66
	989	198	4.30014E-001	7.76863E-008	0.00000E+000	4.30000E-001	9.92292E-004	5	..........a	-327.66
	990	198.2	4.39949E-001	7.92220E-008	0.00000E+000	4.40000E-001	9.81392E-004	5	..........a	-327.66
	991	198.4	4.50017E-001	8.07635E-008	0.00000E+000	4.50000E-001	9.62192E-004	5	..........a	-327.66
	992	198.6	4.59959E-001	8.23621E-008	0.00000E+000	4.60000E-001	9.92692E-004	5	..........a	-327.66
	993	198.8	4.70001E-001	8.40440E-008	0.00000E+000	4.70000E-001	9.75592E-004	5	..........a	-327.66
	994	199	4.79903E-001	8.57372E-008	0.00000E+000	4.80000E-001	9.85592E-004	5	..........a	-327.66
	995	199.2	4.89935E-001	8.74771E-008	0.00000E+000	4.90000E-001	9.81692E-004	5	..........a	-327.66
	996	199.4	5.00008E-001	8.92360E-008	0.00000E+000	5.00000E-001	9.68592E-004	5	..........a	-327.66
	997	199.6	5.09977E-001	9.10918E-008	0.00000E+000	5.10000E-001	1.00479E-003	5	..........a	-327.66
	998	199.8	5.19948E-001	9.29163E-008	0.00000E+000	5.20000E-001	9.78492E-004	5	..........a	-327.66
	999	200	5.29913E-001	9.48458E-008	0.00000E+000	5.30000E-001	9.81692E-004	5	..........a	-327.66
	1000	200.2	5.39957E-001	9.67490E-008	0.00000E+000	5.40000E-001	9.82592E-004	5	..........a	-327.66
	1001	200.4	5.49986E-001	9.86627E-008	0.00000E+000	5.50000E-001	9.71992E-004	5	..........a	-327.66
	1002	200.6	5.59901E-001	1.00545E-007	0.00000E+000	5.60000E-001	9.97892E-004	5	..........a	-327.66
	1003	200.8	5.69940E-001	1.02450E-007	0.00000E+000	5.70000E-001	9.85292E-004	5	..........a	-327.66
	1004	201	5.79956E-001	1.04368E-007	0.00000E+000	5.80000E-001	9.83192E-004	5	..........a	-327.66
	1005	201.2	5.89997E-001	1.06243E-007	0.00000E+000	5.90000E-001	9.78892E-004	5	..........a	-327.66
	1006	201.4	5.99935E-001	1.08131E-007	0.00000E+000	6.00000E-001	9.68392E-004	5	..........a	-327.66
	1007	201.6	6.09922E-001	1.10026E-007	0.00000E+000	6.10000E-001	9.77492E-004	5	..........a	-327.66
	1008	201.8	6.19896E-001	1.11964E-007	0.00000E+000	6.20000E-001	9.84392E-004	5	..........a	-327.66
	1009	202	6.30001E-001	1.13936E-007	0.00000E+000	6.30000E-001	9.90992E-004	5	..........a	-327.66
	1010	202.2	6.39865E-001	1.15929E-007	0.00000E+000	6.40000E-001	9.91892E-004	5	..........a	-327.66
	1011	202.4	6.49927E-001	1.18018E-007	0.00000E+000	6.50000E-001	9.91092E-004	5	..........a	-327.66
	1012	202.6	6.59899E-001	1.20135E-007	0.00000E+000	6.60000E-001	9.83792E-004	5	..........a	-327.66
	1013	202.8	6.69955E-001	1.22369E-007	0.00000E+000	6.70000E-001	9.80192E-004	5	..........a	-327.66
	1014	203	6.79903E-001	1.24687E-007	0.00000E+000	6.80000E-001	9.76792E-004	5	..........a	-327.66
	1015	203.2	6.89897E-001	1.27105E-007	0.00000E+000	6.90000E-001	1.00409E-003	5	..........a	-327.66
	1016	203.4	6.99882E-001	1.29620E-007	0.00000E+000	7.00000E-001	9.81492E-004	5	..........a	-327.66
	1017	203.6	7.09972E-001	1.32295E-007	0.00000E+000	7.10000E-001	9.89192E-004	5	..........a	-327.66
	1018	203.8	7.19886E-001	1.35133E-007	0.00000E+000	7.20000E-001	9.84492E-004	5	..........a	-327.66
	1019	204	7.29926E-001	1.38153E-007	0.00000E+000	7.30000E-001	9.84692E-004	5	..........a	-327.66
	1020	204.2	7.39886E-001	1.41510E-007	0.00000E+000	7.40000E-001	9.76692E-004	5	..........a	-327.66
	1021	204.4	7.49960E-001	1.45258E-007	0.00000E+000	7.50000E-001	9.89992E-004	5	..........a	-327.66
	1022	204.6	7.59893E-001	1.49364E-007	0.00000E+000	7.60000E-001	9.71192E-004	5	..........a	-327.66
	1023	204.8	7.69896E-001	1.53828E-007	0.00000E+000	7.70000E-001	9.78492E-004	5	..........a	-327.66
	1024	205	7.79858E-001	1.58814E-007	0.00000E+000	7.80000E-001	9.67892E-004	5	..........a	-327.66
	1025	205.2	7.89955E-001	1.64335E-007	0.00000E+000	7.90000E-001	9.86692E-004	5	..........a	-327.66
	1026	205.4	7.99855E-001	1.70428E-007	0.00000E+000	8.00000E-001	9.82992E-004	5	..........a	-327.66
CURVE5	TABLE
	Pt	T	Vf	Im	Vu	Sig	Ach	IERange	Over	Temp
	#	s	V vs. Ref.	A	V	V	V	#	bits	deg C
	1027	205.6	7.89962E-001	1.42120E-007	0.00000E+000	7.90000E-001	9.90492E-004	5	..........a	-327.66
	1028	205.8	7.79883E-001	1.24090E-007	0.00000E+000	7.80000E-001	9.80892E-004	5	..........a	-327.66
	1029	206	7.69864E-001	1.11216E-007	0.00000E+000	7.70000E-001	9.80792E-004	5	..........a	-327.66
	1030	206.2	7.59887E-001	1.01456E-007	0.00000E+000	7.60000E-001	9.84092E-004	5	..........a	-327.66
	1031	206.4	7.49979E-001	9.37843E-008	0.00000E+000	7.50000E-001	9.85992E-004	5	..........a	-327.66
	1032	206.6	7.39904E-001	8.74854E-008	0.00000E+000	7.40000E-001	9.87492E-004	5	..........a	-327.66
	1033	206.8	7.29924E-001	8.21965E-008	0.00000E+000	7.30000E-001	9.92492E-004	5	..........a	-327.66
	1034	207	7.19921E-001	7.76350E-008	0.00000E+000	7.20000E-001	9.72692E-004	5	..........a	-327.66
	1035	207.2	7.09991E-001	7.36224E-008	0.00000E+000	7.10000E-001	9.97792E-004	5	..........a	-327.66
	1036	207.4	6.99899E-001	7.00037E-008	0.00000E+000	7.00000E-001	9.71292E-004	5	..........a	-327.66
	1037	207.6	6.89913E-001	6.66938E-008	0.00000E+000	6.90000E-001	9.92292E-004	5	..........a	-327.66
	1038	207.8	6.79935E-001	6.36271E-008	0.00000E+000	6.80000E-001	9.73692E-004	5	..........a	-327.66
	1039	208	6.69974E-001	6.07736E-008	0.00000E+000	6.70000E-001	9.71092E-004	5	..........a	-327.66
	1040	208.2	6.59954E-001	5.80888E-008	0.00000E+000	6.60000E-001	9.63092E-004	5	..........a	-327.66
	1041	208.4	6.49945E-001	5.55319E-008	0.00000E+000	6.50000E-001	9.79292E-004	5	..........a	-327.66
	1042	208.6	6.39897E-001	5.30963E-008	0.00000E+000	6.40000E-001	1.01729E-003	5	..........a	-327.66
	1043	208.8	6.30035E-001	5.07469E-008	0.00000E+000	6.30000E-001	9.70592E-004	5	..........a	-327.66
	1044	209	6.19924E-001	4.85000E-008	0.00000E+000	6.20000E-001	9.96892E-004	5	..........a	-327.66
	1045	209.2	6.09962E-001	4.63455E-008	0.00000E+000	6.10000E-001	9.84092E-004	5	..........a	-327.66
	1046	209.4	5.99952E-001	4.42828E-008	0.00000E+000	6.00000E-001	9.79292E-004	5	..........a	-327.66
	1047	209.6	5.90019E-001	4.23506E-008	0.00000E+000	5.90000E-001	9.81492E-004	5	..........a	-327.66
	1048	209.8	5.79979E-001	4.05201E-008	0.00000E+000	5.80000E-001	9.76992E-004	5	..........a	-327.66
	1049	210	5.69941E-001	3.88316E-008	0.00000E+000	5.70000E-001	9.93292E-004	5	..........a	-327.66
	1050	210.2	5.59953E-001	3.72227E-008	0.00000E+000	5.60000E-001	9.82592E-004	5	..........a	-327.66
	1051	210.4	5.50022E-001	3.56050E-008	0.00000E+000	5.50000E-001	9.94892E-004	5	..........a	-327.66
	1052	210.6	5.39980E-001	3.39771E-008	0.00000E+000	5.40000E-001	9.71192E-004	5	..........a	-327.66
	1053	210.8	5.29986E-001	3.23729E-008	0.00000E+000	5.30000E-001	9.73192E-004	5	..........a	-327.66
	1054	211	5.19981E-001	3.08380E-008	0.00000E+000	5.20000E-001	9.78692E-004	5	..........a	-327.66
	1055	211.2	5.09992E-001	2.93721E-008	0.00000E+000	5.10000E-001	9.97892E-004	5	..........a	-327.66
	1056	211.4	5.00025E-001	2.79870E-008	0.00000E+000	5.00000E-001	9.76192E-004	5	..........a	-327.66
	1057	211.6	4.89975E-001	2.67264E-008	0.00000E+000	4.90000E-001	9.95892E-004	5	..........a	-327.66
	1058	211.8	4.79928E-001	2.54321E-008	0.00000E+000	4.80000E-001	9.81592E-004	5	..........a	-327.66
	1059	212	4.70020E-001	2.41121E-008	0.00000E+000	4.70000E-001	9.75192E-004	5	..........a	-327.66
	1060	212.2	4.59983E-001	2.26992E-008	0.00000E+000	4.60000E-001	9.61092E-004	5	..........a	-327.66
	1061	212.4	4.49799E-001	2.12196E-008	0.00000E+000	4.50000E-001	9.89292E-004	5	..........a	-327.66
	1062	212.6	4.39959E-001	1.97442E-008	0.00000E+000	4.40000E-001	9.99592E-004	5	..........a	-327.66
	1063	212.8	4.29993E-001	1.82271E-008	0.00000E+000	4.30000E-001	9.88192E-004	5	..........a	-327.66
	1064	213	4.20016E-001	1.66854E-008	0.00000E+000	4.20000E-001	9.62792E-004	5	..........a	-327.66
	1065	213.2	4.09995E-001	1.51266E-008	0.00000E+000	4.10000E-001	1.00409E-003	5	..........a	-327.66
	1066	213.4	3.99966E-001	1.35947E-008	0.00000E+000	4.00000E-001	9.80892E-004	5	..........a	-327.66
	1067	213.6	3.90042E-001	1.20305E-008	0.00000E+000	3.90000E-001	1.00109E-003	5	..........a	-327.66
	1068	213.8	3.80063E-001	1.04155E-008	0.00000E+000	3.80000E-001	9.71192E-004	5	..........a	-327.66
	1069	214	3.70040E-001	8.86821E-009	0.00000E+000	3.70000E-001	9.71092E-004	5	..........a	-327.66
	1070	214.2	3.59996E-001	7.27433E-009	0.00000E+000	3.60000E-001	9.84392E-004	5	..........a	-327.66
	1071	214.4	3.50022E-001	5.70185E-009	0.00000E+000	3.50000E-001	1.00249E-003	5	..........a	-327.66
	1072	214.6	3.40076E-001	4.07335E-009	0.00000E+000	3.40000E-001	9.81492E-004	5	..........a	-327.66
	1073	214.8	3.30002E-001	2.46655E-009	0.00000E+000	3.30000E-001	9.93992E-004	5	..........a	-327.66
	1074	215	3.20034E-001	7.97796E-010	0.00000E+000	3.20000E-001	9.82292E-004	5	..........a	-327.66
	1075	215.2	3.10026E-001	-9.12557E-010	0.00000E+000	3.10000E-001	9.84292E-004	5	..........a	-327.66
	1076	215.4	3.00044E-001	-2.57046E-009	0.00000E+000	3.00000E-001	9.62292E-004	5	..........a	-327.66
	1077	215.6	2.90079E-001	-4.23364E-009	0.00000E+000	2.90000E-001	9.84792E-004	5	..........a	-327.66
	1078	215.8	2.80021E-001	-6.05347E-009	0.00000E+000	2.80000E-001	9.76292E-004	5	..........a	-327.66
	1079	216	2.70094E-001	-7.84254E-009	0.00000E+000	2.70000E-001	9.83992E-004	5	..........a	-327.66
	1080	216.2	2.60063E-001	-9.69677E-009	0.00000E+000	2.60000E-001	9.63592E-004	5	..........a	-327.66
	1081	216.4	2.50043E-001	-1.15638E-008	0.00000E+000	2.50000E-001	9.77792E-004	5	..........a	-327.66
	1082	216.6	2.40063E-001	-1.34296E-008	0.00000E+000	2.40000E-001	9.86292E-004	5	..........a	-327.66
	1083	216.8	2.30048E-001	-1.52925E-008	0.00000E+000	2.30000E-001	9.80592E-004	5	..........a	-327.66
	1084	217	2.20096E-001	-1.70538E-008	0.00000E+000	2.20000E-001	9.64392E-004	5	..........a	-327.66
	1085	217.2	2.10037E-001	-1.87669E-008	0.00000E+000	2.10000E-001	9.72792E-004	5	..........a	-327.66
	1086	217.4	2.00074E-001	-2.02888E-008	0.00000E+000	2.00000E-001	9.84392E-004	5	..........a	-327.66
	1087	217.6	1.90115E-001	-2.15835E-008	0.00000E+000	1.90000E-001	9.75992E-004	5	..........a	-327.66
	1088	217.8	1.80097E-001	-2.26639E-008	0.00000E+000	1.80000E-001	9.60692E-004	5	..........a	-327.66
	1089	218	1.70100E-001	-2.34610E-008	0.00000E+000	1.70000E-001	9.85592E-004	5	..........a	-327.66
	1090	218.2	1.60075E-001	-2.39522E-008	0.00000E+000	1.60000E-001	9.87892E-004	5	..........a	-327.66
	1091	218.4	1.50113E-001	-2.41988E-008	0.00000E+000	1.50000E-001	9.83392E-004	5	..........a	-327.66
	1092	218.6	1.40134E-001	-2.42214E-008	0.00000E+000	1.40000E-001	9.65492E-004	5	..........a	-327.66
	1093	218.8	1.30098E-001	-2.40253E-008	0.00000E+000	1.30000E-001	9.84692E-004	5	..........a	-327.66
	1094	219	1.20072E-001	-2.36057E-008	0.00000E+000	1.20000E-001	9.75892E-004	5	..........a	-327.66
	1095	219.2	1.10110E-001	-2.30716E-008	0.00000E+000	1.10000E-001	9.78792E-004	5	..........a	-327.66
	1096	219.4	1.00122E-001	-2.24836E-008	0.00000E+000	1.00000E-001	9.59092E-004	5	..........a	-327.66
	1097	219.6	9.00938E-002	-2.18564E-008	0.00000E+000	9.00000E-002	9.57192E-004	5	..........a	-327.66
	1098	219.8	8.00686E-002	-2.12563E-008	0.00000E+000	8.00000E-002	9.78692E-004	5	..........a	-327.66
	1099	220	7.00649E-002	-2.07815E-008	0.00000E+000	7.00000E-002	9.72392E-004	5	..........a	-327.66
	1100	220.2	6.01230E-002	-2.04050E-008	0.00000E+000	6.00000E-002	9.69492E-004	5	..........a	-327.66
	1101	220.4	5.00811E-002	-2.02215E-008	0.00000E+000	5.00000E-002	9.81092E-004	5	..........a	-327.66
	1102	220.6	4.01037E-002	-2.01830E-008	0.00000E+000	4.00000E-002	9.69992E-004	5	..........a	-327.66
	1103	220.8	3.00994E-002	-2.01923E-008	0.00000E+000	3.00000E-002	9.71092E-004	5	..........a	-327.66
	1104	221	2.01572E-002	-2.03193E-008	0.00000E+000	2.00000E-002	9.62092E-004	5	..........a	-327.66
	1105	221.2	1.01188E-002	-2.05467E-008	0.00000E+000	1.00000E-002	9.74092E-004	5	..........a	-327.66
	1106	221.4	7.14416E-005	-2.08551E-008	0.00000E+000	7.45058E-009	9.85092E-004	5	..........a	-327.66
	1107	221.6	-9.86396E-003	-2.12192E-008	0.00000E+000	-1.00000E-002	9.70792E-004	5	..........a	-327.66
	1108	221.8	-1.99113E-002	-2.17168E-008	0.00000E+000	-2.00000E-002	9.73792E-004	5	..........a	-327.66
	1109	222	-2.99317E-002	-2.23077E-008	0.00000E+000	-3.00000E-002	9.75192E-004	5	..........a	-327.66
	1110	222.2	-3.99142E-002	-2.28982E-008	0.00000E+000	-4.00000E-002	9.78392E-004	5	..........a	-327.66
	1111	222.4	-4.98822E-002	-2.35619E-008	0.00000E+000	-5.00000E-002	9.67192E-004	5	..........a	-327.66
	1112	222.6	-5.98910E-002	-2.42589E-008	0.00000E+000	-6.00000E-002	9.70892E-004	5	..........a	-327.66
	1113	222.8	-6.98872E-002	-2.50271E-008	0.00000E+000	-7.00000E-002	9.64792E-004	5	..........a	-327.66
	1114	223	-7.99143E-002	-2.58064E-008	0.00000E+000	-8.00000E-002	9.81392E-004	5	..........a	-327.66
	1115	223.2	-8.99037E-002	-2.66215E-008	0.00000E+000	-9.00000E-002	9.80992E-004	5	..........a	-327.66
	1116	223.4	-9.98985E-002	-2.74809E-008	0.00000E+000	-1.00000E-001	9.55792E-004	5	..........a	-327.66
	1117	223.6	-1.09958E-001	-2.82663E-008	0.00000E+000	-1.10000E-001	9.80992E-004	5	..........a	-327.66
	1118	223.8	-1.19902E-001	-2.90603E-008	0.00000E+000	-1.20000E-001	9.70292E-004	5	..........a	-327.66
	1119	224	-1.29904E-001	-2.98863E-008	0.00000E+000	-1.30000E-001	9.73792E-004	5	..........a	-327.66
	1120	224.2	-1.39924E-001	-3.06672E-008	0.00000E+000	-1.40000E-001	9.55492E-004	5	..........a	-327.66