File: data/raw/batch_data/20240424_ZJ_GM0016_HL03_E09_CV50K.DTA
EXPLAIN
TAG	CV
TITLE	LABEL	Cyclic Voltammetry	Test &Identifier
DATE	LABEL	4/24/2024	Date
TIME	LABEL	18:45:56	Time
NOTES	NOTES	1	&Notes...

PSTAT	PSTAT	REF600P-43058	Potentiostat
VINIT	POTEN	0.00000E+000	T	Initial &E (V)
VLIMIT1	POTEN	-6.00000E-001	F	Scan Limit &1 (V)
VLIMIT2	POTEN	8.00000E-001	F	Scan Limit &2 (V)
VFINAL	POTEN	0.00000E+000	T	Final &E (V)
SCANRATE	QUANT	4.99999E+004	&Scan Rate (mV/s)
STEPSIZE	QUANT	1.00000E+001	St&ep Size (mV)
CYCLES	IQUANT	10	C&ycles (#)
IMODE	SELECTOR	0	I/E Range &Mode
IRANGE	QUANT	1.00000E-005	&Max Current (mA)
AREA	QUANT	1.00000E+000	Electrode &Area (cm^2)
ELECTRODETYPE	SELECTOR	0	Electrode Type
STRIPPING	TOGGLE	F	Used for Stripping
POLARITY	TOGGLE	F	Signal Polarity
CONDIT	TWOPARAM	F	1.50000E+001	0.00000E+000	Conditionin&g	Time(s)	E(V)
DELAY	TWOPARAM	T	1.00000E+001	0.00000E+000	Init. De&lay	Time(s)	Stab.(mV/s)
EQDELAY	QUANT	1.00000E+001	Equil. &Time (s)
IRCOMP	SELECTOR	0	IRCom&p
PFCOR	QUANT	5.00000E+001	PF Corr. (ohm)
SAMPLINGMODE	SELECTOR	1	Sampling &Mode
OCVCURVE	TABLE	39
	Pt	T	Vf	Vm	Ach	Over	Temp
	#	s	V vs. Ref.	V	V	bits	deg C
	0	0.258333	6.72285E-002	6.72285E-002	2.41259E-004	..........a	-327.66
	1	0.516667	6.72214E-002	6.68598E-002	2.40992E-004	..........a	-327.66
	2	0.775	6.71776E-002	6.64795E-002	2.50859E-004	..........a	-327.66
	3	1.03333	6.70514E-002	6.61010E-002	2.35326E-004	..........a	-327.66
	4	1.29167	6.68203E-002	6.57201E-002	2.46859E-004	..........a	-327.66
	5	1.55	6.65033E-002	6.53193E-002	2.25326E-004	..........a	-327.66
	6	1.80833	6.61372E-002	6.49404E-002	2.46459E-004	..........a	-327.66
	7	2.06667	6.57508E-002	6.45438E-002	2.33659E-004	..........a	-327.66
	8	2.325	6.53588E-002	6.41450E-002	2.54592E-004	..........a	-327.66
	9	2.58333	6.49656E-002	6.37400E-002	2.43926E-004	..........a	-327.66
	10	2.84167	6.45706E-002	6.33392E-002	2.55726E-004	..........a	-327.66
	11	3.1	6.41726E-002	6.29328E-002	2.45659E-004	..........a	-327.66
	12	3.35833	6.37717E-002	6.25248E-002	2.48259E-004	..........a	-327.66
	13	3.61667	6.33683E-002	6.21118E-002	2.53792E-004	..........a	-327.66
	14	3.875	6.29624E-002	6.17026E-002	2.41459E-004	..........a	-327.66
	15	4.13333	6.25543E-002	6.12883E-002	2.52859E-004	..........a	-327.66
	16	4.39167	6.21444E-002	6.08791E-002	2.48592E-004	..........a	-327.66
	17	4.65	6.17333E-002	6.04663E-002	2.57926E-004	..........a	-327.66
	18	4.90833	6.13217E-002	6.00487E-002	2.53526E-004	..........a	-327.66
	19	5.16667	6.09095E-002	5.96389E-002	2.49726E-004	..........a	-327.66
	20	5.425	6.04966E-002	5.92254E-002	2.45459E-004	..........a	-327.66
	21	5.68333	6.00834E-002	5.88105E-002	2.50792E-004	..........a	-327.66
	22	5.94167	5.96701E-002	5.83977E-002	2.53392E-004	..........a	-327.66
	23	6.2	5.92568E-002	5.79848E-002	2.46926E-004	..........a	-327.66
	24	6.45833	5.88434E-002	5.75744E-002	2.47592E-004	..........a	-327.66
	25	6.71667	5.84304E-002	5.71611E-002	2.47526E-004	..........a	-327.66
	26	6.975	5.80178E-002	5.67503E-002	2.50792E-004	..........a	-327.66
	27	7.23333	5.76056E-002	5.63364E-002	2.52726E-004	..........a	-327.66
	28	7.49167	5.71935E-002	5.59238E-002	2.49392E-004	..........a	-327.66
	29	7.75	5.67812E-002	5.55103E-002	2.60259E-004	..........a	-327.66
	30	8.00833	5.63684E-002	5.50867E-002	2.37059E-004	..........a	-327.66
	31	8.26667	5.59547E-002	5.46909E-002	2.51592E-004	..........a	-327.66
	32	8.525	5.55411E-002	5.42789E-002	2.59192E-004	..........a	-327.66
	33	8.78333	5.51290E-002	5.38705E-002	2.41392E-004	..........a	-327.66
	34	9.04167	5.47190E-002	5.34575E-002	2.49526E-004	..........a	-327.66
	35	9.3	5.43100E-002	5.30545E-002	2.41126E-004	..........a	-327.66
	36	9.5583	5.39013E-002	5.26524E-002	2.46592E-004	..........a	-327.66
	37	9.8167	5.34936E-002	5.22435E-002	2.43926E-004	..........a	-327.66
	38	10.075	5.30871E-002	5.18404E-002	2.52192E-004	..........a	-327.66
EOC	QUANT	0.0530871	Open Circuit (V)
PSTATMODEL	IQUANT	7	Pstat Model
PSTATSECTION	LABEL	REF600P-43058	Pstat Section
PSTATSERIALNO	LABEL	43058	Pstat Serial Number
CTRLMODE	IQUANT	1	Control Mode
ELECTROMETER	IQUANT	0	RE=0 or CS=1
IESTAB	IQUANT	2	I/E Stability
CASPEED	IQUANT	4	Control Amp Speed
CONVENTION	IQUANT	1	Current Convention
ICHRANGE	IQUANT	2	Ich Range
ICHRANGEMODE	TOGGLE	F	Ich Auto Range
ICHOFFSETENABLE	TOGGLE	F	Ich Offset Enable
ICHOFFSET	QUANT	0	Ich Offset (V)
ICHFILTER	IQUANT	1	Ich Filter
VCHRANGE	IQUANT	2	Vch Range
VCHRANGEMODE	TOGGLE	F	Vch Auto Range
VCHOFFSETENABLE	TOGGLE	F	Vch Offset Enable
VCHOFFSET	QUANT	0	Vch Offset (V)
VCHFILTER	IQUANT	1	Vch Filter
ACHRANGE	IQUANT	2	Ach Range
ACHOFFSETENABLE	TOGGLE	F	Ach Offset Enable
ACHOFFSET	QUANT	0	Ach Offset (V)
ACHFILTER	IQUANT	1	Ach Filter
IERANGELOWERLIMIT	IQUANT	1	I/E Range Lower Limit
IERANGEMODE	TOGGLE	T	I/E AutoRange
IERANGE	IQUANT	4	I/E Range
POSFEEDENABLE	TOGGLE	F	Positive Feedback IR Comp
POSFEEDRESISTANCE	QUANT	0	Positive Feedback Resistance (ohm)
ACHSELECT	IQUANT	4	Ach Select
SENSECABLEID	IQUANT	7	Sense Cable ID
PWRCABLEID	IQUANT	7	Power Cable ID
DCCALDATE	LABEL	3/22/2024	DC Calibration Date
ACCALDATE	LABEL	3/22/2024	AC Calibration Date
THERMOSELECT	IQUANT	1	Thermo Select
FRAMEWORKVERSION	LABEL	7.8.4	Framework Version
INSTRUMENTVERSION	LABEL	4.42	Instrument Version
CURVE1	TABLE
	Pt	T	Vf	Im	Vu	Sig	Ach	IERange	Over	Temp
	#	s	V vs. Ref.	A	V	V	V	#	bits	deg C
	0	0.0002	5.30471E-002	2.05000E-007	0.00000E+000	5.31000E-002	8.15923E-005	8	..........a	-327.66
	1	0.0004	4.31971E-002	-8.65041E-007	0.00000E+000	4.31000E-002	8.15923E-005	8	..........a	-327.66
	2	0.0006	3.30471E-002	-1.68507E-006	0.00000E+000	3.31000E-002	8.15923E-005	8	..........a	-327.66
	3	0.0008	2.33471E-002	-2.32510E-006	0.00000E+000	2.31000E-002	8.15923E-005	8	..........a	-327.66
	4	0.001	1.31471E-002	-2.93512E-006	0.00000E+000	1.31000E-002	8.15923E-005	8	..........a	-327.66
	5	0.0012	3.24711E-003	-3.36514E-006	0.00000E+000	3.10000E-003	8.15923E-005	8	..........a	-327.66
	6	0.0014	-6.75289E-003	-3.81515E-006	0.00000E+000	-6.90000E-003	8.15923E-005	8	..........a	-327.66
	7	0.0016	-1.68529E-002	-4.15517E-006	0.00000E+000	-1.69000E-002	8.15923E-005	8	..........a	-327.66
	8	0.0018	-2.68529E-002	-4.49518E-006	0.00000E+000	-2.69000E-002	8.15923E-005	8	..........a	-327.66
	9	0.002	-3.65529E-002	-4.81519E-006	0.00000E+000	-3.69000E-002	8.15923E-005	8	..........a	-327.66
	10	0.0022	-4.68529E-002	-5.08520E-006	0.00000E+000	-4.69000E-002	8.15923E-005	8	..........a	-327.66
	11	0.0024	-5.66529E-002	-5.35521E-006	0.00000E+000	-5.69000E-002	8.15923E-005	8	..........a	-327.66
	12	0.0026	-6.68529E-002	-5.54522E-006	0.00000E+000	-6.69000E-002	8.15923E-005	8	..........a	-327.66
	13	0.0028	-7.67529E-002	-5.76523E-006	0.00000E+000	-7.69000E-002	8.15923E-005	8	..........a	-327.66
	14	0.003	-8.67529E-002	-5.94524E-006	0.00000E+000	-8.69000E-002	8.15923E-005	8	..........a	-327.66
	15	0.0032	-9.69529E-002	-6.13524E-006	0.00000E+000	-9.69000E-002	8.15923E-005	8	..........a	-327.66
	16	0.0034	-1.06853E-001	-6.30525E-006	0.00000E+000	-1.06900E-001	-3.18408E-004	8	..........a	-327.66
	17	0.0036	-1.16753E-001	-6.45526E-006	0.00000E+000	-1.16900E-001	8.15923E-005	8	..........a	-327.66
	18	0.0038	-1.26853E-001	-6.64526E-006	0.00000E+000	-1.26900E-001	8.15923E-005	8	..........a	-327.66
	19	0.004	-1.36753E-001	-6.77527E-006	0.00000E+000	-1.36900E-001	8.15923E-005	8	..........a	-327.66
	20	0.0042	-1.46853E-001	-6.86527E-006	0.00000E+000	-1.46900E-001	8.15923E-005	8	..........a	-327.66
	21	0.0044	-1.56953E-001	-7.01528E-006	0.00000E+000	-1.56900E-001	8.15923E-005	8	..........a	-327.66
	22	0.0046	-1.66953E-001	-7.12528E-006	0.00000E+000	-1.66900E-001	8.15923E-005	8	..........a	-327.66
	23	0.0048	-1.76653E-001	-7.24528E-006	0.00000E+000	-1.76900E-001	8.15923E-005	8	..........a	-327.66
	24	0.005	-1.86903E-001	-7.38529E-006	0.00000E+000	-1.86900E-001	8.15923E-005	8	..........a	-327.66
	25	0.0052	-1.96853E-001	-7.47529E-006	0.00000E+000	-1.96900E-001	8.15923E-005	8	..........a	-327.66
	26	0.0054	-2.06953E-001	-7.58530E-006	0.00000E+000	-2.06900E-001	8.15923E-005	8	..........a	-327.66
	27	0.0056	-2.16653E-001	-7.71530E-006	0.00000E+000	-2.16900E-001	8.15923E-005	8	..........a	-327.66
	28	0.0058	-2.26953E-001	-7.81531E-006	0.00000E+000	-2.26900E-001	8.15923E-005	8	..........a	-327.66
	29	0.006	-2.36853E-001	-7.98531E-006	0.00000E+000	-2.36900E-001	8.15923E-005	8	..........a	-327.66
	30	0.0062	-2.46753E-001	-8.09532E-006	0.00000E+000	-2.46900E-001	8.15923E-005	8	..........a	-327.66
	31	0.0064	-2.56653E-001	-8.13532E-006	0.00000E+000	-2.56900E-001	8.15923E-005	8	..........a	-327.66
	32	0.0066	-2.66853E-001	-8.21532E-006	0.00000E+000	-2.66900E-001	8.15923E-005	8	..........a	-327.66
	33	0.0068	-2.76853E-001	-8.31533E-006	0.00000E+000	-2.76900E-001	8.15923E-005	8	..........a	-327.66
	34	0.007	-2.86753E-001	-8.47533E-006	0.00000E+000	-2.86900E-001	8.15923E-005	8	..........a	-327.66
	35	0.0072	-2.96753E-001	-8.59534E-006	0.00000E+000	-2.96900E-001	8.15923E-005	8	..........a	-327.66
	36	0.0074	-3.06753E-001	-8.64534E-006	0.00000E+000	-3.06900E-001	8.15923E-005	8	..........a	-327.66
	37	0.0076	-3.16653E-001	-8.76534E-006	0.00000E+000	-3.16900E-001	8.15923E-005	8	..........a	-327.66
	38	0.0078	-3.26753E-001	-8.93535E-006	0.00000E+000	-3.26900E-001	8.15923E-005	8	..........a	-327.66
	39	0.008	-3.36653E-001	-9.04535E-006	0.00000E+000	-3.36900E-001	8.15923E-005	8	..........a	-327.66
	40	0.0082	-3.46953E-001	-9.17536E-006	0.00000E+000	-3.46900E-001	8.15923E-005	8	..........a	-327.66
	41	0.0084	-3.56753E-001	-9.28536E-006	0.00000E+000	-3.56900E-001	8.15923E-005	8	..........a	-327.66
	42	0.0086	-3.66753E-001	-9.41537E-006	0.00000E+000	-3.66900E-001	8.15923E-005	8	..........a	-327.66
	43	0.0088	-3.76653E-001	-9.53537E-006	0.00000E+000	-3.76900E-001	8.15923E-005	8	..........a	-327.66
	44	0.009	-3.86853E-001	-9.69538E-006	0.00000E+000	-3.86900E-001	8.15923E-005	8	..........a	-327.66
	45	0.0092	-3.96853E-001	-9.80538E-006	0.00000E+000	-3.96900E-001	8.15923E-005	8	..........a	-327.66
	46	0.0094	-4.06853E-001	-9.96539E-006	0.00000E+000	-4.06900E-001	8.15923E-005	8	..........a	-327.66
	47	0.0096	-4.16653E-001	-1.00954E-005	0.00000E+000	-4.16900E-001	8.15923E-005	8	..........a	-327.66
	48	0.0098	-4.26753E-001	-1.02454E-005	0.00000E+000	-4.26900E-001	8.15923E-005	8	..........a	-327.66
	49	0.01	-4.36853E-001	-1.03954E-005	0.00000E+000	-4.36900E-001	8.15923E-005	8	..........a	-327.66
	50	0.0102	-4.46253E-001	-1.05354E-005	0.00000E+000	-4.46900E-001	8.15923E-005	8	..........a	-327.66
	51	0.0104	-4.56753E-001	-1.06754E-005	0.00000E+000	-4.56900E-001	8.15923E-005	8	..........a	-327.66
	52	0.0106	-4.66753E-001	-1.08554E-005	0.00000E+000	-4.66900E-001	8.15923E-005	8	..........a	-327.66
	53	0.0108	-4.76853E-001	-1.09754E-005	0.00000E+000	-4.76900E-001	8.15923E-005	8	..........a	-327.66
	54	0.011	-4.86753E-001	-1.11654E-005	0.00000E+000	-4.86900E-001	8.15923E-005	8	..........a	-327.66
	55	0.0112	-4.96753E-001	-1.13354E-005	0.00000E+000	-4.96900E-001	8.15923E-005	8	..........a	-327.66
	56	0.0114	-5.06753E-001	-1.14354E-005	0.00000E+000	-5.06900E-001	8.15923E-005	8	..........a	-327.66
	57	0.0116	-5.16953E-001	-1.15955E-005	0.00000E+000	-5.16900E-001	8.15923E-005	8	..........a	-327.66
	58	0.0118	-5.26853E-001	-1.17255E-005	0.00000E+000	-5.26900E-001	8.15923E-005	8	..........a	-327.66
	59	0.012	-5.36853E-001	-1.18955E-005	0.00000E+000	-5.36900E-001	8.15923E-005	8	..........a	-327.66
	60	0.0122	-5.46653E-001	-1.20055E-005	0.00000E+000	-5.46900E-001	8.15923E-005	8	..........a	-327.66
	61	0.0124	-5.56853E-001	-1.21555E-005	0.00000E+000	-5.56900E-001	8.15923E-005	8	..........a	-327.66
	62	0.0126	-5.66753E-001	-1.23255E-005	0.00000E+000	-5.66900E-001	8.15923E-005	8	..........a	-327.66
	63	0.0128	-5.76853E-001	-1.24255E-005	0.00000E+000	-5.76900E-001	8.15923E-005	8	..........a	-327.66
	64	0.013	-5.86703E-001	-1.26255E-005	0.00000E+000	-5.86900E-001	8.15923E-005	8	..........a	-327.66
	65	0.0132	-5.96953E-001	-1.27655E-005	0.00000E+000	-5.96900E-001	8.15923E-005	8	..........a	-327.66
	66	0.0134	-5.86753E-001	-1.06454E-005	0.00000E+000	-5.86900E-001	-1.18408E-004	8	..........a	-327.66
	67	0.0136	-5.76753E-001	-9.03535E-006	0.00000E+000	-5.76900E-001	8.15923E-005	8	..........a	-327.66
	68	0.0138	-5.66753E-001	-7.67530E-006	0.00000E+000	-5.66900E-001	8.15923E-005	8	..........a	-327.66
	69	0.014	-5.56853E-001	-6.50526E-006	0.00000E+000	-5.56900E-001	8.15923E-005	8	..........a	-327.66
	70	0.0142	-5.46753E-001	-5.55522E-006	0.00000E+000	-5.46900E-001	8.15923E-005	8	..........a	-327.66
	71	0.0144	-5.36753E-001	-4.59518E-006	0.00000E+000	-5.36900E-001	1.81592E-004	8	..........a	-327.66
	72	0.0146	-5.26753E-001	-3.79515E-006	0.00000E+000	-5.26900E-001	8.15923E-005	8	..........a	-327.66
	73	0.0148	-5.16753E-001	-3.07513E-006	0.00000E+000	-5.16900E-001	8.15923E-005	8	..........a	-327.66
	74	0.015	-5.06753E-001	-2.39510E-006	0.00000E+000	-5.06900E-001	8.15923E-005	8	..........a	-327.66
	75	0.0152	-4.96653E-001	-1.75508E-006	0.00000E+000	-4.96900E-001	8.15923E-005	8	..........a	-327.66
	76	0.0154	-4.86853E-001	-1.19505E-006	0.00000E+000	-4.86900E-001	8.15923E-005	8	..........a	-327.66
	77	0.0156	-4.76853E-001	-6.75034E-007	0.00000E+000	-4.76900E-001	8.15923E-005	8	..........a	-327.66
	78	0.0158	-4.66953E-001	-1.85015E-007	0.00000E+000	-4.66900E-001	8.15923E-005	8	..........a	-327.66
	79	0.016	-4.56653E-001	2.85003E-007	0.00000E+000	-4.56900E-001	8.15923E-005	8	..........a	-327.66
	80	0.0162	-4.46753E-001	7.35020E-007	0.00000E+000	-4.46900E-001	8.15923E-005	8	..........a	-327.66
	81	0.0164	-4.36903E-001	1.11503E-006	0.00000E+000	-4.36900E-001	8.15923E-005	8	..........a	-327.66
	82	0.0166	-4.26753E-001	1.58505E-006	0.00000E+000	-4.26900E-001	8.15923E-005	8	..........a	-327.66
	83	0.0168	-4.16653E-001	1.80506E-006	0.00000E+000	-4.16900E-001	8.15923E-005	8	..........a	-327.66
	84	0.017	-4.06753E-001	2.17508E-006	0.00000E+000	-4.06900E-001	8.15923E-005	8	..........a	-327.66
	85	0.0172	-3.96953E-001	2.52509E-006	0.00000E+000	-3.96900E-001	8.15923E-005	8	..........a	-327.66
	86	0.0174	-3.86853E-001	2.78510E-006	0.00000E+000	-3.86900E-001	8.15923E-005	8	..........a	-327.66
	87	0.0176	-3.76853E-001	3.10511E-006	0.00000E+000	-3.76900E-001	8.15923E-005	8	..........a	-327.66
	88	0.0178	-3.66853E-001	3.33512E-006	0.00000E+000	-3.66900E-001	8.15923E-005	8	..........a	-327.66
	89	0.018	-3.56753E-001	3.62513E-006	0.00000E+000	-3.56900E-001	8.15923E-005	8	..........a	-327.66
	90	0.0182	-3.46853E-001	3.82514E-006	0.00000E+000	-3.46900E-001	8.15923E-005	8	..........a	-327.66
	91	0.0184	-3.36753E-001	4.05515E-006	0.00000E+000	-3.36900E-001	8.15923E-005	8	..........a	-327.66
	92	0.0186	-3.26653E-001	4.32516E-006	0.00000E+000	-3.26900E-001	8.15923E-005	8	..........a	-327.66
	93	0.0188	-3.16853E-001	4.45516E-006	0.00000E+000	-3.16900E-001	-2.18408E-004	8	..........a	-327.66
	94	0.019	-3.06753E-001	4.67517E-006	0.00000E+000	-3.06900E-001	8.15923E-005	8	..........a	-327.66
	95	0.0192	-2.96853E-001	4.85518E-006	0.00000E+000	-2.96900E-001	8.15923E-005	8	..........a	-327.66
	96	0.0194	-2.86953E-001	5.03519E-006	0.00000E+000	-2.86900E-001	8.15923E-005	8	..........a	-327.66
	97	0.0196	-2.76853E-001	5.22519E-006	0.00000E+000	-2.76900E-001	8.15923E-005	8	..........a	-327.66
	98	0.0198	-2.66953E-001	5.39520E-006	0.00000E+000	-2.66900E-001	8.15923E-005	8	..........a	-327.66
	99	0.02	-2.56753E-001	5.59521E-006	0.00000E+000	-2.56900E-001	8.15923E-005	8	..........a	-327.66
	100	0.0202	-2.46753E-001	5.66521E-006	0.00000E+000	-2.46900E-001	8.15923E-005	8	..........a	-327.66
	101	0.0204	-2.37003E-001	5.84522E-006	0.00000E+000	-2.36900E-001	8.15923E-005	8	..........a	-327.66
	102	0.0206	-2.26853E-001	6.00522E-006	0.00000E+000	-2.26900E-001	8.15923E-005	8	..........a	-327.66
	103	0.0208	-2.16753E-001	6.13523E-006	0.00000E+000	-2.16900E-001	8.15923E-005	8	..........a	-327.66
	104	0.021	-2.06653E-001	6.23523E-006	0.00000E+000	-2.06900E-001	8.15923E-005	8	..........a	-327.66
	105	0.0212	-1.96853E-001	6.43524E-006	0.00000E+000	-1.96900E-001	8.15923E-005	8	..........a	-327.66
	106	0.0214	-1.86853E-001	6.52524E-006	0.00000E+000	-1.86900E-001	8.15923E-005	8	..........a	-327.66
	107	0.0216	-1.76753E-001	6.66525E-006	0.00000E+000	-1.76900E-001	8.15923E-005	8	..........a	-327.66
	108	0.0218	-1.66903E-001	6.78525E-006	0.00000E+000	-1.66900E-001	8.15923E-005	8	..........a	-327.66
	109	0.022	-1.56853E-001	6.91526E-006	0.00000E+000	-1.56900E-001	8.15923E-005	8	..........a	-327.66
	110	0.0222	-1.46753E-001	6.96526E-006	0.00000E+000	-1.46900E-001	8.15923E-005	8	..........a	-327.66
	111	0.0224	-1.36853E-001	7.10526E-006	0.00000E+000	-1.36900E-001	8.15923E-005	8	..........a	-327.66
	112	0.0226	-1.26853E-001	7.22527E-006	0.00000E+000	-1.26900E-001	8.15923E-005	8	..........a	-327.66
	113	0.0228	-1.16753E-001	7.38527E-006	0.00000E+000	-1.16900E-001	8.15923E-005	8	..........a	-327.66
	114	0.023	-1.06753E-001	7.51528E-006	0.00000E+000	-1.06900E-001	8.15923E-005	8	..........a	-327.66
	115	0.0232	-9.68529E-002	7.57528E-006	0.00000E+000	-9.69000E-002	8.15923E-005	8	..........a	-327.66
	116	0.0234	-8.69529E-002	7.69529E-006	0.00000E+000	-8.69000E-002	8.15923E-005	8	..........a	-327.66
	117	0.0236	-7.68529E-002	7.82529E-006	0.00000E+000	-7.69000E-002	8.15923E-005	8	..........a	-327.66
	118	0.0238	-6.68529E-002	7.97530E-006	0.00000E+000	-6.69000E-002	8.15923E-005	8	..........a	-327.66
	119	0.024	-5.67529E-002	8.02530E-006	0.00000E+000	-5.69000E-002	8.15923E-005	8	..........a	-327.66
	120	0.0242	-4.69529E-002	8.14530E-006	0.00000E+000	-4.69000E-002	8.15923E-005	8	..........a	-327.66
	121	0.0244	-3.68529E-002	8.24531E-006	0.00000E+000	-3.69000E-002	8.15923E-005	8	..........a	-327.66
	122	0.0246	-2.67529E-002	8.37531E-006	0.00000E+000	-2.69000E-002	8.15923E-005	8	..........a	-327.66
	123	0.0248	-1.67529E-002	8.47532E-006	0.00000E+000	-1.69000E-002	8.15923E-005	8	..........a	-327.66
	124	0.025	-6.95289E-003	8.55532E-006	0.00000E+000	-6.90000E-003	8.15923E-005	8	..........a	-327.66
	125	0.0252	3.04711E-003	8.66532E-006	0.00000E+000	3.10000E-003	8.15923E-005	8	..........a	-327.66
	126	0.0254	1.32971E-002	8.81533E-006	0.00000E+000	1.31000E-002	8.15923E-005	8	..........a	-327.66
	127	0.0256	2.31971E-002	8.93533E-006	0.00000E+000	2.31000E-002	8.15923E-005	8	..........a	-327.66
	128	0.0258	3.31471E-002	9.07534E-006	0.00000E+000	3.31000E-002	8.15923E-005	8	..........a	-327.66
	129	0.026	4.32471E-002	9.18534E-006	0.00000E+000	4.31000E-002	8.15923E-005	8	..........a	-327.66
	130	0.0262	5.29471E-002	9.32535E-006	0.00000E+000	5.31000E-002	8.15923E-005	8	..........a	-327.66
	131	0.0264	6.31471E-002	9.43535E-006	0.00000E+000	6.31000E-002	8.15923E-005	8	..........a	-327.66
	132	0.0266	7.29971E-002	9.58536E-006	0.00000E+000	7.31000E-002	8.15923E-005	8	..........a	-327.66
	133	0.0268	8.30471E-002	9.73536E-006	0.00000E+000	8.31000E-002	8.15923E-005	8	..........a	-327.66
	134	0.027	9.32471E-002	9.84537E-006	0.00000E+000	9.31000E-002	8.15923E-005	8	..........a	-327.66
	135	0.0272	1.03447E-001	9.95537E-006	0.00000E+000	1.03100E-001	8.15923E-005	8	..........a	-327.66
	136	0.0274	1.13147E-001	1.00954E-005	0.00000E+000	1.13100E-001	8.15923E-005	8	..........a	-327.66
	137	0.0276	1.23147E-001	1.02054E-005	0.00000E+000	1.23100E-001	8.15923E-005	8	..........a	-327.66
	138	0.0278	1.33147E-001	1.03554E-005	0.00000E+000	1.33100E-001	8.15923E-005	8	..........a	-327.66
	139	0.028	1.43347E-001	1.05054E-005	0.00000E+000	1.43100E-001	8.15923E-005	8	..........a	-327.66
	140	0.0282	1.53097E-001	1.06654E-005	0.00000E+000	1.53100E-001	8.15923E-005	8	..........a	-327.66
	141	0.0284	1.63147E-001	1.08254E-005	0.00000E+000	1.63100E-001	8.15923E-005	8	..........a	-327.66
	142	0.0286	1.73147E-001	1.09754E-005	0.00000E+000	1.73100E-001	8.15923E-005	8	..........a	-327.66
	143	0.0288	1.83247E-001	1.11254E-005	0.00000E+000	1.83100E-001	8.15923E-005	8	..........a	-327.66
	144	0.029	1.93147E-001	1.12654E-005	0.00000E+000	1.93100E-001	8.15923E-005	8	..........a	-327.66
	145	0.0292	2.03097E-001	1.14454E-005	0.00000E+000	2.03100E-001	8.15923E-005	8	..........a	-327.66
	146	0.0294	2.13047E-001	1.16354E-005	0.00000E+000	2.13100E-001	8.15923E-005	8	..........a	-327.66
	147	0.0296	2.23147E-001	1.17854E-005	0.00000E+000	2.23100E-001	-2.18408E-004	8	..........a	-327.66
	148	0.0298	2.33247E-001	1.19855E-005	0.00000E+000	2.33100E-001	8.15923E-005	8	..........a	-327.66
	149	0.03	2.43247E-001	1.21655E-005	0.00000E+000	2.43100E-001	8.15923E-005	8	..........a	-327.66
	150	0.0302	2.53147E-001	1.23255E-005	0.00000E+000	2.53100E-001	8.15923E-005	8	..........a	-327.66
	151	0.0304	2.63247E-001	1.25755E-005	0.00000E+000	2.63100E-001	8.15923E-005	8	..........a	-327.66
	152	0.0306	2.72997E-001	1.27855E-005	0.00000E+000	2.73100E-001	8.15923E-005	8	..........a	-327.66
	153	0.0308	2.82847E-001	1.30055E-005	0.00000E+000	2.83100E-001	8.15923E-005	8	..........a	-327.66
	154	0.031	2.93147E-001	1.32855E-005	0.00000E+000	2.93100E-001	8.15923E-005	8	..........a	-327.66
	155	0.0312	3.03147E-001	1.35455E-005	0.00000E+000	3.03100E-001	8.15923E-005	8	..........a	-327.66
	156	0.0314	3.13047E-001	1.37055E-005	0.00000E+000	3.13100E-001	8.15923E-005	8	..........a	-327.66
	157	0.0316	3.22947E-001	1.39555E-005	0.00000E+000	3.23100E-001	8.15923E-005	8	..........a	-327.66
	158	0.0318	3.33147E-001	1.41855E-005	0.00000E+000	3.33100E-001	8.15923E-005	8	..........a	-327.66
	159	0.032	3.43247E-001	1.43355E-005	0.00000E+000	3.43100E-001	8.15923E-005	8	..........a	-327.66
	160	0.0322	3.53147E-001	1.44755E-005	0.00000E+000	3.53100E-001	8.15923E-005	8	..........a	-327.66
	161	0.0324	3.63047E-001	1.47156E-005	0.00000E+000	3.63100E-001	8.15923E-005	8	..........a	-327.66
	162	0.0326	3.73247E-001	1.48356E-005	0.00000E+000	3.73100E-001	8.15923E-005	8	..........a	-327.66
	163	0.0328	3.83247E-001	1.50356E-005	0.00000E+000	3.83100E-001	8.15923E-005	8	..........a	-327.66
	164	0.033	3.93197E-001	1.51456E-005	0.00000E+000	3.93100E-001	8.15923E-005	8	..........a	-327.66
	165	0.0332	4.03147E-001	1.53356E-005	0.00000E+000	4.03100E-001	8.15923E-005	8	..........a	-327.66
	166	0.0334	4.13147E-001	1.55156E-005	0.00000E+000	4.13100E-001	8.15923E-005	8	..........a	-327.66
	167	0.0336	4.23347E-001	1.57156E-005	0.00000E+000	4.23100E-001	8.15923E-005	8	..........a	-327.66
	168	0.0338	4.33147E-001	1.58656E-005	0.00000E+000	4.33100E-001	8.15923E-005	8	..........a	-327.66
	169	0.034	4.43147E-001	1.60256E-005	0.00000E+000	4.43100E-001	8.15923E-005	8	..........a	-327.66
	170	0.0342	4.53147E-001	1.62156E-005	0.00000E+000	4.53100E-001	8.15923E-005	8	..........a	-327.66
	171	0.0344	4.62947E-001	1.64356E-005	0.00000E+000	4.63100E-001	8.15923E-005	8	..........a	-327.66
	172	0.0346	4.73247E-001	1.65856E-005	0.00000E+000	4.73100E-001	8.15923E-005	8	..........a	-327.66
	173	0.0348	4.83047E-001	1.67656E-005	0.00000E+000	4.83100E-001	8.15923E-005	8	..........a	-327.66
	174	0.035	4.93147E-001	1.68956E-005	0.00000E+000	4.93100E-001	-2.18408E-004	8	..........a	-327.66
	175	0.0352	5.03147E-001	1.70956E-005	0.00000E+000	5.03100E-001	8.15923E-005	8	..........a	-327.66
	176	0.0354	5.13147E-001	1.71456E-005	0.00000E+000	5.13100E-001	8.15923E-005	8	..........a	-327.66
	177	0.0356	5.23047E-001	1.73457E-005	0.00000E+000	5.23100E-001	8.15923E-005	8	..........a	-327.66
	178	0.0358	5.33147E-001	1.73957E-005	0.00000E+000	5.33100E-001	8.15923E-005	8	..........a	-327.66
	179	0.036	5.43147E-001	1.75057E-005	0.00000E+000	5.43100E-001	8.15923E-005	8	..........a	-327.66
	180	0.0362	5.53047E-001	1.76057E-005	0.00000E+000	5.53100E-001	8.15923E-005	8	..........a	-327.66
	181	0.0364	5.62997E-001	1.76957E-005	0.00000E+000	5.63100E-001	-1.18408E-004	8	..........a	-327.66
	182	0.0366	5.73047E-001	1.77957E-005	0.00000E+000	5.73100E-001	8.15923E-005	8	..........a	-327.66
	183	0.0368	5.83197E-001	1.78857E-005	0.00000E+000	5.83100E-001	8.15923E-005	8	..........a	-327.66
	184	0.037	5.93197E-001	1.79857E-005	0.00000E+000	5.93100E-001	8.15923E-005	8	..........a	-327.66
	185	0.0372	6.03147E-001	1.80957E-005	0.00000E+000	6.03100E-001	8.15923E-005	8	..........a	-327.66
	186	0.0374	6.13147E-001	1.82357E-005	0.00000E+000	6.13100E-001	8.15923E-005	8	..........a	-327.66
	187	0.0376	6.23047E-001	1.83857E-005	0.00000E+000	6.23100E-001	8.15923E-005	8	..........a	-327.66
	188	0.0378	6.33097E-001	1.85157E-005	0.00000E+000	6.33100E-001	8.15923E-005	8	..........a	-327.66
	189	0.038	6.43097E-001	1.86557E-005	0.00000E+000	6.43100E-001	8.15923E-005	8	..........a	-327.66
	190	0.0382	6.53047E-001	1.88557E-005	0.00000E+000	6.53100E-001	8.15923E-005	8	..........a	-327.66
	191	0.0384	6.62947E-001	1.89857E-005	0.00000E+000	6.63100E-001	8.15923E-005	8	..........a	-327.66
	192	0.0386	6.73147E-001	1.91457E-005	0.00000E+000	6.73100E-001	8.15923E-005	8	..........a	-327.66
	193	0.0388	6.82847E-001	1.92657E-005	0.00000E+000	6.83100E-001	8.15923E-005	8	..........a	-327.66
	194	0.039	6.93047E-001	1.93857E-005	0.00000E+000	6.93100E-001	8.15923E-005	8	..........a	-327.66
	195	0.0392	7.03147E-001	1.94457E-005	0.00000E+000	7.03100E-001	8.15923E-005	8	..........a	-327.66
	196	0.0394	7.13047E-001	1.95657E-005	0.00000E+000	7.13100E-001	8.15923E-005	8	..........a	-327.66
	197	0.0396	7.23047E-001	1.96357E-005	0.00000E+000	7.23100E-001	8.15923E-005	8	..........a	-327.66
	198	0.0398	7.33147E-001	1.96957E-005	0.00000E+000	7.33100E-001	8.15923E-005	8	..........a	-327.66
	199	0.04	7.43247E-001	1.97457E-005	0.00000E+000	7.43100E-001	8.15923E-005	8	..........a	-327.66
	200	0.0402	7.53047E-001	1.97657E-005	0.00000E+000	7.53100E-001	8.15923E-005	8	..........a	-327.66
	201	0.0404	7.63047E-001	1.98057E-005	0.00000E+000	7.63100E-001	8.15923E-005	8	..........a	-327.66
	202	0.0406	7.73047E-001	1.98358E-005	0.00000E+000	7.73100E-001	8.15923E-005	8	..........a	-327.66
	203	0.0408	7.83147E-001	1.98458E-005	0.00000E+000	7.83100E-001	8.15923E-005	8	..........a	-327.66
	204	0.041	7.93147E-001	1.99158E-005	0.00000E+000	7.93100E-001	8.15923E-005	8	..........a	-327.66
	205	0.0412	8.03047E-001	1.99858E-005	0.00000E+000	8.03100E-001	8.15923E-005	8	..........a	-327.66
CURVE2	TABLE
	Pt	T	Vf	Im	Vu	Sig	Ach	IERange	Over	Temp
	#	s	V vs. Ref.	A	V	V	V	#	bits	deg C
	206	0.0414	7.89947E-001	1.66856E-005	0.00000E+000	7.90000E-001	8.15923E-005	8	..........a	-327.66
	207	0.0416	7.79947E-001	1.45455E-005	0.00000E+000	7.80000E-001	8.15923E-005	8	..........a	-327.66
	208	0.0418	7.69747E-001	1.27955E-005	0.00000E+000	7.70000E-001	8.15923E-005	8	..........a	-327.66
	209	0.042	7.60097E-001	1.12854E-005	0.00000E+000	7.60000E-001	8.15923E-005	8	..........a	-327.66
	210	0.0422	7.49947E-001	9.90537E-006	0.00000E+000	7.50000E-001	8.15923E-005	8	..........a	-327.66
	211	0.0424	7.40047E-001	8.70532E-006	0.00000E+000	7.40000E-001	8.15923E-005	8	..........a	-327.66
	212	0.0426	7.29647E-001	7.58528E-006	0.00000E+000	7.30000E-001	8.15923E-005	8	..........a	-327.66
	213	0.0428	7.19947E-001	6.58524E-006	0.00000E+000	7.20000E-001	8.15923E-005	8	..........a	-327.66
	214	0.043	7.09897E-001	5.72521E-006	0.00000E+000	7.10000E-001	8.15923E-005	8	..........a	-327.66
	215	0.0432	6.99947E-001	4.79518E-006	0.00000E+000	7.00000E-001	8.15923E-005	8	..........a	-327.66
	216	0.0434	6.89847E-001	4.02515E-006	0.00000E+000	6.90000E-001	8.15923E-005	8	..........a	-327.66
	217	0.0436	6.79847E-001	3.23512E-006	0.00000E+000	6.80000E-001	8.15923E-005	8	..........a	-327.66
	218	0.0438	6.69797E-001	2.57509E-006	0.00000E+000	6.70000E-001	8.15923E-005	8	..........a	-327.66
	219	0.044	6.60147E-001	1.88506E-006	0.00000E+000	6.60000E-001	8.15923E-005	8	..........a	-327.66
	220	0.0442	6.50047E-001	1.30504E-006	0.00000E+000	6.50000E-001	8.15923E-005	8	..........a	-327.66
	221	0.0444	6.39947E-001	7.55021E-007	0.00000E+000	6.40000E-001	8.15923E-005	8	..........a	-327.66
	222	0.0446	6.29947E-001	1.94999E-007	0.00000E+000	6.30000E-001	8.15923E-005	8	..........a	-327.66
	223	0.0448	6.19947E-001	-3.55022E-007	0.00000E+000	6.20000E-001	8.15923E-005	8	..........a	-327.66
	224	0.045	6.09947E-001	-8.15039E-007	0.00000E+000	6.10000E-001	-3.18408E-004	8	..........a	-327.66
	225	0.0452	5.99947E-001	-1.27506E-006	0.00000E+000	6.00000E-001	8.15923E-005	8	..........a	-327.66
	226	0.0454	5.89947E-001	-1.72507E-006	0.00000E+000	5.90000E-001	8.15923E-005	8	..........a	-327.66
	227	0.0456	5.80097E-001	-2.13509E-006	0.00000E+000	5.80000E-001	8.15923E-005	8	..........a	-327.66
	228	0.0458	5.69947E-001	-2.51510E-006	0.00000E+000	5.70000E-001	8.15923E-005	8	..........a	-327.66
	229	0.046	5.60147E-001	-2.93512E-006	0.00000E+000	5.60000E-001	8.15923E-005	8	..........a	-327.66
	230	0.0462	5.49997E-001	-3.27513E-006	0.00000E+000	5.50000E-001	8.15923E-005	8	..........a	-327.66
	231	0.0464	5.40047E-001	-3.56514E-006	0.00000E+000	5.40000E-001	8.15923E-005	8	..........a	-327.66
	232	0.0466	5.30047E-001	-3.89516E-006	0.00000E+000	5.30000E-001	8.15923E-005	8	..........a	-327.66
	233	0.0468	5.19947E-001	-4.23517E-006	0.00000E+000	5.20000E-001	8.15923E-005	8	..........a	-327.66
	234	0.047	5.09947E-001	-4.55518E-006	0.00000E+000	5.10000E-001	8.15923E-005	8	..........a	-327.66
	235	0.0472	4.99647E-001	-4.88519E-006	0.00000E+000	5.00000E-001	8.15923E-005	8	..........a	-327.66
	236	0.0474	4.89947E-001	-5.16521E-006	0.00000E+000	4.90000E-001	8.15923E-005	8	..........a	-327.66
	237	0.0476	4.80147E-001	-5.44522E-006	0.00000E+000	4.80000E-001	8.15923E-005	8	..........a	-327.66
	238	0.0478	4.70047E-001	-5.75523E-006	0.00000E+000	4.70000E-001	8.15923E-005	8	..........a	-327.66
	239	0.048	4.60247E-001	-6.01524E-006	0.00000E+000	4.60000E-001	8.15923E-005	8	..........a	-327.66
	240	0.0482	4.50047E-001	-6.31525E-006	0.00000E+000	4.50000E-001	8.15923E-005	8	..........a	-327.66
	241	0.0484	4.40047E-001	-6.57526E-006	0.00000E+000	4.40000E-001	8.15923E-005	8	..........a	-327.66
	242	0.0486	4.29947E-001	-6.87527E-006	0.00000E+000	4.30000E-001	8.15923E-005	8	..........a	-327.66
	243	0.0488	4.20047E-001	-7.17528E-006	0.00000E+000	4.20000E-001	8.15923E-005	8	..........a	-327.66
	244	0.049	4.09997E-001	-7.43529E-006	0.00000E+000	4.10000E-001	8.15923E-005	8	..........a	-327.66
	245	0.0492	4.00047E-001	-7.72530E-006	0.00000E+000	4.00000E-001	8.15923E-005	8	..........a	-327.66
	246	0.0494	3.90047E-001	-8.05532E-006	0.00000E+000	3.90000E-001	8.15923E-005	8	..........a	-327.66
	247	0.0496	3.80147E-001	-8.24532E-006	0.00000E+000	3.80000E-001	8.15923E-005	8	..........a	-327.66
	248	0.0498	3.70047E-001	-8.59534E-006	0.00000E+000	3.70000E-001	8.15923E-005	8	..........a	-327.66
	249	0.05	3.60047E-001	-8.87535E-006	0.00000E+000	3.60000E-001	8.15923E-005	8	..........a	-327.66
	250	0.0502	3.50047E-001	-9.12536E-006	0.00000E+000	3.50000E-001	8.15923E-005	8	..........a	-327.66
	251	0.0504	3.39947E-001	-9.43537E-006	0.00000E+000	3.40000E-001	8.15923E-005	8	..........a	-327.66
	252	0.0506	3.30047E-001	-9.73538E-006	0.00000E+000	3.30000E-001	8.15923E-005	8	..........a	-327.66
	253	0.0508	3.20047E-001	-9.93539E-006	0.00000E+000	3.20000E-001	8.15923E-005	8	..........a	-327.66
	254	0.051	3.09947E-001	-1.02654E-005	0.00000E+000	3.10000E-001	8.15923E-005	8	..........a	-327.66
	255	0.0512	2.99947E-001	-1.05354E-005	0.00000E+000	3.00000E-001	8.15923E-005	8	..........a	-327.66
	256	0.0514	2.90147E-001	-1.07454E-005	0.00000E+000	2.90000E-001	8.15923E-005	8	..........a	-327.66
	257	0.0516	2.79947E-001	-1.10354E-005	0.00000E+000	2.80000E-001	8.15923E-005	8	..........a	-327.66
	258	0.0518	2.70047E-001	-1.12954E-005	0.00000E+000	2.70000E-001	-1.18408E-004	8	..........a	-327.66
	259	0.052	2.60147E-001	-1.14754E-005	0.00000E+000	2.60000E-001	8.15923E-005	8	..........a	-327.66
	260	0.0522	2.49747E-001	-1.16155E-005	0.00000E+000	2.50000E-001	-3.18408E-004	8	..........a	-327.66
	261	0.0524	2.40047E-001	-1.17555E-005	0.00000E+000	2.40000E-001	8.15923E-005	8	..........a	-327.66
	262	0.0526	2.29947E-001	-1.19755E-005	0.00000E+000	2.30000E-001	8.15923E-005	8	..........a	-327.66
	263	0.0528	2.20147E-001	-1.21755E-005	0.00000E+000	2.20000E-001	8.15923E-005	8	..........a	-327.66
	264	0.053	2.10047E-001	-1.24055E-005	0.00000E+000	2.10000E-001	8.15923E-005	8	..........a	-327.66
	265	0.0532	1.99947E-001	-1.26355E-005	0.00000E+000	2.00000E-001	8.15923E-005	8	..........a	-327.66
	266	0.0534	1.89947E-001	-1.28155E-005	0.00000E+000	1.90000E-001	8.15923E-005	8	..........a	-327.66
	267	0.0536	1.80097E-001	-1.30555E-005	0.00000E+000	1.80000E-001	-3.18408E-004	8	..........a	-327.66
	268	0.0538	1.70147E-001	-1.31955E-005	0.00000E+000	1.70000E-001	8.15923E-005	8	..........a	-327.66
	269	0.054	1.60147E-001	-1.32955E-005	0.00000E+000	1.60000E-001	8.15923E-005	8	..........a	-327.66
	270	0.0542	1.50047E-001	-1.34855E-005	0.00000E+000	1.50000E-001	8.15923E-005	8	..........a	-327.66
	271	0.0544	1.40047E-001	-1.36055E-005	0.00000E+000	1.40000E-001	8.15923E-005	8	..........a	-327.66
	272	0.0546	1.30247E-001	-1.37555E-005	0.00000E+000	1.30000E-001	8.15923E-005	8	..........a	-327.66
	273	0.0548	1.19947E-001	-1.38955E-005	0.00000E+000	1.20000E-001	8.15923E-005	8	..........a	-327.66
	274	0.055	1.10047E-001	-1.40355E-005	0.00000E+000	1.10000E-001	8.15923E-005	8	..........a	-327.66
	275	0.0552	1.00247E-001	-1.41355E-005	0.00000E+000	1.00000E-001	8.15923E-005	8	..........a	-327.66
	276	0.0554	9.00471E-002	-1.42756E-005	0.00000E+000	9.00000E-002	8.15923E-005	8	..........a	-327.66
	277	0.0556	8.01471E-002	-1.44556E-005	0.00000E+000	8.00000E-002	8.15923E-005	8	..........a	-327.66
	278	0.0558	7.00471E-002	-1.45356E-005	0.00000E+000	7.00000E-002	8.15923E-005	8	..........a	-327.66
	279	0.056	6.01471E-002	-1.46756E-005	0.00000E+000	6.00000E-002	8.15923E-005	8	..........a	-327.66
	280	0.0562	5.00471E-002	-1.47856E-005	0.00000E+000	5.00000E-002	8.15923E-005	8	..........a	-327.66
	281	0.0564	4.00471E-002	-1.48756E-005	0.00000E+000	4.00000E-002	-2.18408E-004	8	..........a	-327.66
	282	0.0566	3.00471E-002	-1.50456E-005	0.00000E+000	3.00000E-002	8.15923E-005	8	..........a	-327.66
	283	0.0568	2.02471E-002	-1.50456E-005	0.00000E+000	2.00000E-002	8.15923E-005	8	..........a	-327.66
	284	0.057	1.00471E-002	-1.51356E-005	0.00000E+000	1.00000E-002	8.15923E-005	8	..........a	-327.66
	285	0.0572	4.71142E-005	-1.51756E-005	0.00000E+000	7.45058E-009	8.15923E-005	8	..........a	-327.66
	286	0.0574	-9.95289E-003	-1.52656E-005	0.00000E+000	-1.00000E-002	8.15923E-005	8	..........a	-327.66
	287	0.0576	-1.97529E-002	-1.52356E-005	0.00000E+000	-2.00000E-002	8.15923E-005	8	..........a	-327.66
	288	0.0578	-3.00529E-002	-1.51356E-005	0.00000E+000	-3.00000E-002	-2.18408E-004	8	..........a	-327.66
	289	0.058	-3.99529E-002	-1.51456E-005	0.00000E+000	-4.00000E-002	8.15923E-005	8	..........a	-327.66
	290	0.0582	-5.00029E-002	-1.50556E-005	0.00000E+000	-5.00000E-002	8.15923E-005	8	..........a	-327.66
	291	0.0584	-5.98529E-002	-1.50356E-005	0.00000E+000	-6.00000E-002	8.15923E-005	8	..........a	-327.66
	292	0.0586	-6.99529E-002	-1.48656E-005	0.00000E+000	-7.00000E-002	8.15923E-005	8	..........a	-327.66
	293	0.0588	-7.98529E-002	-1.48556E-005	0.00000E+000	-8.00000E-002	8.15923E-005	8	..........a	-327.66
	294	0.059	-8.98529E-002	-1.47756E-005	0.00000E+000	-9.00000E-002	8.15923E-005	8	..........a	-327.66
	295	0.0592	-9.98529E-002	-1.46956E-005	0.00000E+000	-1.00000E-001	8.15923E-005	8	..........a	-327.66
	296	0.0594	-1.10053E-001	-1.46956E-005	0.00000E+000	-1.10000E-001	8.15923E-005	8	..........a	-327.66
	297	0.0596	-1.19953E-001	-1.47556E-005	0.00000E+000	-1.20000E-001	8.15923E-005	8	..........a	-327.66
	298	0.0598	-1.29953E-001	-1.47056E-005	0.00000E+000	-1.30000E-001	8.15923E-005	8	..........a	-327.66
	299	0.06	-1.39853E-001	-1.46956E-005	0.00000E+000	-1.40000E-001	8.15923E-005	8	..........a	-327.66
	300	0.0602	-1.50053E-001	-1.47156E-005	0.00000E+000	-1.50000E-001	8.15923E-005	8	..........a	-327.66
	301	0.0604	-1.59853E-001	-1.46556E-005	0.00000E+000	-1.60000E-001	8.15923E-005	8	..........a	-327.66
	302	0.0606	-1.69953E-001	-1.46056E-005	0.00000E+000	-1.70000E-001	8.15923E-005	8	..........a	-327.66
	303	0.0608	-1.79953E-001	-1.45756E-005	0.00000E+000	-1.80000E-001	8.15923E-005	8	..........a	-327.66
	304	0.061	-1.89953E-001	-1.45956E-005	0.00000E+000	-1.90000E-001	8.15923E-005	8	..........a	-327.66
	305	0.0612	-1.99953E-001	-1.45256E-005	0.00000E+000	-2.00000E-001	8.15923E-005	8	..........a	-327.66
	306	0.0614	-2.09953E-001	-1.44756E-005	0.00000E+000	-2.10000E-001	8.15923E-005	8	..........a	-327.66
	307	0.0616	-2.19953E-001	-1.44356E-005	0.00000E+000	-2.20000E-001	8.15923E-005	8	..........a	-327.66
	308	0.0618	-2.30053E-001	-1.43556E-005	0.00000E+000	-2.30000E-001	8.15923E-005	8	..........a	-327.66
	309	0.062	-2.39753E-001	-1.42456E-005	0.00000E+000	-2.40000E-001	8.15923E-005	8	..........a	-327.66
	310	0.0622	-2.49953E-001	-1.41956E-005	0.00000E+000	-2.50000E-001	8.15923E-005	8	..........a	-327.66
	311	0.0624	-2.59953E-001	-1.41355E-005	0.00000E+000	-2.60000E-001	8.15923E-005	8	..........a	-327.66
	312	0.0626	-2.69853E-001	-1.40755E-005	0.00000E+000	-2.70000E-001	8.15923E-005	8	..........a	-327.66
	313	0.0628	-2.79853E-001	-1.39955E-005	0.00000E+000	-2.80000E-001	8.15923E-005	8	..........a	-327.66
	314	0.063	-2.89953E-001	-1.39155E-005	0.00000E+000	-2.90000E-001	8.15923E-005	8	..........a	-327.66
	315	0.0632	-2.99953E-001	-1.38055E-005	0.00000E+000	-3.00000E-001	8.15923E-005	8	..........a	-327.66
	316	0.0634	-3.09953E-001	-1.37255E-005	0.00000E+000	-3.10000E-001	8.15923E-005	8	..........a	-327.66
	317	0.0636	-3.19853E-001	-1.36855E-005	0.00000E+000	-3.20000E-001	8.15923E-005	8	..........a	-327.66
	318	0.0638	-3.29953E-001	-1.36055E-005	0.00000E+000	-3.30000E-001	8.15923E-005	8	..........a	-327.66
	319	0.064	-3.39753E-001	-1.35355E-005	0.00000E+000	-3.40000E-001	8.15923E-005	8	..........a	-327.66
	320	0.0642	-3.49953E-001	-1.35055E-005	0.00000E+000	-3.50000E-001	8.15923E-005	8	..........a	-327.66
	321	0.0644	-3.59753E-001	-1.34355E-005	0.00000E+000	-3.60000E-001	8.15923E-005	8	..........a	-327.66
	322	0.0646	-3.69953E-001	-1.33955E-005	0.00000E+000	-3.70000E-001	8.15923E-005	8	..........a	-327.66
	323	0.0648	-3.79853E-001	-1.33255E-005	0.00000E+000	-3.80000E-001	8.15923E-005	8	..........a	-327.66
	324	0.065	-3.89953E-001	-1.32855E-005	0.00000E+000	-3.90000E-001	8.15923E-005	8	..........a	-327.66
	325	0.0652	-3.99853E-001	-1.33155E-005	0.00000E+000	-4.00000E-001	8.15923E-005	8	..........a	-327.66
	326	0.0654	-4.09853E-001	-1.32355E-005	0.00000E+000	-4.10000E-001	8.15923E-005	8	..........a	-327.66
	327	0.0656	-4.19753E-001	-1.31855E-005	0.00000E+000	-4.20000E-001	8.15923E-005	8	..........a	-327.66
	328	0.0658	-4.30053E-001	-1.31755E-005	0.00000E+000	-4.30000E-001	8.15923E-005	8	..........a	-327.66
	329	0.066	-4.39953E-001	-1.31755E-005	0.00000E+000	-4.40000E-001	8.15923E-005	8	..........a	-327.66
	330	0.0662	-4.49953E-001	-1.31755E-005	0.00000E+000	-4.50000E-001	8.15923E-005	8	..........a	-327.66
	331	0.0664	-4.59853E-001	-1.31855E-005	0.00000E+000	-4.60000E-001	8.15923E-005	8	..........a	-327.66
	332	0.0666	-4.69853E-001	-1.31755E-005	0.00000E+000	-4.70000E-001	8.15923E-005	8	..........a	-327.66
	333	0.0668	-4.79853E-001	-1.31955E-005	0.00000E+000	-4.80000E-001	8.15923E-005	8	..........a	-327.66
	334	0.067	-4.89853E-001	-1.31255E-005	0.00000E+000	-4.90000E-001	8.15923E-005	8	..........a	-327.66
	335	0.0672	-4.99953E-001	-1.31755E-005	0.00000E+000	-5.00000E-001	8.15923E-005	8	..........a	-327.66
	336	0.0674	-5.09953E-001	-1.32355E-005	0.00000E+000	-5.10000E-001	8.15923E-005	8	..........a	-327.66
	337	0.0676	-5.20053E-001	-1.32155E-005	0.00000E+000	-5.20000E-001	8.15923E-005	8	..........a	-327.66
	338	0.0678	-5.29853E-001	-1.32055E-005	0.00000E+000	-5.30000E-001	8.15923E-005	8	..........a	-327.66
	339	0.068	-5.39753E-001	-1.32455E-005	0.00000E+000	-5.40000E-001	8.15923E-005	8	..........a	-327.66
	340	0.0682	-5.49853E-001	-1.32855E-005	0.00000E+000	-5.50000E-001	8.15923E-005	8	..........a	-327.66
	341	0.0684	-5.59753E-001	-1.33155E-005	0.00000E+000	-5.60000E-001	-3.18408E-004	8	..........a	-327.66
	342	0.0686	-5.69853E-001	-1.33255E-005	0.00000E+000	-5.70000E-001	8.15923E-005	8	..........a	-327.66
	343	0.0688	-5.79953E-001	-1.34155E-005	0.00000E+000	-5.80000E-001	8.15923E-005	8	..........a	-327.66
	344	0.069	-5.89953E-001	-1.34755E-005	0.00000E+000	-5.90000E-001	8.15923E-005	8	..........a	-327.66
	345	0.0692	-5.99953E-001	-1.35155E-005	0.00000E+000	-6.00000E-001	8.15923E-005	8	..........a	-327.66
[...]
	2604	0.521	-4.10053E-001	1.95507E-006	0.00000E+000	-4.10000E-001	8.15923E-005	8	..........a	-327.66
	2605	0.5212	-3.99953E-001	2.23508E-006	0.00000E+000	-4.00000E-001	8.15923E-005	8	..........a	-327.66
	2606	0.5214	-3.89953E-001	2.54509E-006	0.00000E+000	-3.90000E-001	8.15923E-005	8	..........a	-327.66
	2607	0.5216	-3.79803E-001	2.85510E-006	0.00000E+000	-3.80000E-001	8.15923E-005	8	..........a	-327.66
	2608	0.5218	-3.69953E-001	3.12511E-006	0.00000E+000	-3.70000E-001	8.15923E-005	8	..........a	-327.66
	2609	0.522	-3.59803E-001	3.37512E-006	0.00000E+000	-3.60000E-001	8.15923E-005	8	..........a	-327.66
	2610	0.5222	-3.49953E-001	3.61513E-006	0.00000E+000	-3.50000E-001	8.15923E-005	8	..........a	-327.66
	2611	0.5224	-3.39753E-001	3.82514E-006	0.00000E+000	-3.40000E-001	8.15923E-005	8	..........a	-327.66
	2612	0.5226	-3.30053E-001	4.05515E-006	0.00000E+000	-3.30000E-001	8.15923E-005	8	..........a	-327.66
	2613	0.5228	-3.19953E-001	4.31516E-006	0.00000E+000	-3.20000E-001	8.15923E-005	8	..........a	-327.66
	2614	0.523	-3.09853E-001	4.49516E-006	0.00000E+000	-3.10000E-001	8.15923E-005	8	..........a	-327.66
	2615	0.5232	-2.99853E-001	4.66517E-006	0.00000E+000	-3.00000E-001	8.15923E-005	8	..........a	-327.66
	2616	0.5234	-2.90053E-001	4.81518E-006	0.00000E+000	-2.90000E-001	8.15923E-005	8	..........a	-327.66
	2617	0.5236	-2.80053E-001	5.03519E-006	0.00000E+000	-2.80000E-001	8.15923E-005	8	..........a	-327.66
	2618	0.5238	-2.69853E-001	5.25519E-006	0.00000E+000	-2.70000E-001	8.15923E-005	8	..........a	-327.66
	2619	0.524	-2.59753E-001	5.35520E-006	0.00000E+000	-2.60000E-001	8.15923E-005	8	..........a	-327.66
	2620	0.5242	-2.49953E-001	5.52520E-006	0.00000E+000	-2.50000E-001	8.15923E-005	8	..........a	-327.66
	2621	0.5244	-2.39953E-001	5.68521E-006	0.00000E+000	-2.40000E-001	8.15923E-005	8	..........a	-327.66
	2622	0.5246	-2.29953E-001	5.83522E-006	0.00000E+000	-2.30000E-001	8.15923E-005	8	..........a	-327.66
	2623	0.5248	-2.19853E-001	5.98522E-006	0.00000E+000	-2.20000E-001	8.15923E-005	8	..........a	-327.66
	2624	0.525	-2.09853E-001	6.11523E-006	0.00000E+000	-2.10000E-001	8.15923E-005	8	..........a	-327.66
	2625	0.5252	-1.99953E-001	6.24523E-006	0.00000E+000	-2.00000E-001	-1.18408E-004	8	..........a	-327.66
	2626	0.5254	-1.90353E-001	6.39524E-006	0.00000E+000	-1.90000E-001	8.15923E-005	8	..........a	-327.66
	2627	0.5256	-1.79853E-001	6.53524E-006	0.00000E+000	-1.80000E-001	-2.18408E-004	8	..........a	-327.66
	2628	0.5258	-1.69953E-001	6.64525E-006	0.00000E+000	-1.70000E-001	8.15923E-005	8	..........a	-327.66
	2629	0.526	-1.60103E-001	6.78525E-006	0.00000E+000	-1.60000E-001	8.15923E-005	8	..........a	-327.66
	2630	0.5262	-1.49953E-001	6.91526E-006	0.00000E+000	-1.50000E-001	8.15923E-005	8	..........a	-327.66
	2631	0.5264	-1.39903E-001	7.01526E-006	0.00000E+000	-1.40000E-001	8.15923E-005	8	..........a	-327.66
	2632	0.5266	-1.29953E-001	7.18527E-006	0.00000E+000	-1.30000E-001	8.15923E-005	8	..........a	-327.66
	2633	0.5268	-1.19853E-001	7.33527E-006	0.00000E+000	-1.20000E-001	8.15923E-005	8	..........a	-327.66
	2634	0.527	-1.09953E-001	7.39528E-006	0.00000E+000	-1.10000E-001	-4.18408E-004	8	..........a	-327.66
	2635	0.5272	-9.98029E-002	7.57528E-006	0.00000E+000	-1.00000E-001	8.15923E-005	8	..........a	-327.66
	2636	0.5274	-8.97529E-002	7.68529E-006	0.00000E+000	-9.00000E-002	8.15923E-005	8	..........a	-327.66
	2637	0.5276	-8.02029E-002	7.81529E-006	0.00000E+000	-8.00000E-002	8.15923E-005	8	..........a	-327.66
	2638	0.5278	-6.99529E-002	7.93530E-006	0.00000E+000	-7.00000E-002	8.15923E-005	8	..........a	-327.66
	2639	0.528	-5.97529E-002	8.06530E-006	0.00000E+000	-6.00000E-002	8.15923E-005	8	..........a	-327.66
	2640	0.5282	-4.99529E-002	8.23531E-006	0.00000E+000	-5.00000E-002	8.15923E-005	8	..........a	-327.66
	2641	0.5284	-3.99529E-002	8.35531E-006	0.00000E+000	-4.00000E-002	8.15923E-005	8	..........a	-327.66
	2642	0.5286	-2.99529E-002	8.48532E-006	0.00000E+000	-3.00000E-002	8.15923E-005	8	..........a	-327.66
	2643	0.5288	-1.98529E-002	8.60532E-006	0.00000E+000	-2.00000E-002	8.15923E-005	8	..........a	-327.66
	2644	0.529	-9.95289E-003	8.78533E-006	0.00000E+000	-1.00000E-002	-3.18408E-004	8	..........a	-327.66
	2645	0.5292	4.71142E-005	8.94533E-006	0.00000E+000	7.45058E-009	8.15923E-005	8	..........a	-327.66
	2646	0.5294	1.00471E-002	9.03534E-006	0.00000E+000	1.00000E-002	8.15923E-005	8	..........a	-327.66
	2647	0.5296	2.02471E-002	9.16534E-006	0.00000E+000	2.00000E-002	8.15923E-005	8	..........a	-327.66
	2648	0.5298	2.99471E-002	9.36535E-006	0.00000E+000	3.00000E-002	8.15923E-005	8	..........a	-327.66
	2649	0.53	4.01471E-002	9.53536E-006	0.00000E+000	4.00000E-002	8.15923E-005	8	..........a	-327.66
	2650	0.5302	5.00471E-002	9.63536E-006	0.00000E+000	5.00000E-002	8.15923E-005	8	..........a	-327.66
	2651	0.5304	6.00471E-002	9.79537E-006	0.00000E+000	6.00000E-002	8.15923E-005	8	..........a	-327.66
	2652	0.5306	6.99471E-002	9.95537E-006	0.00000E+000	7.00000E-002	8.15923E-005	8	..........a	-327.66
	2653	0.5308	8.00471E-002	1.00954E-005	0.00000E+000	8.00000E-002	8.15923E-005	8	..........a	-327.66
	2654	0.531	8.99471E-002	1.02954E-005	0.00000E+000	9.00000E-002	8.15923E-005	8	..........a	-327.66
	2655	0.5312	1.00147E-001	1.04854E-005	0.00000E+000	1.00000E-001	8.15923E-005	8	..........a	-327.66
	2656	0.5314	1.10047E-001	1.06854E-005	0.00000E+000	1.10000E-001	8.15923E-005	8	..........a	-327.66
	2657	0.5316	1.19997E-001	1.09654E-005	0.00000E+000	1.20000E-001	8.15923E-005	8	..........a	-327.66
	2658	0.5318	1.30247E-001	1.18654E-005	0.00000E+000	1.30000E-001	1.81592E-004	8	..........a	-327.66
	2659	0.532	1.40047E-001	1.27655E-005	0.00000E+000	1.40000E-001	8.15923E-005	8	..........a	-327.66
	2660	0.5322	1.50047E-001	1.33455E-005	0.00000E+000	1.50000E-001	8.15923E-005	8	..........a	-327.66
	2661	0.5324	1.60147E-001	1.35455E-005	0.00000E+000	1.60000E-001	8.15923E-005	8	..........a	-327.66
	2662	0.5326	1.69947E-001	1.35855E-005	0.00000E+000	1.70000E-001	8.15923E-005	8	..........a	-327.66
	2663	0.5328	1.80047E-001	1.33955E-005	0.00000E+000	1.80000E-001	8.15923E-005	8	..........a	-327.66
	2664	0.533	1.90047E-001	1.29955E-005	0.00000E+000	1.90000E-001	8.15923E-005	8	..........a	-327.66
	2665	0.5332	1.99847E-001	1.27355E-005	0.00000E+000	2.00000E-001	-2.18408E-004	8	..........a	-327.66
	2666	0.5334	2.09947E-001	1.27255E-005	0.00000E+000	2.10000E-001	8.15923E-005	8	..........a	-327.66
	2667	0.5336	2.20247E-001	1.28755E-005	0.00000E+000	2.20000E-001	8.15923E-005	8	..........a	-327.66
	2668	0.5338	2.29747E-001	1.30255E-005	0.00000E+000	2.30000E-001	8.15923E-005	8	..........a	-327.66
	2669	0.534	2.40047E-001	1.31755E-005	0.00000E+000	2.40000E-001	8.15923E-005	8	..........a	-327.66
	2670	0.5342	2.49847E-001	1.33555E-005	0.00000E+000	2.50000E-001	8.15923E-005	8	..........a	-327.66
	2671	0.5344	2.60247E-001	1.35155E-005	0.00000E+000	2.60000E-001	8.15923E-005	8	..........a	-327.66
	2672	0.5346	2.70047E-001	1.36755E-005	0.00000E+000	2.70000E-001	8.15923E-005	8	..........a	-327.66
	2673	0.5348	2.79897E-001	1.38655E-005	0.00000E+000	2.80000E-001	8.15923E-005	8	..........a	-327.66
	2674	0.535	2.89947E-001	1.40255E-005	0.00000E+000	2.90000E-001	8.15923E-005	8	..........a	-327.66
	2675	0.5352	2.99947E-001	1.41955E-005	0.00000E+000	3.00000E-001	8.15923E-005	8	..........a	-327.66
	2676	0.5354	3.10147E-001	1.43455E-005	0.00000E+000	3.10000E-001	8.15923E-005	8	..........a	-327.66
	2677	0.5356	3.20147E-001	1.45255E-005	0.00000E+000	3.20000E-001	8.15923E-005	8	..........a	-327.66
	2678	0.5358	3.29897E-001	1.46756E-005	0.00000E+000	3.30000E-001	8.15923E-005	8	..........a	-327.66
	2679	0.536	3.40147E-001	1.48456E-005	0.00000E+000	3.40000E-001	8.15923E-005	8	..........a	-327.66
	2680	0.5362	3.50047E-001	1.50256E-005	0.00000E+000	3.50000E-001	8.15923E-005	8	..........a	-327.66
	2681	0.5364	3.60047E-001	1.51456E-005	0.00000E+000	3.60000E-001	-1.18408E-004	8	..........a	-327.66
	2682	0.5366	3.70147E-001	1.53456E-005	0.00000E+000	3.70000E-001	8.15923E-005	8	..........a	-327.66
	2683	0.5368	3.79847E-001	1.54456E-005	0.00000E+000	3.80000E-001	8.15923E-005	8	..........a	-327.66
	2684	0.537	3.89897E-001	1.56256E-005	0.00000E+000	3.90000E-001	-3.18408E-004	8	..........a	-327.66
	2685	0.5372	3.99847E-001	1.58256E-005	0.00000E+000	4.00000E-001	8.15923E-005	8	..........a	-327.66
	2686	0.5374	4.09947E-001	1.60056E-005	0.00000E+000	4.10000E-001	8.15923E-005	8	..........a	-327.66
	2687	0.5376	4.20047E-001	1.61956E-005	0.00000E+000	4.20000E-001	8.15923E-005	8	..........a	-327.66
	2688	0.5378	4.30047E-001	1.63356E-005	0.00000E+000	4.30000E-001	8.15923E-005	8	..........a	-327.66
	2689	0.538	4.39897E-001	1.65656E-005	0.00000E+000	4.40000E-001	8.15923E-005	8	..........a	-327.66
	2690	0.5382	4.49647E-001	1.68256E-005	0.00000E+000	4.50000E-001	8.15923E-005	8	..........a	-327.66
	2691	0.5384	4.60247E-001	1.70256E-005	0.00000E+000	4.60000E-001	8.15923E-005	8	..........a	-327.66
	2692	0.5386	4.69847E-001	1.72257E-005	0.00000E+000	4.70000E-001	8.15923E-005	8	..........a	-327.66
	2693	0.5388	4.79947E-001	1.73557E-005	0.00000E+000	4.80000E-001	8.15923E-005	8	..........a	-327.66
	2694	0.539	4.90047E-001	1.74757E-005	0.00000E+000	4.90000E-001	8.15923E-005	8	..........a	-327.66
	2695	0.5392	5.00247E-001	1.75657E-005	0.00000E+000	5.00000E-001	8.15923E-005	8	..........a	-327.66
	2696	0.5394	5.09947E-001	1.75257E-005	0.00000E+000	5.10000E-001	8.15923E-005	8	..........a	-327.66
	2697	0.5396	5.19947E-001	1.76357E-005	0.00000E+000	5.20000E-001	8.15923E-005	8	..........a	-327.66
	2698	0.5398	5.29947E-001	1.76557E-005	0.00000E+000	5.30000E-001	-3.18408E-004	8	..........a	-327.66
	2699	0.54	5.40047E-001	1.76557E-005	0.00000E+000	5.40000E-001	8.15923E-005	8	..........a	-327.66
	2700	0.5402	5.50047E-001	1.77157E-005	0.00000E+000	5.50000E-001	1.81592E-004	8	..........a	-327.66
	2701	0.5404	5.60047E-001	1.77657E-005	0.00000E+000	5.60000E-001	8.15923E-005	8	..........a	-327.66
	2702	0.5406	5.69947E-001	1.77857E-005	0.00000E+000	5.70000E-001	8.15923E-005	8	..........a	-327.66
	2703	0.5408	5.80147E-001	1.78757E-005	0.00000E+000	5.80000E-001	8.15923E-005	8	..........a	-327.66
	2704	0.541	5.89947E-001	1.79157E-005	0.00000E+000	5.90000E-001	8.15923E-005	8	..........a	-327.66
	2705	0.5412	5.99947E-001	1.79857E-005	0.00000E+000	6.00000E-001	8.15923E-005	8	..........a	-327.66
	2706	0.5414	6.10047E-001	1.80757E-005	0.00000E+000	6.10000E-001	8.15923E-005	8	..........a	-327.66
	2707	0.5416	6.19847E-001	1.81457E-005	0.00000E+000	6.20000E-001	8.15923E-005	8	..........a	-327.66
	2708	0.5418	6.29897E-001	1.82057E-005	0.00000E+000	6.30000E-001	8.15923E-005	8	..........a	-327.66
	2709	0.542	6.39847E-001	1.83057E-005	0.00000E+000	6.40000E-001	8.15923E-005	8	..........a	-327.66
	2710	0.5422	6.49897E-001	1.83157E-005	0.00000E+000	6.50000E-001	8.15923E-005	8	..........a	-327.66
	2711	0.5424	6.59847E-001	1.84457E-005	0.00000E+000	6.60000E-001	8.15923E-005	8	..........a	-327.66
	2712	0.5426	6.70047E-001	1.84657E-005	0.00000E+000	6.70000E-001	8.15923E-005	8	..........a	-327.66
	2713	0.5428	6.79947E-001	1.85457E-005	0.00000E+000	6.80000E-001	8.15923E-005	8	..........a	-327.66
	2714	0.543	6.89847E-001	1.85957E-005	0.00000E+000	6.90000E-001	8.15923E-005	8	..........a	-327.66
	2715	0.5432	7.00047E-001	1.85957E-005	0.00000E+000	7.00000E-001	8.15923E-005	8	..........a	-327.66
	2716	0.5434	7.09947E-001	1.86657E-005	0.00000E+000	7.10000E-001	8.15923E-005	8	..........a	-327.66
	2717	0.5436	7.19797E-001	1.86857E-005	0.00000E+000	7.20000E-001	8.15923E-005	8	..........a	-327.66
	2718	0.5438	7.30047E-001	1.87057E-005	0.00000E+000	7.30000E-001	8.15923E-005	8	..........a	-327.66
	2719	0.544	7.40147E-001	1.87257E-005	0.00000E+000	7.40000E-001	8.15923E-005	8	..........a	-327.66
	2720	0.5442	7.50047E-001	1.87857E-005	0.00000E+000	7.50000E-001	8.15923E-005	8	..........a	-327.66
	2721	0.5444	7.60147E-001	1.88157E-005	0.00000E+000	7.60000E-001	8.15923E-005	8	..........a	-327.66
	2722	0.5446	7.69847E-001	1.87857E-005	0.00000E+000	7.70000E-001	8.15923E-005	8	..........a	-327.66
	2723	0.5448	7.79847E-001	1.88457E-005	0.00000E+000	7.80000E-001	8.15923E-005	8	..........a	-327.66
	2724	0.545	7.89947E-001	1.88457E-005	0.00000E+000	7.90000E-001	8.15923E-005	8	..........a	-327.66
	2725	0.5452	7.99947E-001	1.88357E-005	0.00000E+000	8.00000E-001	8.15923E-005	8	..........a	-327.66
CURVE11	TABLE
	Pt	T	Vf	Im	Vu	Sig	Ach	IERange	Over	Temp
	#	s	V vs. Ref.	A	V	V	V	#	bits	deg C
	2726	0.5454	7.89947E-001	1.60456E-005	0.00000E+000	7.90000E-001	8.15923E-005	8	..........a	-327.66
	2727	0.5456	7.80047E-001	1.39855E-005	0.00000E+000	7.80000E-001	8.15923E-005	8	..........a	-327.66
	2728	0.5458	7.70047E-001	1.21855E-005	0.00000E+000	7.70000E-001	8.15923E-005	8	..........a	-327.66
	2729	0.546	7.60147E-001	1.07154E-005	0.00000E+000	7.60000E-001	8.15923E-005	8	..........a	-327.66
	2730	0.5462	7.49947E-001	9.36535E-006	0.00000E+000	7.50000E-001	8.15923E-005	8	..........a	-327.66
	2731	0.5464	7.40047E-001	8.19531E-006	0.00000E+000	7.40000E-001	8.15923E-005	8	..........a	-327.66
	2732	0.5466	7.30097E-001	7.08526E-006	0.00000E+000	7.30000E-001	8.15923E-005	8	..........a	-327.66
	2733	0.5468	7.19747E-001	6.10523E-006	0.00000E+000	7.20000E-001	-3.18408E-004	8	..........a	-327.66
	2734	0.547	7.09897E-001	5.14519E-006	0.00000E+000	7.10000E-001	8.15923E-005	8	..........a	-327.66
	2735	0.5472	7.00047E-001	4.31516E-006	0.00000E+000	7.00000E-001	8.15923E-005	8	..........a	-327.66
	2736	0.5474	6.89947E-001	3.53513E-006	0.00000E+000	6.90000E-001	8.15923E-005	8	..........a	-327.66
	2737	0.5476	6.79847E-001	2.82510E-006	0.00000E+000	6.80000E-001	8.15923E-005	8	..........a	-327.66
	2738	0.5478	6.69847E-001	2.15507E-006	0.00000E+000	6.70000E-001	8.15923E-005	8	..........a	-327.66
	2739	0.548	6.60147E-001	1.54505E-006	0.00000E+000	6.60000E-001	8.15923E-005	8	..........a	-327.66
	2740	0.5482	6.50047E-001	8.85026E-007	0.00000E+000	6.50000E-001	8.15923E-005	8	..........a	-327.66
	2741	0.5484	6.40047E-001	3.75006E-007	0.00000E+000	6.40000E-001	8.15923E-005	8	..........a	-327.66
	2742	0.5486	6.29947E-001	-1.65014E-007	0.00000E+000	6.30000E-001	8.15923E-005	8	..........a	-327.66
	2743	0.5488	6.19847E-001	-6.75034E-007	0.00000E+000	6.20000E-001	8.15923E-005	8	..........a	-327.66
	2744	0.549	6.09947E-001	-1.13505E-006	0.00000E+000	6.10000E-001	8.15923E-005	8	..........a	-327.66
	2745	0.5492	5.99947E-001	-1.55507E-006	0.00000E+000	6.00000E-001	8.15923E-005	8	..........a	-327.66
	2746	0.5494	5.89947E-001	-2.01509E-006	0.00000E+000	5.90000E-001	8.15923E-005	8	..........a	-327.66
	2747	0.5496	5.80147E-001	-2.38510E-006	0.00000E+000	5.80000E-001	8.15923E-005	8	..........a	-327.66
	2748	0.5498	5.70047E-001	-2.81512E-006	0.00000E+000	5.70000E-001	8.15923E-005	8	..........a	-327.66
	2749	0.55	5.59847E-001	-3.15513E-006	0.00000E+000	5.60000E-001	8.15923E-005	8	..........a	-327.66
	2750	0.5502	5.50047E-001	-3.48514E-006	0.00000E+000	5.50000E-001	8.15923E-005	8	..........a	-327.66
	2751	0.5504	5.40147E-001	-3.84516E-006	0.00000E+000	5.40000E-001	8.15923E-005	8	..........a	-327.66
	2752	0.5506	5.29947E-001	-4.20517E-006	0.00000E+000	5.30000E-001	8.15923E-005	8	..........a	-327.66
	2753	0.5508	5.19947E-001	-4.55518E-006	0.00000E+000	5.20000E-001	8.15923E-005	8	..........a	-327.66
	2754	0.551	5.09947E-001	-4.88519E-006	0.00000E+000	5.10000E-001	8.15923E-005	8	..........a	-327.66
	2755	0.5512	5.00147E-001	-5.17521E-006	0.00000E+000	5.00000E-001	8.15923E-005	8	..........a	-327.66
	2756	0.5514	4.89947E-001	-5.49522E-006	0.00000E+000	4.90000E-001	-3.18408E-004	8	..........a	-327.66
	2757	0.5516	4.80047E-001	-5.79523E-006	0.00000E+000	4.80000E-001	8.15923E-005	8	..........a	-327.66
	2758	0.5518	4.70047E-001	-6.11524E-006	0.00000E+000	4.70000E-001	8.15923E-005	8	..........a	-327.66
	2759	0.552	4.60047E-001	-6.43525E-006	0.00000E+000	4.60000E-001	8.15923E-005	8	..........a	-327.66
	2760	0.5522	4.50047E-001	-6.71527E-006	0.00000E+000	4.50000E-001	8.15923E-005	8	..........a	-327.66
	2761	0.5524	4.40047E-001	-7.01528E-006	0.00000E+000	4.40000E-001	8.15923E-005	8	..........a	-327.66
	2762	0.5526	4.29997E-001	-7.35529E-006	0.00000E+000	4.30000E-001	8.15923E-005	8	..........a	-327.66
	2763	0.5528	4.20147E-001	-7.59530E-006	0.00000E+000	4.20000E-001	8.15923E-005	8	..........a	-327.66
	2764	0.553	4.09947E-001	-7.87531E-006	0.00000E+000	4.10000E-001	8.15923E-005	8	..........a	-327.66
	2765	0.5532	4.00147E-001	-8.11532E-006	0.00000E+000	4.00000E-001	8.15923E-005	8	..........a	-327.66
	2766	0.5534	3.90047E-001	-8.24532E-006	0.00000E+000	3.90000E-001	8.15923E-005	8	..........a	-327.66
	2767	0.5536	3.80147E-001	-8.51533E-006	0.00000E+000	3.80000E-001	8.15923E-005	8	..........a	-327.66
	2768	0.5538	3.70047E-001	-8.64534E-006	0.00000E+000	3.70000E-001	8.15923E-005	8	..........a	-327.66
	2769	0.554	3.60047E-001	-8.88535E-006	0.00000E+000	3.60000E-001	8.15923E-005	8	..........a	-327.66
	2770	0.5542	3.49947E-001	-9.12536E-006	0.00000E+000	3.50000E-001	8.15923E-005	8	..........a	-327.66
	2771	0.5544	3.40047E-001	-9.41537E-006	0.00000E+000	3.40000E-001	8.15923E-005	8	..........a	-327.66
	2772	0.5546	3.30047E-001	-9.61538E-006	0.00000E+000	3.30000E-001	8.15923E-005	8	..........a	-327.66
	2773	0.5548	3.20147E-001	-9.84538E-006	0.00000E+000	3.20000E-001	8.15923E-005	8	..........a	-327.66
	2774	0.555	3.10047E-001	-1.01254E-005	0.00000E+000	3.10000E-001	8.15923E-005	8	..........a	-327.66
	2775	0.5552	3.00247E-001	-1.03354E-005	0.00000E+000	3.00000E-001	8.15923E-005	8	..........a	-327.66
	2776	0.5554	2.90047E-001	-1.05954E-005	0.00000E+000	2.90000E-001	8.15923E-005	8	..........a	-327.66
	2777	0.5556	2.79947E-001	-1.08354E-005	0.00000E+000	2.80000E-001	8.15923E-005	8	..........a	-327.66
	2778	0.5558	2.70047E-001	-1.10654E-005	0.00000E+000	2.70000E-001	8.15923E-005	8	..........a	-327.66
	2779	0.556	2.60047E-001	-1.13554E-005	0.00000E+000	2.60000E-001	8.15923E-005	8	..........a	-327.66
	2780	0.5562	2.49947E-001	-1.15955E-005	0.00000E+000	2.50000E-001	8.15923E-005	8	..........a	-327.66
	2781	0.5564	2.40047E-001	-1.17555E-005	0.00000E+000	2.40000E-001	8.15923E-005	8	..........a	-327.66
	2782	0.5566	2.29947E-001	-1.20355E-005	0.00000E+000	2.30000E-001	8.15923E-005	8	..........a	-327.66
	2783	0.5568	2.19947E-001	-1.22255E-005	0.00000E+000	2.20000E-001	8.15923E-005	8	..........a	-327.66
	2784	0.557	2.10047E-001	-1.24255E-005	0.00000E+000	2.10000E-001	8.15923E-005	8	..........a	-327.66
	2785	0.5572	2.00047E-001	-1.26255E-005	0.00000E+000	2.00000E-001	8.15923E-005	8	..........a	-327.66
	2786	0.5574	1.89847E-001	-1.28155E-005	0.00000E+000	1.90000E-001	8.15923E-005	8	..........a	-327.66
	2787	0.5576	1.80247E-001	-1.29855E-005	0.00000E+000	1.80000E-001	8.15923E-005	8	..........a	-327.66
	2788	0.5578	1.70047E-001	-1.31955E-005	0.00000E+000	1.70000E-001	8.15923E-005	8	..........a	-327.66
	2789	0.558	1.60047E-001	-1.32755E-005	0.00000E+000	1.60000E-001	8.15923E-005	8	..........a	-327.66
	2790	0.5582	1.50047E-001	-1.34155E-005	0.00000E+000	1.50000E-001	-3.18408E-004	8	..........a	-327.66
	2791	0.5584	1.40047E-001	-1.35555E-005	0.00000E+000	1.40000E-001	8.15923E-005	8	..........a	-327.66
	2792	0.5586	1.29947E-001	-1.37355E-005	0.00000E+000	1.30000E-001	8.15923E-005	8	..........a	-327.66
	2793	0.5588	1.20147E-001	-1.38055E-005	0.00000E+000	1.20000E-001	8.15923E-005	8	..........a	-327.66
	2794	0.559	1.10047E-001	-1.38855E-005	0.00000E+000	1.10000E-001	8.15923E-005	8	..........a	-327.66
	2795	0.5592	1.00147E-001	-1.40555E-005	0.00000E+000	1.00000E-001	8.15923E-005	8	..........a	-327.66
	2796	0.5594	9.00471E-002	-1.41856E-005	0.00000E+000	9.00000E-002	8.15923E-005	8	..........a	-327.66
	2797	0.5596	7.98471E-002	-1.42856E-005	0.00000E+000	8.00000E-002	8.15923E-005	8	..........a	-327.66
	2798	0.5598	7.00971E-002	-1.43956E-005	0.00000E+000	7.00000E-002	8.15923E-005	8	..........a	-327.66
	2799	0.56	6.00471E-002	-1.45156E-005	0.00000E+000	6.00000E-002	8.15923E-005	8	..........a	-327.66
	2800	0.5602	4.98471E-002	-1.46556E-005	0.00000E+000	5.00000E-002	-1.18408E-004	8	..........a	-327.66