File: data/raw/batch_data/20240321_K_GM0016_HL03_E03_CV50.DTA
EXPLAIN
TAG	CV
TITLE	LABEL	Cyclic Voltammetry	Test &Identifier
DATE	LABEL	3/21/2024	Date
TIME	LABEL	16:54:47	Time
NOTES	NOTES	1	&Notes...

PSTAT	PSTAT	REF600P-43058	Potentiostat
VINIT	POTEN	0.00000E+000	T	Initial &E (V)
VLIMIT1	POTEN	-6.00000E-001	F	Scan Limit &1 (V)
VLIMIT2	POTEN	8.00000E-001	F	Scan Limit &2 (V)
VFINAL	POTEN	0.00000E+000	T	Final &E (V)
SCANRATE	QUANT	4.99999E+001	&Scan Rate (mV/s)
STEPSIZE	QUANT	1.00000E+001	St&ep Size (mV)
CYCLES	IQUANT	4	C&ycles (#)
IMODE	SELECTOR	1	I/E Range &Mode
IRANGE	QUANT	1.00000E-005	&Max Current (mA)
AREA	QUANT	1.00000E+000	Electrode &Area (cm^2)
ELECTRODETYPE	SELECTOR	0	Electrode Type
STRIPPING	TOGGLE	F	Used for Stripping
POLARITY	TOGGLE	F	Signal Polarity
CONDIT	TWOPARAM	F	1.50000E+001	0.00000E+000	Conditionin&g	Time(s)	E(V)
DELAY	TWOPARAM	T	1.00000E+001	0.00000E+000	Init. De&lay	Time(s)	Stab.(mV/s)
EQDELAY	QUANT	1.00000E+001	Equil. &Time (s)
IRCOMP	SELECTOR	0	IRCom&p
PFCOR	QUANT	5.00000E+001	PF Corr. (ohm)
SAMPLINGMODE	SELECTOR	1	Sampling &Mode
OCVCURVE	TABLE	39
	Pt	T	Vf	Vm	Ach	Over	Temp
	#	s	V vs. Ref.	V	V	bits	deg C
	0	0.258333	4.42178E-001	4.42178E-001	2.25022E-004	..........a	-327.66
	1	0.516667	4.42147E-001	4.40558E-001	2.22289E-004	..........a	-327.66
	2	0.775	4.41957E-001	4.39037E-001	2.24622E-004	..........a	-327.66
	3	1.03333	4.41421E-001	4.37549E-001	2.29689E-004	..........a	-327.66
	4	1.29167	4.40459E-001	4.36031E-001	2.33356E-004	..........a	-327.66
	5	1.55	4.39166E-001	4.34517E-001	2.31222E-004	..........a	-327.66
	6	1.80833	4.37704E-001	4.33108E-001	2.23089E-004	..........a	-327.66
	7	2.06667	4.36194E-001	4.31752E-001	2.30956E-004	..........a	-327.66
	8	2.325	4.34706E-001	4.30469E-001	2.31289E-004	..........a	-327.66
	9	2.58333	4.33276E-001	4.29310E-001	2.24422E-004	..........a	-327.66
	10	2.84167	4.31917E-001	4.28023E-001	2.43622E-004	..........a	-327.66
	11	3.1	4.30619E-001	4.26716E-001	2.21022E-004	..........a	-327.66
	12	3.35833	4.29358E-001	4.25630E-001	2.41622E-004	..........a	-327.66
	13	3.61667	4.28104E-001	4.23770E-001	2.19422E-004	..........a	-327.66
	14	3.875	4.26833E-001	4.23324E-001	2.39222E-004	..........a	-327.66
	15	4.13333	4.25567E-001	4.22348E-001	2.25489E-004	..........a	-327.66
	16	4.39167	4.24387E-001	4.21331E-001	2.16956E-004	..........a	-327.66
	17	4.65	4.23328E-001	4.20284E-001	2.27022E-004	..........a	-327.66
	18	4.90833	4.22344E-001	4.19325E-001	2.31622E-004	..........a	-327.66
	19	5.16667	4.21372E-001	4.18416E-001	2.47356E-004	..........a	-327.66
	20	5.425	4.20398E-001	4.17413E-001	2.18222E-004	..........a	-327.66
	21	5.68333	4.19429E-001	4.16570E-001	2.21956E-004	..........a	-327.66
	22	5.94167	4.18474E-001	4.15623E-001	2.23622E-004	..........a	-327.66
	23	6.2	4.17539E-001	4.14768E-001	2.25822E-004	..........a	-327.66
	24	6.45833	4.16622E-001	4.13918E-001	2.25222E-004	..........a	-327.66
	25	6.71667	4.15726E-001	4.13101E-001	2.29622E-004	..........a	-327.66
	26	6.975	4.14853E-001	4.12290E-001	2.22156E-004	..........a	-327.66
	27	7.23333	4.14004E-001	4.11535E-001	2.26022E-004	..........a	-327.66
	28	7.49167	4.13179E-001	4.10771E-001	2.27356E-004	..........a	-327.66
	29	7.75	4.12381E-001	4.10129E-001	2.33489E-004	..........a	-327.66
	30	8.00833	4.11611E-001	4.09360E-001	2.23289E-004	..........a	-327.66
	31	8.26667	4.10873E-001	4.08802E-001	2.35222E-004	..........a	-327.66
	32	8.525	4.10162E-001	4.08014E-001	2.43356E-004	..........a	-327.66
	33	8.78333	4.09469E-001	4.07325E-001	2.32889E-004	..........a	-327.66
	34	9.04167	4.08782E-001	4.06690E-001	2.33289E-004	..........a	-327.66
	35	9.3	4.08094E-001	4.06043E-001	2.24356E-004	..........a	-327.66
	36	9.5583	4.07417E-001	4.05598E-001	2.35022E-004	..........a	-327.66
	37	9.8167	4.06769E-001	4.04866E-001	2.35956E-004	..........a	-327.66
	38	10.075	4.06151E-001	4.04258E-001	2.33156E-004	..........a	-327.66
EOC	QUANT	0.4061515	Open Circuit (V)
PSTATMODEL	IQUANT	7	Pstat Model
PSTATSECTION	LABEL	REF600P-43058	Pstat Section
PSTATSERIALNO	LABEL	43058	Pstat Serial Number
CTRLMODE	IQUANT	1	Control Mode
ELECTROMETER	IQUANT	0	RE=0 or CS=1
IESTAB	IQUANT	2	I/E Stability
CASPEED	IQUANT	4	Control Amp Speed
CONVENTION	IQUANT	1	Current Convention
ICHRANGE	IQUANT	2	Ich Range
ICHRANGEMODE	TOGGLE	F	Ich Auto Range
ICHOFFSETENABLE	TOGGLE	F	Ich Offset Enable
ICHOFFSET	QUANT	0	Ich Offset (V)
ICHFILTER	IQUANT	2	Ich Filter
VCHRANGE	IQUANT	2	Vch Range
VCHRANGEMODE	TOGGLE	F	Vch Auto Range
VCHOFFSETENABLE	TOGGLE	F	Vch Offset Enable
VCHOFFSET	QUANT	0	Vch Offset (V)
VCHFILTER	IQUANT	2	Vch Filter
ACHRANGE	IQUANT	2	Ach Range
ACHOFFSETENABLE	TOGGLE	F	Ach Offset Enable
ACHOFFSET	QUANT	0	Ach Offset (V)
ACHFILTER	IQUANT	1	Ach Filter
IERANGELOWERLIMIT	IQUANT	1	I/E Range Lower Limit
IERANGEMODE	TOGGLE	F	I/E AutoRange
IERANGE	IQUANT	4	I/E Range
POSFEEDENABLE	TOGGLE	F	Positive Feedback IR Comp
POSFEEDRESISTANCE	QUANT	0	Positive Feedback Resistance (ohm)
ACHSELECT	IQUANT	4	Ach Select
SENSECABLEID	IQUANT	7	Sense Cable ID
PWRCABLEID	IQUANT	7	Power Cable ID
DCCALDATE	LABEL	12/18/2023	DC Calibration Date
ACCALDATE	LABEL	12/18/2023	AC Calibration Date
THERMOSELECT	IQUANT	1	Thermo Select
FRAMEWORKVERSION	LABEL	7.8.4	Framework Version
INSTRUMENTVERSION	LABEL	4.42	Instrument Version
CURVE1	TABLE
	Pt	T	Vf	Im	Vu	Sig	Ach	IERange	Over	Temp
	#	s	V vs. Ref.	A	V	V	V	#	bits	deg C
	0	0.2	4.06087E-001	2.34757E-011	0.00000E+000	4.06150E-001	9.66122E-004	4	..........a	-327.66
	1	0.4	3.96162E-001	-1.68207E-013	0.00000E+000	3.96150E-001	9.83122E-004	4	..........a	-327.66
	2	0.6	3.86184E-001	-1.18977E-011	0.00000E+000	3.86150E-001	9.54922E-004	4	..........a	-327.66
	3	0.8	3.76006E-001	-2.08900E-011	0.00000E+000	3.76150E-001	9.51222E-004	4	..........a	-327.66
	4	1	3.66136E-001	-2.81913E-011	0.00000E+000	3.66150E-001	9.74522E-004	4	..........a	-327.66
	5	1.2	3.56120E-001	-3.58106E-011	0.00000E+000	3.56150E-001	9.72122E-004	4	..........a	-327.66
	6	1.4	3.46205E-001	-4.02497E-011	0.00000E+000	3.46150E-001	9.49222E-004	4	..........a	-327.66
	7	1.6	3.36146E-001	-4.69200E-011	0.00000E+000	3.36150E-001	9.59822E-004	4	..........a	-327.66
	8	1.8	3.26111E-001	-5.18902E-011	0.00000E+000	3.26150E-001	9.65922E-004	4	..........a	-327.66
	9	2	3.16173E-001	-5.74334E-011	0.00000E+000	3.16150E-001	9.63822E-004	4	..........a	-327.66
	10	2.2	3.06242E-001	-6.21746E-011	0.00000E+000	3.06150E-001	9.76122E-004	4	..........a	-327.66
	11	2.4	2.96173E-001	-6.79648E-011	0.00000E+000	2.96150E-001	9.66322E-004	4	..........a	-327.66
	12	2.6	2.86125E-001	-7.28570E-011	0.00000E+000	2.86150E-001	9.84522E-004	4	..........a	-327.66
	13	2.8	2.76146E-001	-7.86752E-011	0.00000E+000	2.76150E-001	9.53422E-004	4	..........a	-327.66
	14	3	2.66183E-001	-8.37484E-011	0.00000E+000	2.66150E-001	9.60722E-004	4	..........a	-327.66
	15	3.2	2.56141E-001	-8.81576E-011	0.00000E+000	2.56150E-001	9.86722E-004	4	..........a	-327.66
	16	3.4	2.46173E-001	-9.32328E-011	0.00000E+000	2.46150E-001	9.72422E-004	4	..........a	-327.66
	17	3.6	2.36140E-001	-9.87880E-011	0.00000E+000	2.36150E-001	9.86822E-004	4	..........a	-327.66
	18	3.8	2.26216E-001	-1.01244E-010	0.00000E+000	2.26150E-001	9.63622E-004	4	..........a	-327.66
	19	4	2.16172E-001	-1.05495E-010	0.00000E+000	2.16150E-001	9.67722E-004	4	..........a	-327.66
	20	4.2	2.06147E-001	-1.08755E-010	0.00000E+000	2.06150E-001	9.76322E-004	4	..........a	-327.66
	21	4.4	1.96144E-001	-1.12128E-010	0.00000E+000	1.96150E-001	9.72622E-004	4	..........a	-327.66
	22	4.6	1.86240E-001	-1.15252E-010	0.00000E+000	1.86150E-001	9.62022E-004	4	..........a	-327.66
	23	4.8	1.76196E-001	-1.17495E-010	0.00000E+000	1.76150E-001	9.70622E-004	4	..........a	-327.66
	24	5	1.66189E-001	-1.20098E-010	0.00000E+000	1.66150E-001	9.70722E-004	4	..........a	-327.66
	25	5.2	1.56163E-001	-1.23008E-010	0.00000E+000	1.56150E-001	9.85822E-004	4	..........a	-327.66
	26	5.4	1.46345E-001	-1.24937E-010	0.00000E+000	1.46150E-001	9.60022E-004	4	..........a	-327.66
	27	5.6	1.36184E-001	-1.27547E-010	0.00000E+000	1.36150E-001	9.57922E-004	4	..........a	-327.66
	28	5.8	1.26185E-001	-1.28204E-010	0.00000E+000	1.26150E-001	9.80322E-004	4	..........a	-327.66
	29	6	1.16164E-001	-1.31428E-010	0.00000E+000	1.16150E-001	9.77622E-004	4	..........a	-327.66
	30	6.2	1.06256E-001	-1.32807E-010	0.00000E+000	1.06150E-001	9.52822E-004	4	..........a	-327.66
	31	6.4	9.61732E-002	-1.35207E-010	0.00000E+000	9.61500E-002	9.84222E-004	4	..........a	-327.66
	32	6.6	8.61686E-002	-1.36757E-010	0.00000E+000	8.61500E-002	9.65322E-004	4	..........a	-327.66
	33	6.8	7.61196E-002	-1.38829E-010	0.00000E+000	7.61500E-002	9.68222E-004	4	..........a	-327.66
	34	7	6.62629E-002	-1.40409E-010	0.00000E+000	6.61500E-002	9.67922E-004	4	..........a	-327.66
	35	7.2	5.61496E-002	-1.42704E-010	0.00000E+000	5.61500E-002	9.86622E-004	4	..........a	-327.66
	36	7.4	4.61667E-002	-1.44396E-010	0.00000E+000	4.61500E-002	9.71522E-004	4	..........a	-327.66
	37	7.6	3.61970E-002	-1.47041E-010	0.00000E+000	3.61500E-002	9.86222E-004	4	..........a	-327.66
	38	7.8	2.63225E-002	-1.49293E-010	0.00000E+000	2.61500E-002	9.66522E-004	4	..........a	-327.66
	39	8	1.62310E-002	-1.50971E-010	0.00000E+000	1.61500E-002	9.67322E-004	4	..........a	-327.66
	40	8.2	6.19909E-003	-1.53609E-010	0.00000E+000	6.15001E-003	9.74822E-004	4	..........a	-327.66
	41	8.4	-3.84301E-003	-1.56511E-010	0.00000E+000	-3.85000E-003	9.87122E-004	4	..........a	-327.66
	42	8.6	-1.38011E-002	-1.59913E-010	0.00000E+000	-1.38500E-002	9.73522E-004	4	..........a	-327.66
	43	8.8	-2.38302E-002	-1.63258E-010	0.00000E+000	-2.38500E-002	9.57922E-004	4	..........a	-327.66
	44	9	-3.38352E-002	-1.65872E-010	0.00000E+000	-3.38500E-002	9.73822E-004	4	..........a	-327.66
	45	9.2	-4.38051E-002	-1.69154E-010	0.00000E+000	-4.38500E-002	9.85022E-004	4	..........a	-327.66
	46	9.4	-5.37653E-002	-1.72692E-010	0.00000E+000	-5.38500E-002	9.64522E-004	4	..........a	-327.66
	47	9.6	-6.38295E-002	-1.77026E-010	0.00000E+000	-6.38500E-002	9.63622E-004	4	..........a	-327.66
	48	9.8	-7.38716E-002	-1.80854E-010	0.00000E+000	-7.38500E-002	9.76122E-004	4	..........a	-327.66
	49	10	-8.38345E-002	-1.85562E-010	0.00000E+000	-8.38500E-002	9.73322E-004	4	..........a	-327.66
	50	10.2	-9.37708E-002	-1.89560E-010	0.00000E+000	-9.38500E-002	9.61222E-004	4	..........a	-327.66
	51	10.4	-1.03871E-001	-1.93967E-010	0.00000E+000	-1.03850E-001	9.70322E-004	4	..........a	-327.66
	52	10.6	-1.13829E-001	-1.98669E-010	0.00000E+000	-1.13850E-001	9.83222E-004	4	..........a	-327.66
	53	10.8	-1.23853E-001	-2.03612E-010	0.00000E+000	-1.23850E-001	9.73222E-004	4	..........a	-327.66
	54	11	-1.33806E-001	-2.08173E-010	0.00000E+000	-1.33850E-001	9.78422E-004	4	..........a	-327.66
	55	11.2	-1.43809E-001	-2.13928E-010	0.00000E+000	-1.43850E-001	9.82722E-004	4	..........a	-327.66
	56	11.4	-1.53864E-001	-2.18758E-010	0.00000E+000	-1.53850E-001	9.80522E-004	4	..........a	-327.66
	57	11.6	-1.63842E-001	-2.24714E-010	0.00000E+000	-1.63850E-001	9.91722E-004	4	..........a	-327.66
	58	11.8	-1.73789E-001	-2.30025E-010	0.00000E+000	-1.73850E-001	9.70522E-004	4	..........a	-327.66
	59	12	-1.83819E-001	-2.35201E-010	0.00000E+000	-1.83850E-001	9.85522E-004	4	..........a	-327.66
	60	12.2	-1.93800E-001	-2.43957E-010	0.00000E+000	-1.93850E-001	9.79022E-004	4	..........a	-327.66
	61	12.4	-2.03805E-001	-2.47687E-010	0.00000E+000	-2.03850E-001	9.71722E-004	4	..........a	-327.66
	62	12.6	-2.13675E-001	-2.54430E-010	0.00000E+000	-2.13850E-001	9.58922E-004	4	..........a	-327.66
	63	12.8	-2.23785E-001	-2.61648E-010	0.00000E+000	-2.23850E-001	9.65522E-004	4	..........a	-327.66
	64	13	-2.33789E-001	-2.66557E-010	0.00000E+000	-2.33850E-001	9.86422E-004	4	..........a	-327.66
	65	13.2	-2.43794E-001	-2.77153E-010	0.00000E+000	-2.43850E-001	9.68922E-004	4	..........a	-327.66
	66	13.4	-2.53750E-001	-2.89961E-010	0.00000E+000	-2.53850E-001	9.70322E-004	4	..........a	-327.66
	67	13.6	-2.63776E-001	-2.93710E-010	0.00000E+000	-2.63850E-001	9.61422E-004	4	..........a	-327.66
	68	13.8	-2.73723E-001	-3.02231E-010	0.00000E+000	-2.73850E-001	9.82922E-004	4	..........a	-327.66
	69	14	-2.83765E-001	-3.13297E-010	0.00000E+000	-2.83850E-001	9.74322E-004	4	..........a	-327.66
	70	14.2	-2.93707E-001	-3.24298E-010	0.00000E+000	-2.93850E-001	9.87122E-004	4	..........a	-327.66
	71	14.4	-3.03784E-001	-3.32019E-010	0.00000E+000	-3.03850E-001	9.67222E-004	4	..........a	-327.66
	72	14.6	-3.13709E-001	-3.43188E-010	0.00000E+000	-3.13850E-001	9.88222E-004	4	..........a	-327.66
	73	14.8	-3.23796E-001	-3.51278E-010	0.00000E+000	-3.23850E-001	9.88022E-004	4	..........a	-327.66
	74	15	-3.33720E-001	-3.58640E-010	0.00000E+000	-3.33850E-001	9.90922E-004	4	..........a	-327.66
	75	15.2	-3.43787E-001	-3.79624E-010	0.00000E+000	-3.43850E-001	9.73522E-004	4	..........a	-327.66
	76	15.4	-3.53787E-001	-3.92944E-010	0.00000E+000	-3.53850E-001	9.79122E-004	4	..........a	-327.66
	77	15.6	-3.63765E-001	-4.08065E-010	0.00000E+000	-3.63850E-001	1.00252E-003	4	..........a	-327.66
	78	15.8	-3.73761E-001	-4.22954E-010	0.00000E+000	-3.73850E-001	9.72022E-004	4	..........a	-327.66
	79	16	-3.83783E-001	-4.37357E-010	0.00000E+000	-3.83850E-001	9.75622E-004	4	..........a	-327.66
	80	16.2	-3.93750E-001	-4.53745E-010	0.00000E+000	-3.93850E-001	9.71522E-004	4	..........a	-327.66
	81	16.4	-4.03776E-001	-4.68938E-010	0.00000E+000	-4.03850E-001	9.80722E-004	4	..........a	-327.66
	82	16.6	-4.13716E-001	-4.81236E-010	0.00000E+000	-4.13850E-001	9.72522E-004	4	..........a	-327.66
	83	16.8	-4.23761E-001	-5.04886E-010	0.00000E+000	-4.23850E-001	9.63722E-004	4	..........a	-327.66
	84	17	-4.33784E-001	-5.21626E-010	0.00000E+000	-4.33850E-001	9.77722E-004	4	..........a	-327.66
	85	17.2	-4.43752E-001	-5.42918E-010	0.00000E+000	-4.43850E-001	9.70322E-004	4	..........a	-327.66
	86	17.4	-4.53742E-001	-5.62410E-010	0.00000E+000	-4.53850E-001	9.68922E-004	4	..........a	-327.66
	87	17.6	-4.63757E-001	-5.83828E-010	0.00000E+000	-4.63850E-001	9.75022E-004	4	..........a	-327.66
	88	17.8	-4.73671E-001	-6.05433E-010	0.00000E+000	-4.73850E-001	9.76922E-004	4	..........a	-327.66
	89	18	-4.83750E-001	-6.29763E-010	0.00000E+000	-4.83850E-001	9.75822E-004	4	..........a	-327.66
	90	18.2	-4.93644E-001	-6.56519E-010	0.00000E+000	-4.93850E-001	9.84722E-004	4	..........a	-327.66
	91	18.4	-5.03752E-001	-6.84299E-010	0.00000E+000	-5.03850E-001	9.73422E-004	4	..........a	-327.66
	92	18.6	-5.13774E-001	-7.13718E-010	0.00000E+000	-5.13850E-001	9.75322E-004	4	..........a	-327.66
	93	18.8	-5.23760E-001	-7.46877E-010	0.00000E+000	-5.23850E-001	9.67422E-004	4	..........a	-327.66
	94	19	-5.33691E-001	-7.83226E-010	0.00000E+000	-5.33850E-001	9.73022E-004	4	..........a	-327.66
	95	19.2	-5.43749E-001	-8.21008E-010	0.00000E+000	-5.43850E-001	9.73922E-004	4	..........a	-327.66
	96	19.4	-5.53705E-001	-8.61612E-010	0.00000E+000	-5.53850E-001	9.67322E-004	4	..........a	-327.66
	97	19.6	-5.63750E-001	-9.10287E-010	0.00000E+000	-5.63850E-001	9.68822E-004	4	..........a	-327.66
	98	19.8	-5.73674E-001	-9.61794E-010	0.00000E+000	-5.73850E-001	9.72022E-004	4	..........a	-327.66
	99	20	-5.83761E-001	-1.01842E-009	0.00000E+000	-5.83850E-001	9.85522E-004	4	..........a	-327.66
	100	20.2	-5.93724E-001	-1.08093E-009	0.00000E+000	-5.93850E-001	9.81722E-004	4	..........a	-327.66
	101	20.4	-6.03765E-001	-1.15285E-009	0.00000E+000	-6.03850E-001	9.65122E-004	4	..........a	-327.66
	102	20.6	-5.93714E-001	-9.53186E-010	0.00000E+000	-5.93850E-001	9.94622E-004	4	..........a	-327.66
	103	20.8	-5.83767E-001	-8.12977E-010	0.00000E+000	-5.83850E-001	9.70722E-004	4	..........a	-327.66
	104	21	-5.73612E-001	-7.00948E-010	0.00000E+000	-5.73850E-001	9.70622E-004	4	..........a	-327.66
	105	21.2	-5.63782E-001	-6.07615E-010	0.00000E+000	-5.63850E-001	9.83722E-004	4	..........a	-327.66
	106	21.4	-5.53763E-001	-5.29172E-010	0.00000E+000	-5.53850E-001	9.67522E-004	4	..........a	-327.66
	107	21.6	-5.43783E-001	-4.62602E-010	0.00000E+000	-5.43850E-001	9.74622E-004	4	..........a	-327.66
	108	21.8	-5.33707E-001	-4.04237E-010	0.00000E+000	-5.33850E-001	9.74422E-004	4	..........a	-327.66
	109	22	-5.23770E-001	-3.50949E-010	0.00000E+000	-5.23850E-001	9.74522E-004	4	..........a	-327.66
	110	22.2	-5.13705E-001	-3.07628E-010	0.00000E+000	-5.13850E-001	9.72122E-004	4	..........a	-327.66
	111	22.4	-5.03763E-001	-2.66032E-010	0.00000E+000	-5.03850E-001	9.83722E-004	4	..........a	-327.66
	112	22.6	-4.93665E-001	-2.30729E-010	0.00000E+000	-4.93850E-001	9.90522E-004	4	..........a	-327.66
	113	22.8	-4.83755E-001	-1.98102E-010	0.00000E+000	-4.83850E-001	9.83722E-004	4	..........a	-327.66
	114	23	-4.73757E-001	-1.68476E-010	0.00000E+000	-4.73850E-001	9.70322E-004	4	..........a	-327.66
	115	23.2	-4.63766E-001	-1.41719E-010	0.00000E+000	-4.63850E-001	9.82122E-004	4	..........a	-327.66
	116	23.4	-4.53729E-001	-1.16458E-010	0.00000E+000	-4.53850E-001	9.71622E-004	4	..........a	-327.66
	117	23.6	-4.43791E-001	-9.42368E-011	0.00000E+000	-4.43850E-001	9.84222E-004	4	..........a	-327.66
	118	23.8	-4.33791E-001	-7.31930E-011	0.00000E+000	-4.33850E-001	9.74222E-004	4	..........a	-327.66
	119	24	-4.23768E-001	-5.39763E-011	0.00000E+000	-4.23850E-001	9.74222E-004	4	..........a	-327.66
	120	24.2	-4.13689E-001	-3.63086E-011	0.00000E+000	-4.13850E-001	9.76222E-004	4	..........a	-327.66
	121	24.4	-4.03797E-001	-1.92399E-011	0.00000E+000	-4.03850E-001	9.80622E-004	4	..........a	-327.66
	122	24.6	-3.93845E-001	-3.56134E-012	0.00000E+000	-3.93850E-001	9.84222E-004	4	..........a	-327.66
	123	24.8	-3.83815E-001	1.08282E-011	0.00000E+000	-3.83850E-001	9.73922E-004	4	..........a	-327.66
	124	25	-3.73763E-001	2.64538E-011	0.00000E+000	-3.73850E-001	9.70622E-004	4	..........a	-327.66
	125	25.2	-3.63782E-001	3.74942E-011	0.00000E+000	-3.63850E-001	9.94622E-004	4	..........a	-327.66
	126	25.4	-3.53805E-001	4.90587E-011	0.00000E+000	-3.53850E-001	9.76622E-004	4	..........a	-327.66
	127	25.6	-3.44097E-001	5.85001E-011	0.00000E+000	-3.43850E-001	9.73322E-004	4	..........a	-327.66
	128	25.8	-3.33696E-001	6.95645E-011	0.00000E+000	-3.33850E-001	9.68122E-004	4	..........a	-327.66
	129	26	-3.23784E-001	7.88098E-011	0.00000E+000	-3.23850E-001	9.76122E-004	4	..........a	-327.66
	130	26.2	-3.13774E-001	8.81402E-011	0.00000E+000	-3.13850E-001	9.84322E-004	4	..........a	-327.66
	131	26.4	-3.03797E-001	9.44064E-011	0.00000E+000	-3.03850E-001	9.79022E-004	4	..........a	-327.66
	132	26.6	-2.93667E-001	1.03581E-010	0.00000E+000	-2.93850E-001	1.00362E-003	4	..........a	-327.66
	133	26.8	-2.83830E-001	1.11088E-010	0.00000E+000	-2.83850E-001	9.75322E-004	4	..........a	-327.66
	134	27	-2.73806E-001	1.17800E-010	0.00000E+000	-2.73850E-001	9.85222E-004	4	..........a	-327.66
	135	27.2	-2.63796E-001	1.25501E-010	0.00000E+000	-2.63850E-001	9.85822E-004	4	..........a	-327.66
	136	27.4	-2.53723E-001	1.29473E-010	0.00000E+000	-2.53850E-001	9.66222E-004	4	..........a	-327.66
	137	27.6	-2.43788E-001	1.34181E-010	0.00000E+000	-2.43850E-001	9.57322E-004	4	..........a	-327.66
	138	27.8	-2.33804E-001	1.37654E-010	0.00000E+000	-2.33850E-001	9.85822E-004	4	..........a	-327.66
	139	28	-2.23791E-001	1.41027E-010	0.00000E+000	-2.23850E-001	9.62522E-004	4	..........a	-327.66
	140	28.2	-2.13701E-001	1.43965E-010	0.00000E+000	-2.13850E-001	9.74922E-004	4	..........a	-327.66
	141	28.4	-2.03804E-001	1.48770E-010	0.00000E+000	-2.03850E-001	9.72022E-004	4	..........a	-327.66
	142	28.6	-1.93818E-001	1.53531E-010	0.00000E+000	-1.93850E-001	9.56822E-004	4	..........a	-327.66
	143	28.8	-1.83814E-001	1.54555E-010	0.00000E+000	-1.83850E-001	9.59422E-004	4	..........a	-327.66
	144	29	-1.73791E-001	1.52709E-010	0.00000E+000	-1.73850E-001	9.71422E-004	4	..........a	-327.66
	145	29.2	-1.63794E-001	1.54254E-010	0.00000E+000	-1.63850E-001	9.78622E-004	4	..........a	-327.66
	146	29.4	-1.53840E-001	1.58779E-010	0.00000E+000	-1.53850E-001	9.68322E-004	4	..........a	-327.66
	147	29.6	-1.43799E-001	1.59585E-010	0.00000E+000	-1.43850E-001	9.76422E-004	4	..........a	-327.66
	148	29.8	-1.33762E-001	1.58728E-010	0.00000E+000	-1.33850E-001	9.76522E-004	4	..........a	-327.66
	149	30	-1.23857E-001	1.56410E-010	0.00000E+000	-1.23850E-001	9.86322E-004	4	..........a	-327.66
	150	30.2	-1.13987E-001	1.60558E-010	0.00000E+000	-1.13850E-001	9.94422E-004	4	..........a	-327.66
	151	30.4	-1.03805E-001	1.60225E-010	0.00000E+000	-1.03850E-001	9.61622E-004	4	..........a	-327.66
	152	30.6	-9.37845E-002	1.60472E-010	0.00000E+000	-9.38500E-002	9.73122E-004	4	..........a	-327.66
	153	30.8	-8.38623E-002	1.57410E-010	0.00000E+000	-8.38500E-002	9.81822E-004	4	..........a	-327.66
	154	31	-7.38578E-002	1.57493E-010	0.00000E+000	-7.38500E-002	9.80322E-004	4	..........a	-327.66
	155	31.2	-6.38005E-002	1.60689E-010	0.00000E+000	-6.38500E-002	9.75622E-004	4	..........a	-327.66
	156	31.4	-5.37552E-002	1.60961E-010	0.00000E+000	-5.38500E-002	9.65422E-004	4	..........a	-327.66
	157	31.6	-4.37969E-002	1.60990E-010	0.00000E+000	-4.38500E-002	9.88222E-004	4	..........a	-327.66
	158	31.8	-3.38588E-002	1.58155E-010	0.00000E+000	-3.38500E-002	9.89622E-004	4	..........a	-327.66
	159	32	-2.38480E-002	1.57652E-010	0.00000E+000	-2.38500E-002	9.78022E-004	4	..........a	-327.66
	160	32.2	-1.37993E-002	1.60995E-010	0.00000E+000	-1.38500E-002	9.76722E-004	4	..........a	-327.66
	161	32.4	-3.80136E-003	1.60746E-010	0.00000E+000	-3.85000E-003	9.82322E-004	4	..........a	-327.66
	162	32.6	6.16269E-003	1.58582E-010	0.00000E+000	6.15001E-003	9.77622E-004	4	..........a	-327.66
	163	32.8	1.61853E-002	1.58594E-010	0.00000E+000	1.61500E-002	9.74922E-004	4	..........a	-327.66
	164	33	2.63203E-002	1.61486E-010	0.00000E+000	2.61500E-002	9.83122E-004	4	..........a	-327.66
	165	33.2	3.62121E-002	1.61979E-010	0.00000E+000	3.61500E-002	9.74022E-004	4	..........a	-327.66
	166	33.4	4.61950E-002	1.61841E-010	0.00000E+000	4.61500E-002	9.77822E-004	4	..........a	-327.66
	167	33.6	5.61552E-002	1.59435E-010	0.00000E+000	5.61500E-002	9.74422E-004	4	..........a	-327.66
	168	33.8	6.55364E-002	1.61611E-010	0.00000E+000	6.61500E-002	9.67622E-004	4	..........a	-327.66
	169	34	7.61602E-002	1.62239E-010	0.00000E+000	7.61500E-002	9.82422E-004	4	..........a	-327.66
	170	34.2	8.62037E-002	1.62925E-010	0.00000E+000	8.61500E-002	9.69622E-004	4	..........a	-327.66
	171	34.4	9.61396E-002	1.62001E-010	0.00000E+000	9.61500E-002	9.79722E-004	4	..........a	-327.66
	172	34.6	1.06282E-001	1.62235E-010	0.00000E+000	1.06150E-001	9.79422E-004	4	..........a	-327.66
	173	34.8	1.16198E-001	1.64860E-010	0.00000E+000	1.16150E-001	9.88322E-004	4	..........a	-327.66
	174	35	1.26178E-001	1.65769E-010	0.00000E+000	1.26150E-001	9.82822E-004	4	..........a	-327.66
	175	35.2	1.36215E-001	1.65940E-010	0.00000E+000	1.36150E-001	9.85722E-004	4	..........a	-327.66
	176	35.4	1.46345E-001	1.67046E-010	0.00000E+000	1.46150E-001	9.81522E-004	4	..........a	-327.66
	177	35.6	1.56162E-001	1.68345E-010	0.00000E+000	1.56150E-001	9.55122E-004	4	..........a	-327.66
	178	35.8	1.66209E-001	1.70288E-010	0.00000E+000	1.66150E-001	9.58522E-004	4	..........a	-327.66
	179	36	1.76192E-001	1.71646E-010	0.00000E+000	1.76150E-001	9.62522E-004	4	..........a	-327.66
	180	36.2	1.86226E-001	1.73842E-010	0.00000E+000	1.86150E-001	9.72722E-004	4	..........a	-327.66
	181	36.4	1.96166E-001	1.76663E-010	0.00000E+000	1.96150E-001	9.68722E-004	4	..........a	-327.66
	182	36.6	2.06145E-001	1.79116E-010	0.00000E+000	2.06150E-001	9.73222E-004	4	..........a	-327.66
	183	36.8	2.16181E-001	1.81235E-010	0.00000E+000	2.16150E-001	9.69522E-004	4	..........a	-327.66
	184	37	2.26224E-001	1.83587E-010	0.00000E+000	2.26150E-001	9.64822E-004	4	..........a	-327.66
	185	37.2	2.36182E-001	1.90820E-010	0.00000E+000	2.36150E-001	9.67222E-004	4	..........a	-327.66
	186	37.4	2.46129E-001	1.87625E-010	0.00000E+000	2.46150E-001	9.77922E-004	4	..........a	-327.66
	187	37.6	2.56147E-001	1.92098E-010	0.00000E+000	2.56150E-001	9.76622E-004	4	..........a	-327.66
	188	37.8	2.66186E-001	1.92320E-010	0.00000E+000	2.66150E-001	9.94122E-004	4	..........a	-327.66
	189	38	2.76141E-001	1.95459E-010	0.00000E+000	2.76150E-001	9.77422E-004	4	..........a	-327.66
	190	38.2	2.86155E-001	1.98111E-010	0.00000E+000	2.86150E-001	9.75622E-004	4	..........a	-327.66
	191	38.4	2.95806E-001	1.99004E-010	0.00000E+000	2.96150E-001	9.64322E-004	4	..........a	-327.66
	192	38.6	3.06251E-001	2.01897E-010	0.00000E+000	3.06150E-001	9.71822E-004	4	..........a	-327.66
	193	38.8	3.16181E-001	2.04029E-010	0.00000E+000	3.16150E-001	9.85522E-004	4	..........a	-327.66
	194	39	3.26128E-001	2.06091E-010	0.00000E+000	3.26150E-001	9.86222E-004	4	..........a	-327.66
	195	39.2	3.36171E-001	2.07697E-010	0.00000E+000	3.36150E-001	9.77322E-004	4	..........a	-327.66
	196	39.4	3.46201E-001	2.09836E-010	0.00000E+000	3.46150E-001	9.89922E-004	4	..........a	-327.66
	197	39.6	3.56169E-001	2.11975E-010	0.00000E+000	3.56150E-001	9.72922E-004	4	..........a	-327.66
	198	39.8	3.66172E-001	2.13914E-010	0.00000E+000	3.66150E-001	9.67022E-004	4	..........a	-327.66
	199	40	3.76180E-001	2.14848E-010	0.00000E+000	3.76150E-001	9.90722E-004	4	..........a	-327.66
	200	40.2	3.86206E-001	2.16019E-010	0.00000E+000	3.86150E-001	9.70422E-004	4	..........a	-327.66
	201	40.4	3.96185E-001	2.17606E-010	0.00000E+000	3.96150E-001	9.72122E-004	4	..........a	-327.66
	202	40.6	4.06134E-001	2.18515E-010	0.00000E+000	4.06150E-001	9.88822E-004	4	..........a	-327.66
	203	40.8	4.16135E-001	2.19061E-010	0.00000E+000	4.16150E-001	9.95622E-004	4	..........a	-327.66
	204	41	4.26210E-001	2.21258E-010	0.00000E+000	4.26150E-001	9.80922E-004	4	..........a	-327.66
	205	41.2	4.36078E-001	2.22997E-010	0.00000E+000	4.36150E-001	9.79222E-004	4	..........a	-327.66
	206	41.4	4.46111E-001	2.25899E-010	0.00000E+000	4.46150E-001	9.71422E-004	4	..........a	-327.66
	207	41.6	4.56083E-001	2.28536E-010	0.00000E+000	4.56150E-001	9.91822E-004	4	..........a	-327.66
	208	41.8	4.66155E-001	2.31563E-010	0.00000E+000	4.66150E-001	9.92022E-004	4	..........a	-327.66
	209	42	4.76110E-001	2.33451E-010	0.00000E+000	4.76150E-001	9.70722E-004	4	..........a	-327.66
	210	42.2	4.85993E-001	2.36250E-010	0.00000E+000	4.86150E-001	9.93722E-004	4	..........a	-327.66
	211	42.4	4.96065E-001	2.38810E-010	0.00000E+000	4.96150E-001	9.60522E-004	4	..........a	-327.66
	212	42.6	5.06045E-001	2.42979E-010	0.00000E+000	5.06150E-001	9.78322E-004	4	..........a	-327.66
	213	42.8	5.16066E-001	2.44584E-010	0.00000E+000	5.16150E-001	9.87922E-004	4	..........a	-327.66
	214	43	5.26020E-001	2.49652E-010	0.00000E+000	5.26150E-001	9.85822E-004	4	..........a	-327.66
	215	43.2	5.36007E-001	2.52766E-010	0.00000E+000	5.36150E-001	9.89822E-004	4	..........a	-327.66
	216	43.4	5.46130E-001	2.57301E-010	0.00000E+000	5.46150E-001	9.69522E-004	4	..........a	-327.66
	217	43.6	5.56016E-001	2.60856E-010	0.00000E+000	5.56150E-001	9.68522E-004	4	..........a	-327.66
	218	43.8	5.65999E-001	2.65785E-010	0.00000E+000	5.66150E-001	9.84322E-004	4	..........a	-327.66
	219	44	5.76050E-001	2.70294E-010	0.00000E+000	5.76150E-001	9.89322E-004	4	..........a	-327.66
	220	44.2	5.86112E-001	2.75688E-010	0.00000E+000	5.86150E-001	9.81822E-004	4	..........a	-327.66
	221	44.4	5.96110E-001	2.81841E-010	0.00000E+000	5.96150E-001	9.80322E-004	4	..........a	-327.66
	222	44.6	6.06054E-001	2.87476E-010	0.00000E+000	6.06150E-001	9.79322E-004	4	..........a	-327.66
	223	44.8	6.16013E-001	2.94005E-010	0.00000E+000	6.16150E-001	9.86222E-004	4	..........a	-327.66
	224	45	6.26098E-001	3.00771E-010	0.00000E+000	6.26150E-001	9.75222E-004	4	..........a	-327.66
	225	45.2	6.36045E-001	3.08631E-010	0.00000E+000	6.36150E-001	9.77822E-004	4	..........a	-327.66
	226	45.4	6.46034E-001	3.17007E-010	0.00000E+000	6.46150E-001	9.83722E-004	4	..........a	-327.66
	227	45.6	6.56078E-001	3.25160E-010	0.00000E+000	6.56150E-001	9.84622E-004	4	..........a	-327.66
	228	45.8	6.66037E-001	3.34482E-010	0.00000E+000	6.66150E-001	9.82722E-004	4	..........a	-327.66
	229	46	6.76123E-001	3.45080E-010	0.00000E+000	6.76150E-001	9.86822E-004	4	..........a	-327.66
	230	46.2	6.86082E-001	3.55537E-010	0.00000E+000	6.86150E-001	9.69722E-004	4	..........a	-327.66
	231	46.4	6.96001E-001	3.67064E-010	0.00000E+000	6.96150E-001	9.66422E-004	4	..........a	-327.66
	232	46.6	7.06130E-001	3.79628E-010	0.00000E+000	7.06150E-001	9.70622E-004	4	..........a	-327.66
	233	46.8	7.16069E-001	3.92972E-010	0.00000E+000	7.16150E-001	9.91022E-004	4	..........a	-327.66
	234	47	7.26086E-001	4.07136E-010	0.00000E+000	7.26150E-001	9.80822E-004	4	..........a	-327.66
	235	47.2	7.36065E-001	4.22219E-010	0.00000E+000	7.36150E-001	9.72022E-004	4	..........a	-327.66
	236	47.4	7.46133E-001	4.40022E-010	0.00000E+000	7.46150E-001	9.79122E-004	4	..........a	-327.66
	237	47.6	7.56139E-001	4.58594E-010	0.00000E+000	7.56150E-001	9.78722E-004	4	..........a	-327.66
	238	47.8	7.66073E-001	4.77933E-010	0.00000E+000	7.66150E-001	9.73622E-004	4	..........a	-327.66
	239	48	7.76062E-001	5.00505E-010	0.00000E+000	7.76150E-001	9.65922E-004	4	..........a	-327.66
	240	48.2	7.86099E-001	5.23894E-010	0.00000E+000	7.86150E-001	9.59422E-004	4	..........a	-327.66
	241	48.4	7.96060E-001	5.50279E-010	0.00000E+000	7.96150E-001	9.87222E-004	4	..........a	-327.66
CURVE2	TABLE
	Pt	T	Vf	Im	Vu	Sig	Ach	IERange	Over	Temp
	#	s	V vs. Ref.	A	V	V	V	#	bits	deg C
	242	48.6	7.89856E-001	4.32721E-010	0.00000E+000	7.90000E-001	9.80522E-004	4	..........a	-327.66
	243	48.8	7.79960E-001	3.32949E-010	0.00000E+000	7.80000E-001	9.80822E-004	4	..........a	-327.66
	244	49	7.69952E-001	2.65877E-010	0.00000E+000	7.70000E-001	9.86322E-004	4	..........a	-327.66
	245	49.2	7.59969E-001	2.17079E-010	0.00000E+000	7.60000E-001	9.77722E-004	4	..........a	-327.66
	246	49.4	7.49933E-001	1.80769E-010	0.00000E+000	7.50000E-001	9.81522E-004	4	..........a	-327.66
	247	49.6	7.39978E-001	1.52455E-010	0.00000E+000	7.40000E-001	9.89322E-004	4	..........a	-327.66
	248	49.8	7.29995E-001	1.27254E-010	0.00000E+000	7.30000E-001	9.71922E-004	4	..........a	-327.66
	249	50	7.19934E-001	1.05112E-010	0.00000E+000	7.20000E-001	9.82122E-004	4	..........a	-327.66
	250	50.2	7.09943E-001	8.84612E-011	0.00000E+000	7.10000E-001	9.68522E-004	4	..........a	-327.66
	251	50.4	6.99969E-001	7.25646E-011	0.00000E+000	7.00000E-001	9.72922E-004	4	..........a	-327.66
	252	50.6	6.89938E-001	5.85570E-011	0.00000E+000	6.90000E-001	9.70622E-004	4	..........a	-327.66
	253	50.8	6.79797E-001	4.69636E-011	0.00000E+000	6.80000E-001	9.63722E-004	4	..........a	-327.66
	254	51	6.69879E-001	3.55262E-011	0.00000E+000	6.70000E-001	9.74922E-004	4	..........a	-327.66
	255	51.2	6.60040E-001	2.97359E-011	0.00000E+000	6.60000E-001	9.83222E-004	4	..........a	-327.66
	256	51.4	6.49889E-001	1.71655E-011	0.00000E+000	6.50000E-001	9.73222E-004	4	..........a	-327.66
	257	51.6	6.39920E-001	8.88214E-012	0.00000E+000	6.40000E-001	9.91222E-004	4	..........a	-327.66
	258	51.8	6.29852E-001	9.62836E-013	0.00000E+000	6.30000E-001	9.73322E-004	4	..........a	-327.66
	259	52	6.19989E-001	-3.97735E-012	0.00000E+000	6.20000E-001	9.81622E-004	4	..........a	-327.66
	260	52.2	6.09915E-001	-1.21647E-011	0.00000E+000	6.10000E-001	9.66122E-004	4	..........a	-327.66
	261	52.4	5.99869E-001	-1.91359E-011	0.00000E+000	6.00000E-001	9.73422E-004	4	..........a	-327.66
	262	52.6	5.89973E-001	-2.42961E-011	0.00000E+000	5.90000E-001	9.91622E-004	4	..........a	-327.66
	263	52.8	5.80002E-001	-3.05134E-011	0.00000E+000	5.80000E-001	9.87422E-004	4	..........a	-327.66
	264	53	5.69961E-001	-3.64376E-011	0.00000E+000	5.70000E-001	9.74322E-004	4	..........a	-327.66
	265	53.2	5.59988E-001	-3.95287E-011	0.00000E+000	5.60000E-001	9.91722E-004	4	..........a	-327.66
	266	53.4	5.49950E-001	-4.35149E-011	0.00000E+000	5.50000E-001	9.81422E-004	4	..........a	-327.66
	267	53.6	5.40012E-001	-4.83661E-011	0.00000E+000	5.40000E-001	9.76822E-004	4	..........a	-327.66
	268	53.8	5.30003E-001	-5.29302E-011	0.00000E+000	5.30000E-001	9.60622E-004	4	..........a	-327.66
	269	54	5.19957E-001	-5.67234E-011	0.00000E+000	5.20000E-001	9.72222E-004	4	..........a	-327.66
	270	54.2	5.09914E-001	-6.08645E-011	0.00000E+000	5.10000E-001	9.93222E-004	4	..........a	-327.66
	271	54.4	5.00021E-001	-6.57617E-011	0.00000E+000	5.00000E-001	9.94922E-004	4	..........a	-327.66
	272	54.6	4.89981E-001	-6.93249E-011	0.00000E+000	4.90000E-001	9.82122E-004	4	..........a	-327.66
	273	54.8	4.79896E-001	-7.21640E-011	0.00000E+000	4.80000E-001	9.76622E-004	4	..........a	-327.66
	274	55	4.69937E-001	-7.53071E-011	0.00000E+000	4.70000E-001	9.90022E-004	4	..........a	-327.66
	275	55.2	4.60005E-001	-7.92302E-011	0.00000E+000	4.60000E-001	9.71122E-004	4	..........a	-327.66
	276	55.4	4.49955E-001	-8.25024E-011	0.00000E+000	4.50000E-001	9.63022E-004	4	..........a	-327.66
	277	55.6	4.39918E-001	-8.60155E-011	0.00000E+000	4.40000E-001	9.77722E-004	4	..........a	-327.66
	278	55.8	4.29978E-001	-8.78996E-011	0.00000E+000	4.30000E-001	9.76522E-004	4	..........a	-327.66
	279	56	4.20003E-001	-9.10767E-011	0.00000E+000	4.20000E-001	9.63922E-004	4	..........a	-327.66
	280	56.2	4.09881E-001	-9.45828E-011	0.00000E+000	4.10000E-001	9.79422E-004	4	..........a	-327.66
	281	56.4	4.00043E-001	-9.78770E-011	0.00000E+000	4.00000E-001	9.83322E-004	4	..........a	-327.66
	282	56.6	3.89988E-001	-1.00658E-010	0.00000E+000	3.90000E-001	9.78922E-004	4	..........a	-327.66
	283	56.8	3.80024E-001	-1.02985E-010	0.00000E+000	3.80000E-001	9.83522E-004	4	..........a	-327.66
	284	57	3.69992E-001	-1.05578E-010	0.00000E+000	3.70000E-001	9.71222E-004	4	..........a	-327.66
	285	57.2	3.59997E-001	-1.08424E-010	0.00000E+000	3.60000E-001	9.86122E-004	4	..........a	-327.66
	286	57.4	3.49926E-001	-1.12009E-010	0.00000E+000	3.50000E-001	9.73722E-004	4	..........a	-327.66
	287	57.6	3.40035E-001	-1.13939E-010	0.00000E+000	3.40000E-001	9.87122E-004	4	..........a	-327.66
	288	57.8	3.30040E-001	-1.16707E-010	0.00000E+000	3.30000E-001	9.67422E-004	4	..........a	-327.66
	289	58	3.20004E-001	-1.19045E-010	0.00000E+000	3.20000E-001	9.69222E-004	4	..........a	-327.66
	290	58.2	3.09987E-001	-1.21517E-010	0.00000E+000	3.10000E-001	9.90122E-004	4	..........a	-327.66
	291	58.4	3.00022E-001	-1.23732E-010	0.00000E+000	3.00000E-001	9.80022E-004	4	..........a	-327.66
	292	58.6	2.89977E-001	-1.25728E-010	0.00000E+000	2.90000E-001	9.82422E-004	4	..........a	-327.66
	293	58.8	2.79972E-001	-1.27649E-010	0.00000E+000	2.80000E-001	1.00002E-003	4	..........a	-327.66
	294	59	2.69938E-001	-1.30233E-010	0.00000E+000	2.70000E-001	9.68122E-004	4	..........a	-327.66
	295	59.2	2.60005E-001	-1.31881E-010	0.00000E+000	2.60000E-001	9.92522E-004	4	..........a	-327.66
	296	59.4	2.50000E-001	-1.33376E-010	0.00000E+000	2.50000E-001	9.81922E-004	4	..........a	-327.66
	297	59.6	2.39909E-001	-1.35385E-010	0.00000E+000	2.40000E-001	9.73722E-004	4	..........a	-327.66
	298	59.8	2.29937E-001	-1.35839E-010	0.00000E+000	2.30000E-001	9.87222E-004	4	..........a	-327.66
	299	60	2.19997E-001	-1.37943E-010	0.00000E+000	2.20000E-001	9.91422E-004	4	..........a	-327.66
	300	60.2	2.09986E-001	-1.38125E-010	0.00000E+000	2.10000E-001	9.72222E-004	4	..........a	-327.66
	301	60.4	1.99947E-001	-1.39793E-010	0.00000E+000	2.00000E-001	9.80022E-004	4	..........a	-327.66
	302	60.6	1.90008E-001	-1.40151E-010	0.00000E+000	1.90000E-001	9.88022E-004	4	..........a	-327.66
	303	60.8	1.80023E-001	-1.41425E-010	0.00000E+000	1.80000E-001	9.80122E-004	4	..........a	-327.66
	304	61	1.70011E-001	-1.42631E-010	0.00000E+000	1.70000E-001	9.60822E-004	4	..........a	-327.66
	305	61.2	1.59946E-001	-1.44062E-010	0.00000E+000	1.60000E-001	9.85122E-004	4	..........a	-327.66
	306	61.4	1.50004E-001	-1.45260E-010	0.00000E+000	1.50000E-001	1.00522E-003	4	..........a	-327.66
	307	61.6	1.40061E-001	-1.46351E-010	0.00000E+000	1.40000E-001	9.94622E-004	4	..........a	-327.66
	308	61.8	1.30058E-001	-1.46994E-010	0.00000E+000	1.30000E-001	9.69022E-004	4	..........a	-327.66
	309	62	1.20031E-001	-1.49129E-010	0.00000E+000	1.20000E-001	9.91922E-004	4	..........a	-327.66
	310	62.2	1.10042E-001	-1.49739E-010	0.00000E+000	1.10000E-001	9.72122E-004	4	..........a	-327.66
	311	62.4	1.00020E-001	-1.50784E-010	0.00000E+000	1.00000E-001	9.84522E-004	4	..........a	-327.66
	312	62.6	9.02314E-002	-1.52832E-010	0.00000E+000	9.00000E-002	9.73122E-004	4	..........a	-327.66
	313	62.8	8.00315E-002	-1.53976E-010	0.00000E+000	8.00000E-002	9.81022E-004	4	..........a	-327.66
	314	63	6.99876E-002	-1.56297E-010	0.00000E+000	7.00000E-002	9.78222E-004	4	..........a	-327.66
	315	63.2	6.00575E-002	-1.58573E-010	0.00000E+000	6.00000E-002	9.86522E-004	4	..........a	-327.66
	316	63.4	5.00440E-002	-1.61313E-010	0.00000E+000	5.00000E-002	9.62822E-004	4	..........a	-327.66
	317	63.6	4.00951E-002	-1.63728E-010	0.00000E+000	4.00000E-002	9.82922E-004	4	..........a	-327.66
	318	63.8	3.00253E-002	-1.66151E-010	0.00000E+000	3.00000E-002	1.00382E-003	4	..........a	-327.66
	319	64	2.00213E-002	-1.69282E-010	0.00000E+000	2.00000E-002	9.95222E-004	4	..........a	-327.66
	320	64.2	1.00442E-002	-1.72739E-010	0.00000E+000	1.00000E-002	9.62622E-004	4	..........a	-327.66
	321	64.4	4.34084E-006	-1.76159E-010	0.00000E+000	7.45058E-009	9.89522E-004	4	..........a	-327.66
	322	64.6	-1.00365E-002	-1.78937E-010	0.00000E+000	-1.00000E-002	9.83022E-004	4	..........a	-327.66
	323	64.8	-1.99468E-002	-1.82856E-010	0.00000E+000	-2.00000E-002	9.83422E-004	4	..........a	-327.66
	324	65	-2.99515E-002	-1.86534E-010	0.00000E+000	-3.00000E-002	9.64622E-004	4	..........a	-327.66
	325	65.2	-4.00105E-002	-1.90684E-010	0.00000E+000	-4.00000E-002	9.86622E-004	4	..........a	-327.66
	326	65.4	-5.00147E-002	-1.95611E-010	0.00000E+000	-5.00000E-002	9.91022E-004	4	..........a	-327.66
	327	65.6	-5.99753E-002	-1.99903E-010	0.00000E+000	-6.00000E-002	9.89022E-004	4	..........a	-327.66
	328	65.8	-6.99830E-002	-2.04060E-010	0.00000E+000	-7.00000E-002	9.79722E-004	4	..........a	-327.66
	329	66	-8.00219E-002	-2.09357E-010	0.00000E+000	-8.00000E-002	9.87322E-004	4	..........a	-327.66
	330	66.2	-8.99624E-002	-2.13869E-010	0.00000E+000	-9.00000E-002	9.87022E-004	4	..........a	-327.66
	331	66.4	-9.99601E-002	-2.18872E-010	0.00000E+000	-1.00000E-001	9.79622E-004	4	..........a	-327.66
	332	66.6	-1.10020E-001	-2.24279E-010	0.00000E+000	-1.10000E-001	9.63822E-004	4	..........a	-327.66
	333	66.8	-1.19971E-001	-2.29417E-010	0.00000E+000	-1.20000E-001	9.86322E-004	4	..........a	-327.66
	334	67	-1.30026E-001	-2.34680E-010	0.00000E+000	-1.30000E-001	9.81422E-004	4	..........a	-327.66
	335	67.2	-1.39880E-001	-2.40265E-010	0.00000E+000	-1.40000E-001	9.81522E-004	4	..........a	-327.66
	336	67.4	-1.49956E-001	-2.45843E-010	0.00000E+000	-1.50000E-001	9.70022E-004	4	..........a	-327.66
	337	67.6	-1.59991E-001	-2.51835E-010	0.00000E+000	-1.60000E-001	9.94822E-004	4	..........a	-327.66
	338	67.8	-1.69968E-001	-2.59275E-010	0.00000E+000	-1.70000E-001	9.86122E-004	4	..........a	-327.66
	339	68	-1.79917E-001	-2.63239E-010	0.00000E+000	-1.80000E-001	9.82222E-004	4	..........a	-327.66
	340	68.2	-1.90017E-001	-2.71269E-010	0.00000E+000	-1.90000E-001	9.56322E-004	4	..........a	-327.66
	341	68.4	-1.99996E-001	-2.80671E-010	0.00000E+000	-2.00000E-001	9.70722E-004	4	..........a	-327.66
	342	68.6	-2.09926E-001	-2.90748E-010	0.00000E+000	-2.10000E-001	9.69122E-004	4	..........a	-327.66
	343	68.8	-2.19927E-001	-2.93289E-010	0.00000E+000	-2.20000E-001	9.80522E-004	4	..........a	-327.66
	344	69	-2.29980E-001	-3.01849E-010	0.00000E+000	-2.30000E-001	9.71422E-004	4	..........a	-327.66
	345	69.2	-2.39874E-001	-3.11254E-010	0.00000E+000	-2.40000E-001	9.82722E-004	4	..........a	-327.66
	346	69.4	-2.49928E-001	-3.22429E-010	0.00000E+000	-2.50000E-001	9.72722E-004	4	..........a	-327.66
	347	69.6	-2.59853E-001	-3.28176E-010	0.00000E+000	-2.60000E-001	9.79522E-004	4	..........a	-327.66
	348	69.8	-2.69911E-001	-3.40062E-010	0.00000E+000	-2.70000E-001	9.71422E-004	4	..........a	-327.66
	349	70	-2.79877E-001	-3.50141E-010	0.00000E+000	-2.80000E-001	9.68122E-004	4	..........a	-327.66
	350	70.2	-2.89876E-001	-3.60460E-010	0.00000E+000	-2.90000E-001	9.87622E-004	4	..........a	-327.66
	351	70.4	-2.99879E-001	-3.72049E-010	0.00000E+000	-3.00000E-001	9.78622E-004	4	..........a	-327.66
	352	70.6	-3.09912E-001	-3.84938E-010	0.00000E+000	-3.10000E-001	9.52322E-004	4	..........a	-327.66
	353	70.8	-3.19863E-001	-3.97694E-010	0.00000E+000	-3.20000E-001	9.59322E-004	4	..........a	-327.66
[...]
	921	184.4	-3.99873E-001	-6.04404E-010	0.00000E+000	-4.00000E-001	9.70522E-004	4	..........a	-327.66
	922	184.6	-4.09909E-001	-6.26656E-010	0.00000E+000	-4.10000E-001	9.75822E-004	4	..........a	-327.66
	923	184.8	-4.19849E-001	-6.49123E-010	0.00000E+000	-4.20000E-001	9.72822E-004	4	..........a	-327.66
	924	185	-4.29864E-001	-6.73009E-010	0.00000E+000	-4.30000E-001	9.65222E-004	4	..........a	-327.66
	925	185.2	-4.39894E-001	-6.96175E-010	0.00000E+000	-4.40000E-001	9.71122E-004	4	..........a	-327.66
	926	185.4	-4.49866E-001	-7.20760E-010	0.00000E+000	-4.50000E-001	9.68022E-004	4	..........a	-327.66
	927	185.6	-4.59903E-001	-7.47344E-010	0.00000E+000	-4.60000E-001	9.68522E-004	4	..........a	-327.66
	928	185.8	-4.69845E-001	-7.74928E-010	0.00000E+000	-4.70000E-001	9.66122E-004	4	..........a	-327.66
	929	186	-4.79858E-001	-8.05558E-010	0.00000E+000	-4.80000E-001	9.75222E-004	4	..........a	-327.66
	930	186.2	-4.89862E-001	-8.33032E-010	0.00000E+000	-4.90000E-001	9.75422E-004	4	..........a	-327.66
	931	186.4	-4.99892E-001	-8.62751E-010	0.00000E+000	-5.00000E-001	9.69522E-004	4	..........a	-327.66
	932	186.6	-5.09850E-001	-9.01057E-010	0.00000E+000	-5.10000E-001	9.64522E-004	4	..........a	-327.66
	933	186.8	-5.19869E-001	-9.38812E-010	0.00000E+000	-5.20000E-001	9.80422E-004	4	..........a	-327.66
	934	187	-5.29850E-001	-9.79105E-010	0.00000E+000	-5.30000E-001	9.95422E-004	4	..........a	-327.66
	935	187.2	-5.39903E-001	-1.02414E-009	0.00000E+000	-5.40000E-001	9.62022E-004	4	..........a	-327.66
	936	187.4	-5.49909E-001	-1.07114E-009	0.00000E+000	-5.50000E-001	9.60622E-004	4	..........a	-327.66
	937	187.6	-5.59879E-001	-1.12418E-009	0.00000E+000	-5.60000E-001	9.71622E-004	4	..........a	-327.66
	938	187.8	-5.69865E-001	-1.18182E-009	0.00000E+000	-5.70000E-001	9.98222E-004	4	..........a	-327.66
	939	188	-5.79856E-001	-1.24426E-009	0.00000E+000	-5.80000E-001	9.58522E-004	4	..........a	-327.66
	940	188.2	-5.89857E-001	-1.31631E-009	0.00000E+000	-5.90000E-001	9.73622E-004	4	..........a	-327.66
	941	188.4	-5.99865E-001	-1.39123E-009	0.00000E+000	-6.00000E-001	9.66622E-004	4	..........a	-327.66
	942	188.6	-5.89828E-001	-1.14509E-009	0.00000E+000	-5.90000E-001	9.56922E-004	4	..........a	-327.66
	943	188.8	-5.79841E-001	-9.77562E-010	0.00000E+000	-5.80000E-001	9.80422E-004	4	..........a	-327.66
	944	189	-5.69857E-001	-8.53073E-010	0.00000E+000	-5.70000E-001	9.77922E-004	4	..........a	-327.66
	945	189.2	-5.59913E-001	-7.51765E-010	0.00000E+000	-5.60000E-001	9.91422E-004	4	..........a	-327.66
	946	189.4	-5.49903E-001	-6.68441E-010	0.00000E+000	-5.50000E-001	9.60422E-004	4	..........a	-327.66
	947	189.6	-5.39846E-001	-5.96476E-010	0.00000E+000	-5.40000E-001	9.79622E-004	4	..........a	-327.66
	948	189.8	-5.29886E-001	-5.36706E-010	0.00000E+000	-5.30000E-001	9.65722E-004	4	..........a	-327.66
	949	190	-5.19869E-001	-4.83053E-010	0.00000E+000	-5.20000E-001	9.79922E-004	4	..........a	-327.66
	950	190.2	-5.09851E-001	-4.34629E-010	0.00000E+000	-5.10000E-001	9.68422E-004	4	..........a	-327.66
	951	190.4	-4.99884E-001	-3.90586E-010	0.00000E+000	-5.00000E-001	9.70722E-004	4	..........a	-327.66
	952	190.6	-4.89838E-001	-3.49004E-010	0.00000E+000	-4.90000E-001	9.95222E-004	4	..........a	-327.66
	953	190.8	-4.79860E-001	-3.17105E-010	0.00000E+000	-4.80000E-001	9.66522E-004	4	..........a	-327.66
	954	191	-4.69792E-001	-2.85264E-010	0.00000E+000	-4.70000E-001	9.73122E-004	4	..........a	-327.66
	955	191.2	-4.59878E-001	-2.50649E-010	0.00000E+000	-4.60000E-001	9.72222E-004	4	..........a	-327.66
	956	191.4	-4.49879E-001	-2.20995E-010	0.00000E+000	-4.50000E-001	9.71822E-004	4	..........a	-327.66
	957	191.6	-4.39926E-001	-1.93435E-010	0.00000E+000	-4.40000E-001	9.74222E-004	4	..........a	-327.66
	958	191.8	-4.29884E-001	-1.68011E-010	0.00000E+000	-4.30000E-001	9.83222E-004	4	..........a	-327.66
	959	192	-4.19906E-001	-1.44410E-010	0.00000E+000	-4.20000E-001	9.84422E-004	4	..........a	-327.66
	960	192.2	-4.09953E-001	-1.21096E-010	0.00000E+000	-4.10000E-001	9.88522E-004	4	..........a	-327.66
	961	192.4	-3.99913E-001	-9.94320E-011	0.00000E+000	-4.00000E-001	9.79322E-004	4	..........a	-327.66
	962	192.6	-3.89923E-001	-7.92752E-011	0.00000E+000	-3.90000E-001	9.62622E-004	4	..........a	-327.66
	963	192.8	-3.79927E-001	-6.00455E-011	0.00000E+000	-3.80000E-001	9.74222E-004	4	..........a	-327.66
	964	193	-3.69902E-001	-4.12798E-011	0.00000E+000	-3.70000E-001	9.59122E-004	4	..........a	-327.66
	965	193.2	-3.60003E-001	-2.51182E-011	0.00000E+000	-3.60000E-001	9.69122E-004	4	..........a	-327.66
	966	193.4	-3.49918E-001	-7.57949E-012	0.00000E+000	-3.50000E-001	9.77222E-004	4	..........a	-327.66
	967	193.6	-3.39938E-001	8.59813E-012	0.00000E+000	-3.40000E-001	9.86722E-004	4	..........a	-327.66
	968	193.8	-3.29955E-001	2.29677E-011	0.00000E+000	-3.30000E-001	9.65422E-004	4	..........a	-327.66
	969	194	-3.19871E-001	3.73022E-011	0.00000E+000	-3.20000E-001	9.57222E-004	4	..........a	-327.66
	970	194.2	-3.09931E-001	5.01177E-011	0.00000E+000	-3.10000E-001	9.70422E-004	4	..........a	-327.66
	971	194.4	-2.99920E-001	6.20982E-011	0.00000E+000	-3.00000E-001	9.94922E-004	4	..........a	-327.66
	972	194.6	-2.89961E-001	7.50477E-011	0.00000E+000	-2.90000E-001	9.85622E-004	4	..........a	-327.66
	973	194.8	-2.79899E-001	8.59481E-011	0.00000E+000	-2.80000E-001	9.82322E-004	4	..........a	-327.66
	974	195	-2.69907E-001	9.54115E-011	0.00000E+000	-2.70000E-001	9.72222E-004	4	..........a	-327.66
	975	195.2	-2.59931E-001	1.05804E-010	0.00000E+000	-2.60000E-001	9.75922E-004	4	..........a	-327.66
	976	195.4	-2.49981E-001	1.16244E-010	0.00000E+000	-2.50000E-001	9.93222E-004	4	..........a	-327.66
	977	195.6	-2.39967E-001	1.23574E-010	0.00000E+000	-2.40000E-001	9.83222E-004	4	..........a	-327.66
	978	195.8	-2.29989E-001	1.30099E-010	0.00000E+000	-2.30000E-001	9.74022E-004	4	..........a	-327.66
	979	196	-2.19898E-001	1.36849E-010	0.00000E+000	-2.20000E-001	9.69522E-004	4	..........a	-327.66
	980	196.2	-2.09989E-001	1.43114E-010	0.00000E+000	-2.10000E-001	9.64322E-004	4	..........a	-327.66
	981	196.4	-1.99949E-001	1.47498E-010	0.00000E+000	-2.00000E-001	9.90522E-004	4	..........a	-327.66
	982	196.6	-1.90150E-001	1.53509E-010	0.00000E+000	-1.90000E-001	9.68922E-004	4	..........a	-327.66
	983	196.8	-1.79945E-001	1.57452E-010	0.00000E+000	-1.80000E-001	9.84322E-004	4	..........a	-327.66
	984	197	-1.69954E-001	1.60307E-010	0.00000E+000	-1.70000E-001	9.79022E-004	4	..........a	-327.66
	985	197.2	-1.59992E-001	1.58923E-010	0.00000E+000	-1.60000E-001	9.66222E-004	4	..........a	-327.66
	986	197.4	-1.49966E-001	1.60848E-010	0.00000E+000	-1.50000E-001	9.76922E-004	4	..........a	-327.66
	987	197.6	-1.39865E-001	1.64123E-010	0.00000E+000	-1.40000E-001	9.74122E-004	4	..........a	-327.66
	988	197.8	-1.29977E-001	1.65472E-010	0.00000E+000	-1.30000E-001	9.87922E-004	4	..........a	-327.66
	989	198	-1.19921E-001	1.65700E-010	0.00000E+000	-1.20000E-001	9.73522E-004	4	..........a	-327.66
	990	198.2	-1.09932E-001	1.65540E-010	0.00000E+000	-1.10000E-001	9.57822E-004	4	..........a	-327.66
	991	198.4	-9.99640E-002	1.66087E-010	0.00000E+000	-1.00000E-001	9.88822E-004	4	..........a	-327.66
	992	198.6	-8.99414E-002	1.67496E-010	0.00000E+000	-9.00000E-002	9.76322E-004	4	..........a	-327.66
	993	198.8	-7.99342E-002	1.66596E-010	0.00000E+000	-8.00000E-002	9.76022E-004	4	..........a	-327.66
	994	199	-6.99204E-002	1.66732E-010	0.00000E+000	-7.00000E-002	9.82022E-004	4	..........a	-327.66
	995	199.2	-5.99269E-002	1.66528E-010	0.00000E+000	-6.00000E-002	9.81222E-004	4	..........a	-327.66
	996	199.4	-4.99661E-002	1.66434E-010	0.00000E+000	-5.00000E-002	9.83322E-004	4	..........a	-327.66
	997	199.6	-3.99273E-002	1.66214E-010	0.00000E+000	-4.00000E-002	9.79822E-004	4	..........a	-327.66
	998	199.8	-2.99593E-002	1.65430E-010	0.00000E+000	-3.00000E-002	9.54422E-004	4	..........a	-327.66
	999	200	-1.99327E-002	1.65062E-010	0.00000E+000	-2.00000E-002	9.73322E-004	4	..........a	-327.66
	1000	200.2	-9.94436E-003	1.65977E-010	0.00000E+000	-1.00000E-002	9.76622E-004	4	..........a	-327.66
	1001	200.4	8.65908E-005	1.64585E-010	0.00000E+000	7.45058E-009	9.69122E-004	4	..........a	-327.66
	1002	200.6	1.00864E-002	1.64961E-010	0.00000E+000	1.00000E-002	9.53422E-004	4	..........a	-327.66
	1003	200.8	2.00934E-002	1.65386E-010	0.00000E+000	2.00000E-002	9.92122E-004	4	..........a	-327.66
	1004	201	2.99776E-002	1.63828E-010	0.00000E+000	3.00000E-002	9.83722E-004	4	..........a	-327.66
	1005	201.2	3.98094E-002	1.65369E-010	0.00000E+000	4.00000E-002	9.77422E-004	4	..........a	-327.66
	1006	201.4	5.00851E-002	1.65215E-010	0.00000E+000	5.00000E-002	9.69022E-004	4	..........a	-327.66
	1007	201.6	6.01092E-002	1.66589E-010	0.00000E+000	6.00000E-002	9.69322E-004	4	..........a	-327.66
	1008	201.8	6.99550E-002	1.65790E-010	0.00000E+000	7.00000E-002	9.92322E-004	4	..........a	-327.66
	1009	202	7.99986E-002	1.66757E-010	0.00000E+000	8.00000E-002	9.85422E-004	4	..........a	-327.66
	1010	202.2	9.01083E-002	1.67200E-010	0.00000E+000	9.00000E-002	9.64922E-004	4	..........a	-327.66
	1011	202.4	1.00080E-001	1.68982E-010	0.00000E+000	1.00000E-001	9.67422E-004	4	..........a	-327.66
	1012	202.6	1.10077E-001	1.70336E-010	0.00000E+000	1.10000E-001	9.88122E-004	4	..........a	-327.66
	1013	202.8	1.20022E-001	1.72006E-010	0.00000E+000	1.20000E-001	9.74022E-004	4	..........a	-327.66
	1014	203	1.30082E-001	1.72916E-010	0.00000E+000	1.30000E-001	9.70922E-004	4	..........a	-327.66
	1015	203.2	1.40106E-001	1.76075E-010	0.00000E+000	1.40000E-001	9.79622E-004	4	..........a	-327.66
	1016	203.4	1.50015E-001	1.78076E-010	0.00000E+000	1.50000E-001	9.75022E-004	4	..........a	-327.66
	1017	203.6	1.60029E-001	1.82425E-010	0.00000E+000	1.60000E-001	9.75622E-004	4	..........a	-327.66
	1018	203.8	1.70062E-001	1.82715E-010	0.00000E+000	1.70000E-001	9.71122E-004	4	..........a	-327.66
	1019	204	1.80083E-001	1.86871E-010	0.00000E+000	1.80000E-001	9.76522E-004	4	..........a	-327.66
	1020	204.2	1.90056E-001	1.88935E-010	0.00000E+000	1.90000E-001	9.73422E-004	4	..........a	-327.66
	1021	204.4	2.00032E-001	1.93223E-010	0.00000E+000	2.00000E-001	9.58922E-004	4	..........a	-327.66
	1022	204.6	2.10028E-001	1.97250E-010	0.00000E+000	2.10000E-001	9.89022E-004	4	..........a	-327.66
	1023	204.8	2.19662E-001	2.00184E-010	0.00000E+000	2.20000E-001	9.84622E-004	4	..........a	-327.66
	1024	205	2.29985E-001	2.04134E-010	0.00000E+000	2.30000E-001	9.94622E-004	4	..........a	-327.66
	1025	205.2	2.40030E-001	2.07455E-010	0.00000E+000	2.40000E-001	9.88622E-004	4	..........a	-327.66
	1026	205.4	2.50019E-001	2.11458E-010	0.00000E+000	2.50000E-001	9.73822E-004	4	..........a	-327.66
	1027	205.6	2.60047E-001	2.15507E-010	0.00000E+000	2.60000E-001	9.82822E-004	4	..........a	-327.66
	1028	205.8	2.70031E-001	2.18301E-010	0.00000E+000	2.70000E-001	9.84222E-004	4	..........a	-327.66
	1029	206	2.80000E-001	2.20716E-010	0.00000E+000	2.80000E-001	9.94122E-004	4	..........a	-327.66
	1030	206.2	2.90022E-001	2.24467E-010	0.00000E+000	2.90000E-001	9.66122E-004	4	..........a	-327.66
	1031	206.4	2.99997E-001	2.26744E-010	0.00000E+000	3.00000E-001	9.92222E-004	4	..........a	-327.66
	1032	206.6	3.09965E-001	2.29405E-010	0.00000E+000	3.10000E-001	9.95522E-004	4	..........a	-327.66
	1033	206.8	3.19938E-001	2.32655E-010	0.00000E+000	3.20000E-001	1.00842E-003	4	..........a	-327.66
	1034	207	3.30039E-001	2.34793E-010	0.00000E+000	3.30000E-001	9.90722E-004	4	..........a	-327.66
	1035	207.2	3.40022E-001	2.36631E-010	0.00000E+000	3.40000E-001	9.84422E-004	4	..........a	-327.66
	1036	207.4	3.49943E-001	2.38045E-010	0.00000E+000	3.50000E-001	9.92722E-004	4	..........a	-327.66
	1037	207.6	3.59877E-001	2.39922E-010	0.00000E+000	3.60000E-001	9.96022E-004	4	..........a	-327.66
	1038	207.8	3.70010E-001	2.41195E-010	0.00000E+000	3.70000E-001	9.87922E-004	4	..........a	-327.66
	1039	208	3.79983E-001	2.41049E-010	0.00000E+000	3.80000E-001	1.00342E-003	4	..........a	-327.66
	1040	208.2	3.89957E-001	2.42638E-010	0.00000E+000	3.90000E-001	9.90722E-004	4	..........a	-327.66
	1041	208.4	3.99934E-001	2.42539E-010	0.00000E+000	4.00000E-001	9.75822E-004	4	..........a	-327.66
	1042	208.6	4.09953E-001	2.43789E-010	0.00000E+000	4.10000E-001	1.00332E-003	4	..........a	-327.66
	1043	208.8	4.20019E-001	2.43993E-010	0.00000E+000	4.20000E-001	9.84422E-004	4	..........a	-327.66
	1044	209	4.29915E-001	2.43141E-010	0.00000E+000	4.30000E-001	9.91122E-004	4	..........a	-327.66
	1045	209.2	4.39886E-001	2.43533E-010	0.00000E+000	4.40000E-001	9.93222E-004	4	..........a	-327.66
	1046	209.4	4.49954E-001	2.44583E-010	0.00000E+000	4.50000E-001	9.84622E-004	4	..........a	-327.66
	1047	209.6	4.59953E-001	2.44459E-010	0.00000E+000	4.60000E-001	9.71122E-004	4	..........a	-327.66
	1048	209.8	4.69958E-001	2.45647E-010	0.00000E+000	4.70000E-001	9.97022E-004	4	..........a	-327.66
	1049	210	4.79894E-001	2.46292E-010	0.00000E+000	4.80000E-001	9.77122E-004	4	..........a	-327.66
	1050	210.2	4.89980E-001	2.47705E-010	0.00000E+000	4.90000E-001	9.89422E-004	4	..........a	-327.66
	1051	210.4	5.00013E-001	2.48396E-010	0.00000E+000	5.00000E-001	9.90322E-004	4	..........a	-327.66
	1052	210.6	5.09921E-001	2.48704E-010	0.00000E+000	5.10000E-001	1.00902E-003	4	..........a	-327.66
	1053	210.8	5.19883E-001	2.50013E-010	0.00000E+000	5.20000E-001	9.79622E-004	4	..........a	-327.66
	1054	211	5.29974E-001	2.52049E-010	0.00000E+000	5.30000E-001	9.73022E-004	4	..........a	-327.66
	1055	211.2	5.39960E-001	2.52791E-010	0.00000E+000	5.40000E-001	9.85622E-004	4	..........a	-327.66
	1056	211.4	5.49940E-001	2.55839E-010	0.00000E+000	5.50000E-001	9.94822E-004	4	..........a	-327.66
	1057	211.6	5.59924E-001	2.57763E-010	0.00000E+000	5.60000E-001	9.84022E-004	4	..........a	-327.66
	1058	211.8	5.69938E-001	2.60646E-010	0.00000E+000	5.70000E-001	9.75322E-004	4	..........a	-327.66
	1059	212	5.79921E-001	2.62500E-010	0.00000E+000	5.80000E-001	9.82322E-004	4	..........a	-327.66
	1060	212.2	5.89936E-001	2.66222E-010	0.00000E+000	5.90000E-001	9.98322E-004	4	..........a	-327.66
	1061	212.4	5.99942E-001	2.69261E-010	0.00000E+000	6.00000E-001	9.87322E-004	4	..........a	-327.66
	1062	212.6	6.09928E-001	2.72977E-010	0.00000E+000	6.10000E-001	9.72522E-004	4	..........a	-327.66
	1063	212.8	6.19986E-001	2.77309E-010	0.00000E+000	6.20000E-001	9.76322E-004	4	..........a	-327.66
	1064	213	6.29926E-001	2.81896E-010	0.00000E+000	6.30000E-001	9.82822E-004	4	..........a	-327.66
	1065	213.2	6.39920E-001	2.85990E-010	0.00000E+000	6.40000E-001	1.01132E-003	4	..........a	-327.66
	1066	213.4	6.49923E-001	2.92137E-010	0.00000E+000	6.50000E-001	9.70022E-004	4	..........a	-327.66
	1067	213.6	6.59998E-001	2.97410E-010	0.00000E+000	6.60000E-001	9.93122E-004	4	..........a	-327.66
	1068	213.8	6.69886E-001	3.03403E-010	0.00000E+000	6.70000E-001	9.77322E-004	4	..........a	-327.66
	1069	214	6.79987E-001	3.11047E-010	0.00000E+000	6.80000E-001	9.74522E-004	4	..........a	-327.66
	1070	214.2	6.89886E-001	3.18679E-010	0.00000E+000	6.90000E-001	9.91722E-004	4	..........a	-327.66
	1071	214.4	6.99988E-001	3.27658E-010	0.00000E+000	7.00000E-001	9.83722E-004	4	..........a	-327.66
	1072	214.6	7.09869E-001	3.37079E-010	0.00000E+000	7.10000E-001	9.63922E-004	4	..........a	-327.66
	1073	214.8	7.19950E-001	3.47842E-010	0.00000E+000	7.20000E-001	9.94522E-004	4	..........a	-327.66
	1074	215	7.30053E-001	3.60024E-010	0.00000E+000	7.30000E-001	9.87622E-004	4	..........a	-327.66
	1075	215.2	7.39980E-001	3.73940E-010	0.00000E+000	7.40000E-001	9.79722E-004	4	..........a	-327.66
	1076	215.4	7.49927E-001	3.89305E-010	0.00000E+000	7.50000E-001	9.72122E-004	4	..........a	-327.66
	1077	215.6	7.59981E-001	4.06909E-010	0.00000E+000	7.60000E-001	9.84722E-004	4	..........a	-327.66
	1078	215.8	7.69938E-001	4.26382E-010	0.00000E+000	7.70000E-001	9.79422E-004	4	..........a	-327.66
	1079	216	7.79963E-001	4.48731E-010	0.00000E+000	7.80000E-001	9.86222E-004	4	..........a	-327.66
	1080	216.2	7.89949E-001	4.72893E-010	0.00000E+000	7.90000E-001	9.93922E-004	4	..........a	-327.66
	1081	216.4	7.99829E-001	5.01351E-010	0.00000E+000	8.00000E-001	9.81722E-004	4	..........a	-327.66
CURVE5	TABLE
	Pt	T	Vf	Im	Vu	Sig	Ach	IERange	Over	Temp
	#	s	V vs. Ref.	A	V	V	V	#	bits	deg C
	1082	216.6	7.89970E-001	3.61922E-010	0.00000E+000	7.90000E-001	9.94222E-004	4	..........a	-327.66
	1083	216.8	7.79958E-001	2.80421E-010	0.00000E+000	7.80000E-001	9.68422E-004	4	..........a	-327.66
	1084	217	7.69948E-001	2.20220E-010	0.00000E+000	7.70000E-001	9.73322E-004	4	..........a	-327.66
	1085	217.2	7.59911E-001	1.80796E-010	0.00000E+000	7.60000E-001	9.75622E-004	4	..........a	-327.66
	1086	217.4	7.49871E-001	1.52713E-010	0.00000E+000	7.50000E-001	9.70722E-004	4	..........a	-327.66
	1087	217.6	7.39987E-001	1.22035E-010	0.00000E+000	7.40000E-001	1.00092E-003	4	..........a	-327.66
	1088	217.8	7.29997E-001	9.71045E-011	0.00000E+000	7.30000E-001	9.73322E-004	4	..........a	-327.66
	1089	218	7.19945E-001	8.00589E-011	0.00000E+000	7.20000E-001	9.91122E-004	4	..........a	-327.66
	1090	218.2	7.09876E-001	6.35422E-011	0.00000E+000	7.10000E-001	9.89222E-004	4	..........a	-327.66
	1091	218.4	6.99965E-001	5.12538E-011	0.00000E+000	7.00000E-001	9.80922E-004	4	..........a	-327.66
	1092	218.6	6.89918E-001	3.92713E-011	0.00000E+000	6.90000E-001	9.87222E-004	4	..........a	-327.66
	1093	218.8	6.79790E-001	3.11890E-011	0.00000E+000	6.80000E-001	9.55422E-004	4	..........a	-327.66
	1094	219	6.69875E-001	1.87985E-011	0.00000E+000	6.70000E-001	9.80922E-004	4	..........a	-327.66
	1095	219.2	6.60013E-001	1.04092E-011	0.00000E+000	6.60000E-001	9.87522E-004	4	..........a	-327.66
	1096	219.4	6.49901E-001	2.68290E-012	0.00000E+000	6.50000E-001	9.75822E-004	4	..........a	-327.66
	1097	219.6	6.39893E-001	-2.62530E-012	0.00000E+000	6.40000E-001	1.00062E-003	4	..........a	-327.66
	1098	219.8	6.29956E-001	-9.45456E-012	0.00000E+000	6.30000E-001	9.82822E-004	4	..........a	-327.66
	1099	220	6.19981E-001	-1.59038E-011	0.00000E+000	6.20000E-001	9.83222E-004	4	..........a	-327.66
	1100	220.2	6.09993E-001	-2.16740E-011	0.00000E+000	6.10000E-001	9.70222E-004	4	..........a	-327.66
	1101	220.4	5.99954E-001	-2.77253E-011	0.00000E+000	6.00000E-001	9.77822E-004	4	..........a	-327.66
	1102	220.6	5.89929E-001	-3.28595E-011	0.00000E+000	5.90000E-001	9.86022E-004	4	..........a	-327.66
	1103	220.8	5.80028E-001	-3.72596E-011	0.00000E+000	5.80000E-001	9.87022E-004	4	..........a	-327.66
	1104	221	5.69979E-001	-4.07288E-011	0.00000E+000	5.70000E-001	9.83822E-004	4	..........a	-327.66
	1105	221.2	5.59999E-001	-4.47679E-011	0.00000E+000	5.60000E-001	9.85622E-004	4	..........a	-327.66
	1106	221.4	5.49946E-001	-4.95021E-011	0.00000E+000	5.50000E-001	9.84422E-004	4	..........a	-327.66
	1107	221.6	5.40023E-001	-5.29232E-011	0.00000E+000	5.40000E-001	9.77122E-004	4	..........a	-327.66
	1108	221.8	5.30005E-001	-5.68314E-011	0.00000E+000	5.30000E-001	9.70022E-004	4	..........a	-327.66
	1109	222	5.19964E-001	-6.07825E-011	0.00000E+000	5.20000E-001	9.79422E-004	4	..........a	-327.66
	1110	222.2	5.09921E-001	-6.48397E-011	0.00000E+000	5.10000E-001	9.64822E-004	4	..........a	-327.66
	1111	222.4	5.00050E-001	-6.88108E-011	0.00000E+000	5.00000E-001	9.87622E-004	4	..........a	-327.66
	1112	222.6	4.89990E-001	-7.17510E-011	0.00000E+000	4.90000E-001	9.75522E-004	4	..........a	-327.66
	1113	222.8	4.79920E-001	-7.56961E-011	0.00000E+000	4.80000E-001	9.71522E-004	4	..........a	-327.66
	1114	223	4.69941E-001	-7.94012E-011	0.00000E+000	4.70000E-001	9.79522E-004	4	..........a	-327.66
	1115	223.2	4.60016E-001	-8.30864E-011	0.00000E+000	4.60000E-001	9.86622E-004	4	..........a	-327.66
	1116	223.4	4.50022E-001	-8.67225E-011	0.00000E+000	4.50000E-001	9.75522E-004	4	..........a	-327.66
	1117	223.6	4.39978E-001	-9.04167E-011	0.00000E+000	4.40000E-001	9.88522E-004	4	..........a	-327.66
	1118	223.8	4.29938E-001	-9.38368E-011	0.00000E+000	4.30000E-001	9.89022E-004	4	..........a	-327.66
	1119	224	4.20027E-001	-9.74669E-011	0.00000E+000	4.20000E-001	9.96322E-004	4	..........a	-327.66
	1120	224.2	4.09947E-001	-1.01105E-010	0.00000E+000	4.10000E-001	9.77722E-004	4	..........a	-327.66