File: data/raw/batch_data/20240321_T_GM0016_HL03_E05_CV50k.DTA
EXPLAIN
TAG	CV
TITLE	LABEL	Cyclic Voltammetry	Test &Identifier
DATE	LABEL	3/21/2024	Date
TIME	LABEL	17:31:34	Time
NOTES	NOTES	1	&Notes...

PSTAT	PSTAT	REF600P-43058	Potentiostat
VINIT	POTEN	0.00000E+000	T	Initial &E (V)
VLIMIT1	POTEN	-6.00000E-001	F	Scan Limit &1 (V)
VLIMIT2	POTEN	8.00000E-001	F	Scan Limit &2 (V)
VFINAL	POTEN	0.00000E+000	T	Final &E (V)
SCANRATE	QUANT	4.99999E+004	&Scan Rate (mV/s)
STEPSIZE	QUANT	1.00000E+001	St&ep Size (mV)
CYCLES	IQUANT	10	C&ycles (#)
IMODE	SELECTOR	1	I/E Range &Mode
IRANGE	QUANT	1.00000E-005	&Max Current (mA)
AREA	QUANT	1.00000E+000	Electrode &Area (cm^2)
ELECTRODETYPE	SELECTOR	0	Electrode Type
STRIPPING	TOGGLE	F	Used for Stripping
POLARITY	TOGGLE	F	Signal Polarity
CONDIT	TWOPARAM	F	1.50000E+001	0.00000E+000	Conditionin&g	Time(s)	E(V)
DELAY	TWOPARAM	T	1.00000E+001	0.00000E+000	Init. De&lay	Time(s)	Stab.(mV/s)
EQDELAY	QUANT	1.00000E+001	Equil. &Time (s)
IRCOMP	SELECTOR	0	IRCom&p
PFCOR	QUANT	5.00000E+001	PF Corr. (ohm)
SAMPLINGMODE	SELECTOR	1	Sampling &Mode
OCVCURVE	TABLE	39
	Pt	T	Vf	Vm	Ach	Over	Temp
	#	s	V vs. Ref.	V	V	bits	deg C
	0	0.258333	3.98101E-001	3.98101E-001	2.23822E-004	..........a	-327.66
	1	0.516667	3.98104E-001	3.98262E-001	2.27156E-004	..........a	-327.66
	2	0.775	3.98122E-001	3.98323E-001	2.31156E-004	..........a	-327.66
	3	1.03333	3.98164E-001	3.98367E-001	2.19556E-004	..........a	-327.66
	4	1.29167	3.98228E-001	3.98472E-001	2.18889E-004	..........a	-327.66
	5	1.55	3.98308E-001	3.98810E-001	2.26956E-004	..........a	-327.66
	6	1.80833	3.98416E-001	3.99170E-001	2.44222E-004	..........a	-327.66
	7	2.06667	3.98583E-001	3.99341E-001	2.40489E-004	..........a	-327.66
	8	2.325	3.98808E-001	3.99427E-001	2.32156E-004	..........a	-327.66
	9	2.58333	3.99046E-001	3.99545E-001	2.28556E-004	..........a	-327.66
	10	2.84167	3.99254E-001	3.99727E-001	2.27022E-004	..........a	-327.66
	11	3.1	3.99422E-001	3.99904E-001	2.29222E-004	..........a	-327.66
	12	3.35833	3.99572E-001	4.00059E-001	2.44022E-004	..........a	-327.66
	13	3.61667	3.99724E-001	4.00184E-001	2.44222E-004	..........a	-327.66
	14	3.875	3.99879E-001	4.00322E-001	2.26622E-004	..........a	-327.66
	15	4.13333	4.00033E-001	4.00628E-001	2.43956E-004	..........a	-327.66
	16	4.39167	4.00194E-001	4.00798E-001	2.41622E-004	..........a	-327.66
	17	4.65	4.00371E-001	4.00810E-001	2.38756E-004	..........a	-327.66
	18	4.90833	4.00549E-001	4.00912E-001	2.32489E-004	..........a	-327.66
	19	5.16667	4.00702E-001	4.01075E-001	2.26222E-004	..........a	-327.66
	20	5.425	4.00827E-001	4.01213E-001	2.33022E-004	..........a	-327.66
	21	5.68333	4.00944E-001	4.01389E-001	2.33822E-004	..........a	-327.66
	22	5.94167	4.01073E-001	4.01550E-001	2.45089E-004	..........a	-327.66
	23	6.2	4.01217E-001	4.01709E-001	2.34889E-004	..........a	-327.66
	24	6.45833	4.01372E-001	4.01852E-001	2.29956E-004	..........a	-327.66
	25	6.71667	4.01531E-001	4.01994E-001	2.30489E-004	..........a	-327.66
	26	6.975	4.01690E-001	4.02274E-001	2.38889E-004	..........a	-327.66
	27	7.23333	4.01854E-001	4.02421E-001	2.45622E-004	..........a	-327.66
	28	7.49167	4.02028E-001	4.02475E-001	2.39156E-004	..........a	-327.66
	29	7.75	4.02201E-001	4.02587E-001	2.38889E-004	..........a	-327.66
	30	8.00833	4.02353E-001	4.02722E-001	2.27089E-004	..........a	-327.66
	31	8.26667	4.02481E-001	4.02859E-001	2.27556E-004	..........a	-327.66
	32	8.525	4.02600E-001	4.03063E-001	2.35622E-004	..........a	-327.66
	33	8.78333	4.02729E-001	4.03210E-001	2.33689E-004	..........a	-327.66
	34	9.04167	4.02874E-001	4.03365E-001	2.40956E-004	..........a	-327.66
	35	9.3	4.03031E-001	4.03496E-001	2.28956E-004	..........a	-327.66
	36	9.5583	4.03191E-001	4.03723E-001	2.30889E-004	..........a	-327.66
	37	9.8167	4.03353E-001	4.03969E-001	2.30622E-004	..........a	-327.66
	38	10.075	4.03526E-001	4.04031E-001	2.40356E-004	..........a	-327.66
EOC	QUANT	0.4035264	Open Circuit (V)
PSTATMODEL	IQUANT	7	Pstat Model
PSTATSECTION	LABEL	REF600P-43058	Pstat Section
PSTATSERIALNO	LABEL	43058	Pstat Serial Number
CTRLMODE	IQUANT	1	Control Mode
ELECTROMETER	IQUANT	0	RE=0 or CS=1
IESTAB	IQUANT	2	I/E Stability
CASPEED	IQUANT	4	Control Amp Speed
CONVENTION	IQUANT	1	Current Convention
ICHRANGE	IQUANT	2	Ich Range
ICHRANGEMODE	TOGGLE	F	Ich Auto Range
ICHOFFSETENABLE	TOGGLE	F	Ich Offset Enable
ICHOFFSET	QUANT	0	Ich Offset (V)
ICHFILTER	IQUANT	1	Ich Filter
VCHRANGE	IQUANT	2	Vch Range
VCHRANGEMODE	TOGGLE	F	Vch Auto Range
VCHOFFSETENABLE	TOGGLE	F	Vch Offset Enable
VCHOFFSET	QUANT	0	Vch Offset (V)
VCHFILTER	IQUANT	1	Vch Filter
ACHRANGE	IQUANT	2	Ach Range
ACHOFFSETENABLE	TOGGLE	F	Ach Offset Enable
ACHOFFSET	QUANT	0	Ach Offset (V)
ACHFILTER	IQUANT	1	Ach Filter
IERANGELOWERLIMIT	IQUANT	1	I/E Range Lower Limit
IERANGEMODE	TOGGLE	F	I/E AutoRange
IERANGE	IQUANT	4	I/E Range
POSFEEDENABLE	TOGGLE	F	Positive Feedback IR Comp
POSFEEDRESISTANCE	QUANT	0	Positive Feedback Resistance (ohm)
ACHSELECT	IQUANT	4	Ach Select
SENSECABLEID	IQUANT	7	Sense Cable ID
PWRCABLEID	IQUANT	7	Power Cable ID
DCCALDATE	LABEL	12/18/2023	DC Calibration Date
ACCALDATE	LABEL	12/18/2023	AC Calibration Date
THERMOSELECT	IQUANT	1	Thermo Select
FRAMEWORKVERSION	LABEL	7.8.4	Framework Version
INSTRUMENTVERSION	LABEL	4.42	Instrument Version
CURVE1	TABLE
	Pt	T	Vf	Im	Vu	Sig	Ach	IERange	Over	Temp
	#	s	V vs. Ref.	A	V	V	V	#	bits	deg C
	0	0.0002	4.03570E-001	2.27885E-011	0.00000E+000	4.03550E-001	8.00223E-005	4	..........a	-327.66
	1	0.0004	3.93370E-001	-1.12128E-011	0.00000E+000	3.93550E-001	8.00223E-005	4	..........a	-327.66
	2	0.0006	3.83570E-001	-4.62141E-011	0.00000E+000	3.83550E-001	8.00223E-005	4	..........a	-327.66
	3	0.0008	3.73470E-001	-8.42156E-011	0.00000E+000	3.73550E-001	8.00223E-005	4	..........a	-327.66
	4	0.001	3.63570E-001	-1.27217E-010	0.00000E+000	3.63550E-001	8.00223E-005	4	..........a	-327.66
	5	0.0012	3.53470E-001	-1.66219E-010	0.00000E+000	3.53550E-001	8.00223E-005	4	..........a	-327.66
	6	0.0014	3.43570E-001	-2.07220E-010	0.00000E+000	3.43550E-001	-4.19978E-004	4	..........a	-327.66
	7	0.0016	3.33570E-001	-2.55222E-010	0.00000E+000	3.33550E-001	8.00223E-005	4	..........a	-327.66
	8	0.0018	3.23570E-001	-2.96224E-010	0.00000E+000	3.23550E-001	8.00223E-005	4	..........a	-327.66
	9	0.002	3.13570E-001	-3.46226E-010	0.00000E+000	3.13550E-001	8.00223E-005	4	..........a	-327.66
	10	0.0022	3.03570E-001	-3.99228E-010	0.00000E+000	3.03550E-001	8.00223E-005	4	..........a	-327.66
	11	0.0024	2.93670E-001	-4.48230E-010	0.00000E+000	2.93550E-001	8.00223E-005	4	..........a	-327.66
	12	0.0026	2.83670E-001	-5.00232E-010	0.00000E+000	2.83550E-001	8.00223E-005	4	..........a	-327.66
	13	0.0028	2.73470E-001	-5.52234E-010	0.00000E+000	2.73550E-001	8.00223E-005	4	..........a	-327.66
	14	0.003	2.63670E-001	-6.10236E-010	0.00000E+000	2.63550E-001	8.00223E-005	4	..........a	-327.66
	15	0.0032	2.53570E-001	-6.64238E-010	0.00000E+000	2.53550E-001	8.00223E-005	4	..........a	-327.66
	16	0.0034	2.43670E-001	-7.25240E-010	0.00000E+000	2.43550E-001	8.00223E-005	4	..........a	-327.66
	17	0.0036	2.33420E-001	-7.87243E-010	0.00000E+000	2.33550E-001	-2.19978E-004	4	..........a	-327.66
	18	0.0038	2.23570E-001	-8.45245E-010	0.00000E+000	2.23550E-001	8.00223E-005	4	..........a	-327.66
	19	0.004	2.13570E-001	-9.10247E-010	0.00000E+000	2.13550E-001	8.00223E-005	4	..........a	-327.66
	20	0.0042	2.03570E-001	-9.78250E-010	0.00000E+000	2.03550E-001	8.00223E-005	4	..........a	-327.66
	21	0.0044	1.93770E-001	-1.04725E-009	0.00000E+000	1.93550E-001	8.00223E-005	4	..........a	-327.66
	22	0.0046	1.83570E-001	-1.11926E-009	0.00000E+000	1.83550E-001	8.00223E-005	4	..........a	-327.66
	23	0.0048	1.73670E-001	-1.18826E-009	0.00000E+000	1.73550E-001	8.00223E-005	4	..........a	-327.66
	24	0.005	1.63670E-001	-1.26726E-009	0.00000E+000	1.63550E-001	8.00223E-005	4	..........a	-327.66
	25	0.0052	1.53670E-001	-1.34826E-009	0.00000E+000	1.53550E-001	8.00223E-005	4	..........a	-327.66
	26	0.0054	1.43570E-001	-1.42827E-009	0.00000E+000	1.43550E-001	8.00223E-005	4	..........a	-327.66
	27	0.0056	1.33670E-001	-1.51027E-009	0.00000E+000	1.33550E-001	8.00223E-005	4	..........a	-327.66
	28	0.0058	1.23670E-001	-1.59527E-009	0.00000E+000	1.23550E-001	8.00223E-005	4	..........a	-327.66
	29	0.006	1.13670E-001	-1.68328E-009	0.00000E+000	1.13550E-001	8.00223E-005	4	..........a	-327.66
	30	0.0062	1.03570E-001	-1.77728E-009	0.00000E+000	1.03550E-001	8.00223E-005	4	..........a	-327.66
	31	0.0064	9.36695E-002	-1.87228E-009	0.00000E+000	9.35500E-002	-3.19978E-004	4	..........a	-327.66
	32	0.0066	8.35695E-002	-1.97229E-009	0.00000E+000	8.35500E-002	8.00223E-005	4	..........a	-327.66
	33	0.0068	7.34695E-002	-2.06829E-009	0.00000E+000	7.35500E-002	8.00223E-005	4	..........a	-327.66
	34	0.007	6.36695E-002	-2.17430E-009	0.00000E+000	6.35500E-002	8.00223E-005	4	..........a	-327.66
	35	0.0072	5.36695E-002	-2.27730E-009	0.00000E+000	5.35500E-002	8.00223E-005	4	..........a	-327.66
	36	0.0074	4.36695E-002	-2.38630E-009	0.00000E+000	4.35500E-002	8.00223E-005	4	..........a	-327.66
	37	0.0076	3.35695E-002	-2.50331E-009	0.00000E+000	3.35500E-002	8.00223E-005	4	..........a	-327.66
	38	0.0078	2.34695E-002	-2.61431E-009	0.00000E+000	2.35500E-002	8.00223E-005	4	..........a	-327.66
	39	0.008	1.36695E-002	-2.73232E-009	0.00000E+000	1.35500E-002	8.00223E-005	4	..........a	-327.66
	40	0.0082	3.66952E-003	-2.85532E-009	0.00000E+000	3.55000E-003	8.00223E-005	4	..........a	-327.66
	41	0.0084	-6.33048E-003	-2.97833E-009	0.00000E+000	-6.45000E-003	8.00223E-005	4	..........a	-327.66
	42	0.0086	-1.63805E-002	-3.10033E-009	0.00000E+000	-1.64500E-002	8.00223E-005	4	..........a	-327.66
	43	0.0088	-2.63305E-002	-3.22834E-009	0.00000E+000	-2.64500E-002	8.00223E-005	4	..........a	-327.66
	44	0.009	-3.67305E-002	-3.36534E-009	0.00000E+000	-3.64500E-002	8.00223E-005	4	..........a	-327.66
	45	0.0092	-4.63305E-002	-3.49835E-009	0.00000E+000	-4.64500E-002	8.00223E-005	4	..........a	-327.66
	46	0.0094	-5.63305E-002	-3.63035E-009	0.00000E+000	-5.64500E-002	8.00223E-005	4	..........a	-327.66
	47	0.0096	-6.64305E-002	-3.76836E-009	0.00000E+000	-6.64500E-002	8.00223E-005	4	..........a	-327.66
	48	0.0098	-7.64305E-002	-3.90736E-009	0.00000E+000	-7.64500E-002	8.00223E-005	4	..........a	-327.66
	49	0.01	-8.62305E-002	-4.04837E-009	0.00000E+000	-8.64500E-002	8.00223E-005	4	..........a	-327.66
	50	0.0102	-9.63305E-002	-4.19637E-009	0.00000E+000	-9.64500E-002	8.00223E-005	4	..........a	-327.66
	51	0.0104	-1.06430E-001	-4.33638E-009	0.00000E+000	-1.06450E-001	8.00223E-005	4	..........a	-327.66
	52	0.0106	-1.16330E-001	-4.48438E-009	0.00000E+000	-1.16450E-001	8.00223E-005	4	..........a	-327.66
	53	0.0108	-1.26330E-001	-4.63739E-009	0.00000E+000	-1.26450E-001	8.00223E-005	4	..........a	-327.66
	54	0.011	-1.36230E-001	-4.78340E-009	0.00000E+000	-1.36450E-001	8.00223E-005	4	..........a	-327.66
	55	0.0112	-1.46330E-001	-4.93240E-009	0.00000E+000	-1.46450E-001	8.00223E-005	4	..........a	-327.66
	56	0.0114	-1.56230E-001	-5.08441E-009	0.00000E+000	-1.56450E-001	8.00223E-005	4	..........a	-327.66
	57	0.0116	-1.66430E-001	-5.23641E-009	0.00000E+000	-1.66450E-001	8.00223E-005	4	..........a	-327.66
	58	0.0118	-1.76330E-001	-5.39142E-009	0.00000E+000	-1.76450E-001	8.00223E-005	4	..........a	-327.66
	59	0.012	-1.86530E-001	-5.54243E-009	0.00000E+000	-1.86450E-001	8.00223E-005	4	..........a	-327.66
	60	0.0122	-1.96430E-001	-5.69843E-009	0.00000E+000	-1.96450E-001	8.00223E-005	4	..........a	-327.66
	61	0.0124	-2.06230E-001	-5.85344E-009	0.00000E+000	-2.06450E-001	8.00223E-005	4	..........a	-327.66
	62	0.0126	-2.16330E-001	-6.01044E-009	0.00000E+000	-2.16450E-001	8.00223E-005	4	..........a	-327.66
	63	0.0128	-2.26230E-001	-6.16645E-009	0.00000E+000	-2.26450E-001	8.00223E-005	4	..........a	-327.66
	64	0.013	-2.36430E-001	-6.32246E-009	0.00000E+000	-2.36450E-001	8.00223E-005	4	..........a	-327.66
	65	0.0132	-2.46330E-001	-6.47446E-009	0.00000E+000	-2.46450E-001	8.00223E-005	4	..........a	-327.66
	66	0.0134	-2.56430E-001	-6.63047E-009	0.00000E+000	-2.56450E-001	8.00223E-005	4	..........a	-327.66
	67	0.0136	-2.66230E-001	-6.78347E-009	0.00000E+000	-2.66450E-001	8.00223E-005	4	..........a	-327.66
	68	0.0138	-2.76330E-001	-6.94348E-009	0.00000E+000	-2.76450E-001	8.00223E-005	4	..........a	-327.66
	69	0.014	-2.86230E-001	-7.10049E-009	0.00000E+000	-2.86450E-001	8.00223E-005	4	..........a	-327.66
	70	0.0142	-2.96330E-001	-7.25649E-009	0.00000E+000	-2.96450E-001	8.00223E-005	4	..........a	-327.66
	71	0.0144	-3.06430E-001	-7.40950E-009	0.00000E+000	-3.06450E-001	8.00223E-005	4	..........a	-327.66
	72	0.0146	-3.16330E-001	-7.56450E-009	0.00000E+000	-3.16450E-001	8.00223E-005	4	..........a	-327.66
	73	0.0148	-3.26230E-001	-7.71751E-009	0.00000E+000	-3.26450E-001	8.00223E-005	4	..........a	-327.66
	74	0.015	-3.36330E-001	-7.87751E-009	0.00000E+000	-3.36450E-001	8.00223E-005	4	..........a	-327.66
	75	0.0152	-3.46330E-001	-8.02652E-009	0.00000E+000	-3.46450E-001	8.00223E-005	4	..........a	-327.66
	76	0.0154	-3.56330E-001	-8.18053E-009	0.00000E+000	-3.56450E-001	8.00223E-005	4	..........a	-327.66
	77	0.0156	-3.66230E-001	-8.33353E-009	0.00000E+000	-3.66450E-001	8.00223E-005	4	..........a	-327.66
	78	0.0158	-3.76330E-001	-8.49254E-009	0.00000E+000	-3.76450E-001	8.00223E-005	4	..........a	-327.66
	79	0.016	-3.86230E-001	-8.64454E-009	0.00000E+000	-3.86450E-001	8.00223E-005	4	..........a	-327.66
	80	0.0162	-3.96330E-001	-8.79355E-009	0.00000E+000	-3.96450E-001	8.00223E-005	4	..........a	-327.66
	81	0.0164	-4.06330E-001	-8.94656E-009	0.00000E+000	-4.06450E-001	8.00223E-005	4	..........a	-327.66
	82	0.0166	-4.16330E-001	-9.09556E-009	0.00000E+000	-4.16450E-001	8.00223E-005	4	..........a	-327.66
	83	0.0168	-4.26330E-001	-9.24957E-009	0.00000E+000	-4.26450E-001	8.00223E-005	4	..........a	-327.66
	84	0.017	-4.36330E-001	-9.39857E-009	0.00000E+000	-4.36450E-001	8.00223E-005	4	..........a	-327.66
	85	0.0172	-4.46330E-001	-9.55058E-009	0.00000E+000	-4.46450E-001	8.00223E-005	4	..........a	-327.66
	86	0.0174	-4.56330E-001	-9.70359E-009	0.00000E+000	-4.56450E-001	8.00223E-005	4	..........a	-327.66
	87	0.0176	-4.66130E-001	-9.85159E-009	0.00000E+000	-4.66450E-001	8.00223E-005	4	..........a	-327.66
	88	0.0178	-4.76330E-001	-1.00046E-008	0.00000E+000	-4.76450E-001	8.00223E-005	4	..........a	-327.66
	89	0.018	-4.86230E-001	-1.01546E-008	0.00000E+000	-4.86450E-001	8.00223E-005	4	..........a	-327.66
	90	0.0182	-4.96330E-001	-1.03046E-008	0.00000E+000	-4.96450E-001	8.00223E-005	4	..........a	-327.66
	91	0.0184	-5.06230E-001	-1.04586E-008	0.00000E+000	-5.06450E-001	8.00223E-005	4	..........a	-327.66
	92	0.0186	-5.16330E-001	-1.06126E-008	0.00000E+000	-5.16450E-001	8.00223E-005	4	..........a	-327.66
	93	0.0188	-5.26330E-001	-1.07666E-008	0.00000E+000	-5.26450E-001	8.00223E-005	4	..........a	-327.66
	94	0.019	-5.36330E-001	-1.09206E-008	0.00000E+000	-5.36450E-001	8.00223E-005	4	..........a	-327.66
	95	0.0192	-5.46230E-001	-1.10826E-008	0.00000E+000	-5.46450E-001	8.00223E-005	4	..........a	-327.66
	96	0.0194	-5.56331E-001	-1.12386E-008	0.00000E+000	-5.56450E-001	8.00223E-005	4	..........a	-327.66
	97	0.0196	-5.66330E-001	-1.13976E-008	0.00000E+000	-5.66450E-001	8.00223E-005	4	..........a	-327.66
	98	0.0198	-5.76330E-001	-1.15587E-008	0.00000E+000	-5.76450E-001	8.00223E-005	4	..........a	-327.66
	99	0.02	-5.86330E-001	-1.17237E-008	0.00000E+000	-5.86450E-001	8.00223E-005	4	..........a	-327.66
	100	0.0202	-5.96530E-001	-1.18877E-008	0.00000E+000	-5.96450E-001	8.00223E-005	4	..........a	-327.66
	101	0.0204	-5.86230E-001	-1.19407E-008	0.00000E+000	-5.86450E-001	-3.19978E-004	4	..........a	-327.66
	102	0.0206	-5.76330E-001	-1.19717E-008	0.00000E+000	-5.76450E-001	8.00223E-005	4	..........a	-327.66
	103	0.0208	-5.66230E-001	-1.19837E-008	0.00000E+000	-5.66450E-001	-2.19978E-004	4	..........a	-327.66
	104	0.021	-5.56430E-001	-1.19837E-008	0.00000E+000	-5.56450E-001	8.00223E-005	4	..........a	-327.66
	105	0.0212	-5.46230E-001	-1.19747E-008	0.00000E+000	-5.46450E-001	8.00223E-005	4	..........a	-327.66
	106	0.0214	-5.36330E-001	-1.19547E-008	0.00000E+000	-5.36450E-001	-3.19978E-004	4	..........a	-327.66
	107	0.0216	-5.26130E-001	-1.19327E-008	0.00000E+000	-5.26450E-001	8.00223E-005	4	..........a	-327.66
	108	0.0218	-5.16330E-001	-1.19017E-008	0.00000E+000	-5.16450E-001	8.00223E-005	4	..........a	-327.66
	109	0.022	-5.06280E-001	-1.18657E-008	0.00000E+000	-5.06450E-001	8.00223E-005	4	..........a	-327.66
	110	0.0222	-4.96330E-001	-1.18287E-008	0.00000E+000	-4.96450E-001	8.00223E-005	4	..........a	-327.66
	111	0.0224	-4.86330E-001	-1.17847E-008	0.00000E+000	-4.86450E-001	8.00223E-005	4	..........a	-327.66
	112	0.0226	-4.76330E-001	-1.17397E-008	0.00000E+000	-4.76450E-001	8.00223E-005	4	..........a	-327.66
	113	0.0228	-4.65930E-001	-1.16877E-008	0.00000E+000	-4.66450E-001	8.00223E-005	4	..........a	-327.66
	114	0.023	-4.56430E-001	-1.16377E-008	0.00000E+000	-4.56450E-001	8.00223E-005	4	..........a	-327.66
	115	0.0232	-4.46430E-001	-1.15817E-008	0.00000E+000	-4.46450E-001	8.00223E-005	4	..........a	-327.66
	116	0.0234	-4.36430E-001	-1.15277E-008	0.00000E+000	-4.36450E-001	8.00223E-005	4	..........a	-327.66
	117	0.0236	-4.26230E-001	-1.14647E-008	0.00000E+000	-4.26450E-001	8.00223E-005	4	..........a	-327.66
	118	0.0238	-4.16430E-001	-1.14077E-008	0.00000E+000	-4.16450E-001	8.00223E-005	4	..........a	-327.66
	119	0.024	-4.06230E-001	-1.13446E-008	0.00000E+000	-4.06450E-001	8.00223E-005	4	..........a	-327.66
	120	0.0242	-3.96430E-001	-1.12796E-008	0.00000E+000	-3.96450E-001	8.00223E-005	4	..........a	-327.66
	121	0.0244	-3.86130E-001	-1.12116E-008	0.00000E+000	-3.86450E-001	8.00223E-005	4	..........a	-327.66
	122	0.0246	-3.76330E-001	-1.11486E-008	0.00000E+000	-3.76450E-001	8.00223E-005	4	..........a	-327.66
	123	0.0248	-3.66330E-001	-1.10786E-008	0.00000E+000	-3.66450E-001	8.00223E-005	4	..........a	-327.66
	124	0.025	-3.56330E-001	-1.10096E-008	0.00000E+000	-3.56450E-001	8.00223E-005	4	..........a	-327.66
	125	0.0252	-3.46230E-001	-1.09396E-008	0.00000E+000	-3.46450E-001	8.00223E-005	4	..........a	-327.66
	126	0.0254	-3.36430E-001	-1.08656E-008	0.00000E+000	-3.36450E-001	8.00223E-005	4	..........a	-327.66
	127	0.0256	-3.26330E-001	-1.07926E-008	0.00000E+000	-3.26450E-001	8.00223E-005	4	..........a	-327.66
	128	0.0258	-3.16230E-001	-1.07206E-008	0.00000E+000	-3.16450E-001	8.00223E-005	4	..........a	-327.66
	129	0.026	-3.06230E-001	-1.06476E-008	0.00000E+000	-3.06450E-001	8.00223E-005	4	..........a	-327.66
	130	0.0262	-2.96330E-001	-1.05746E-008	0.00000E+000	-2.96450E-001	8.00223E-005	4	..........a	-327.66
	131	0.0264	-2.86580E-001	-1.05006E-008	0.00000E+000	-2.86450E-001	-1.19978E-004	4	..........a	-327.66
	132	0.0266	-2.76330E-001	-1.04176E-008	0.00000E+000	-2.76450E-001	8.00223E-005	4	..........a	-327.66
	133	0.0268	-2.66230E-001	-1.03416E-008	0.00000E+000	-2.66450E-001	8.00223E-005	4	..........a	-327.66
	134	0.027	-2.56330E-001	-1.02666E-008	0.00000E+000	-2.56450E-001	8.00223E-005	4	..........a	-327.66
	135	0.0272	-2.46330E-001	-1.01866E-008	0.00000E+000	-2.46450E-001	8.00223E-005	4	..........a	-327.66
	136	0.0274	-2.36330E-001	-1.01076E-008	0.00000E+000	-2.36450E-001	8.00223E-005	4	..........a	-327.66
	137	0.0276	-2.26330E-001	-1.00266E-008	0.00000E+000	-2.26450E-001	8.00223E-005	4	..........a	-327.66
	138	0.0278	-2.16330E-001	-9.94559E-009	0.00000E+000	-2.16450E-001	8.00223E-005	4	..........a	-327.66
	139	0.028	-2.06430E-001	-9.86659E-009	0.00000E+000	-2.06450E-001	8.00223E-005	4	..........a	-327.66
	140	0.0282	-1.96330E-001	-9.78359E-009	0.00000E+000	-1.96450E-001	8.00223E-005	4	..........a	-327.66
	141	0.0284	-1.86130E-001	-9.69859E-009	0.00000E+000	-1.86450E-001	8.00223E-005	4	..........a	-327.66
	142	0.0286	-1.76480E-001	-9.61758E-009	0.00000E+000	-1.76450E-001	-3.19978E-004	4	..........a	-327.66
	143	0.0288	-1.66330E-001	-9.53858E-009	0.00000E+000	-1.66450E-001	8.00223E-005	4	..........a	-327.66
	144	0.029	-1.56430E-001	-9.45158E-009	0.00000E+000	-1.56450E-001	8.00223E-005	4	..........a	-327.66
	145	0.0292	-1.46330E-001	-9.36457E-009	0.00000E+000	-1.46450E-001	8.00223E-005	4	..........a	-327.66
	146	0.0294	-1.36330E-001	-9.28257E-009	0.00000E+000	-1.36450E-001	8.00223E-005	4	..........a	-327.66
	147	0.0296	-1.26230E-001	-9.19457E-009	0.00000E+000	-1.26450E-001	8.00223E-005	4	..........a	-327.66
	148	0.0298	-1.16230E-001	-9.10956E-009	0.00000E+000	-1.16450E-001	8.00223E-005	4	..........a	-327.66
	149	0.03	-1.06330E-001	-9.02256E-009	0.00000E+000	-1.06450E-001	8.00223E-005	4	..........a	-327.66
	150	0.0302	-9.64305E-002	-8.93656E-009	0.00000E+000	-9.64500E-002	8.00223E-005	4	..........a	-327.66
	151	0.0304	-8.65305E-002	-8.84655E-009	0.00000E+000	-8.64500E-002	8.00223E-005	4	..........a	-327.66
	152	0.0306	-7.63305E-002	-8.75755E-009	0.00000E+000	-7.64500E-002	-3.19978E-004	4	..........a	-327.66
	153	0.0308	-6.63805E-002	-8.67055E-009	0.00000E+000	-6.64500E-002	8.00223E-005	4	..........a	-327.66
	154	0.031	-5.63305E-002	-8.57954E-009	0.00000E+000	-5.64500E-002	8.00223E-005	4	..........a	-327.66
	155	0.0312	-4.65305E-002	-8.49154E-009	0.00000E+000	-4.64500E-002	8.00223E-005	4	..........a	-327.66
	156	0.0314	-3.63305E-002	-8.40254E-009	0.00000E+000	-3.64500E-002	-3.19978E-004	4	..........a	-327.66
	157	0.0316	-2.63305E-002	-8.31153E-009	0.00000E+000	-2.64500E-002	8.00223E-005	4	..........a	-327.66
	158	0.0318	-1.63305E-002	-8.22053E-009	0.00000E+000	-1.64500E-002	8.00223E-005	4	..........a	-327.66
	159	0.032	-6.33048E-003	-8.12852E-009	0.00000E+000	-6.45000E-003	8.00223E-005	4	..........a	-327.66
	160	0.0322	3.66952E-003	-8.03652E-009	0.00000E+000	3.55000E-003	8.00223E-005	4	..........a	-327.66
	161	0.0324	1.35695E-002	-7.94052E-009	0.00000E+000	1.35500E-002	8.00223E-005	4	..........a	-327.66
	162	0.0326	2.36695E-002	-7.84951E-009	0.00000E+000	2.35500E-002	8.00223E-005	4	..........a	-327.66
	163	0.0328	3.34695E-002	-7.75851E-009	0.00000E+000	3.35500E-002	8.00223E-005	4	..........a	-327.66
	164	0.033	4.36695E-002	-7.66151E-009	0.00000E+000	4.35500E-002	8.00223E-005	4	..........a	-327.66
	165	0.0332	5.37695E-002	-7.56250E-009	0.00000E+000	5.35500E-002	8.00223E-005	4	..........a	-327.66
	166	0.0334	6.36695E-002	-7.46350E-009	0.00000E+000	6.35500E-002	-3.19978E-004	4	..........a	-327.66
	167	0.0336	7.36695E-002	-7.37150E-009	0.00000E+000	7.35500E-002	8.00223E-005	4	..........a	-327.66
	168	0.0338	8.36695E-002	-7.27149E-009	0.00000E+000	8.35500E-002	-2.19978E-004	4	..........a	-327.66
	169	0.034	9.37695E-002	-7.17449E-009	0.00000E+000	9.35500E-002	8.00223E-005	4	..........a	-327.66
	170	0.0342	1.03770E-001	-7.07648E-009	0.00000E+000	1.03550E-001	-3.19978E-004	4	..........a	-327.66
	171	0.0344	1.13670E-001	-6.97248E-009	0.00000E+000	1.13550E-001	-3.19978E-004	4	..........a	-327.66
	172	0.0346	1.23420E-001	-6.87548E-009	0.00000E+000	1.23550E-001	8.00223E-005	4	..........a	-327.66
	173	0.0348	1.33570E-001	-6.77247E-009	0.00000E+000	1.33550E-001	8.00223E-005	4	..........a	-327.66
	174	0.035	1.43670E-001	-6.67147E-009	0.00000E+000	1.43550E-001	8.00223E-005	4	..........a	-327.66
	175	0.0352	1.53570E-001	-6.56746E-009	0.00000E+000	1.53550E-001	8.00223E-005	4	..........a	-327.66
	176	0.0354	1.63570E-001	-6.45846E-009	0.00000E+000	1.63550E-001	-3.19978E-004	4	..........a	-327.66
	177	0.0356	1.73670E-001	-6.35346E-009	0.00000E+000	1.73550E-001	8.00223E-005	4	..........a	-327.66
	178	0.0358	1.83670E-001	-6.24745E-009	0.00000E+000	1.83550E-001	8.00223E-005	4	..........a	-327.66
	179	0.036	1.93670E-001	-6.14245E-009	0.00000E+000	1.93550E-001	8.00223E-005	4	..........a	-327.66
	180	0.0362	2.03420E-001	-6.02544E-009	0.00000E+000	2.03550E-001	8.00223E-005	4	..........a	-327.66
	181	0.0364	2.13670E-001	-5.92344E-009	0.00000E+000	2.13550E-001	8.00223E-005	4	..........a	-327.66
	182	0.0366	2.23470E-001	-5.80644E-009	0.00000E+000	2.23550E-001	8.00223E-005	4	..........a	-327.66
	183	0.0368	2.33570E-001	-5.69443E-009	0.00000E+000	2.33550E-001	8.00223E-005	4	..........a	-327.66
	184	0.037	2.43670E-001	-5.58443E-009	0.00000E+000	2.43550E-001	8.00223E-005	4	..........a	-327.66
	185	0.0372	2.53770E-001	-5.46642E-009	0.00000E+000	2.53550E-001	8.00223E-005	4	..........a	-327.66
	186	0.0374	2.63570E-001	-5.35142E-009	0.00000E+000	2.63550E-001	8.00223E-005	4	..........a	-327.66
	187	0.0376	2.73670E-001	-5.23441E-009	0.00000E+000	2.73550E-001	8.00223E-005	4	..........a	-327.66
	188	0.0378	2.83570E-001	-5.11441E-009	0.00000E+000	2.83550E-001	8.00223E-005	4	..........a	-327.66
	189	0.038	2.93570E-001	-4.99240E-009	0.00000E+000	2.93550E-001	8.00223E-005	4	..........a	-327.66
	190	0.0382	3.03570E-001	-4.86640E-009	0.00000E+000	3.03550E-001	8.00223E-005	4	..........a	-327.66
	191	0.0384	3.13570E-001	-4.74739E-009	0.00000E+000	3.13550E-001	8.00223E-005	4	..........a	-327.66
	192	0.0386	3.23470E-001	-4.62439E-009	0.00000E+000	3.23550E-001	8.00223E-005	4	..........a	-327.66
	193	0.0388	3.33670E-001	-4.49839E-009	0.00000E+000	3.33550E-001	8.00223E-005	4	..........a	-327.66
	194	0.039	3.43670E-001	-4.37638E-009	0.00000E+000	3.43550E-001	8.00223E-005	4	..........a	-327.66
	195	0.0392	3.53470E-001	-4.24438E-009	0.00000E+000	3.53550E-001	8.00223E-005	4	..........a	-327.66
	196	0.0394	3.63370E-001	-4.11737E-009	0.00000E+000	3.63550E-001	8.00223E-005	4	..........a	-327.66
	197	0.0396	3.73270E-001	-3.97837E-009	0.00000E+000	3.73550E-001	-3.19978E-004	4	..........a	-327.66
	198	0.0398	3.83670E-001	-3.85236E-009	0.00000E+000	3.83550E-001	8.00223E-005	4	..........a	-327.66
	199	0.04	3.93470E-001	-3.72236E-009	0.00000E+000	3.93550E-001	8.00223E-005	4	..........a	-327.66
	200	0.0402	4.03370E-001	-3.59035E-009	0.00000E+000	4.03550E-001	8.00223E-005	4	..........a	-327.66
	201	0.0404	4.13570E-001	-3.45235E-009	0.00000E+000	4.13550E-001	8.00223E-005	4	..........a	-327.66
	202	0.0406	4.23470E-001	-3.31334E-009	0.00000E+000	4.23550E-001	8.00223E-005	4	..........a	-327.66
	203	0.0408	4.33770E-001	-3.17933E-009	0.00000E+000	4.33550E-001	8.00223E-005	4	..........a	-327.66
	204	0.041	4.43670E-001	-3.03633E-009	0.00000E+000	4.43550E-001	8.00223E-005	4	..........a	-327.66
	205	0.0412	4.53770E-001	-2.89832E-009	0.00000E+000	4.53550E-001	8.00223E-005	4	..........a	-327.66
	206	0.0414	4.63570E-001	-2.75532E-009	0.00000E+000	4.63550E-001	8.00223E-005	4	..........a	-327.66
	207	0.0416	4.73570E-001	-2.61331E-009	0.00000E+000	4.73550E-001	8.00223E-005	4	..........a	-327.66
	208	0.0418	4.83570E-001	-2.47231E-009	0.00000E+000	4.83550E-001	8.00223E-005	4	..........a	-327.66
	209	0.042	4.93370E-001	-2.32930E-009	0.00000E+000	4.93550E-001	8.00223E-005	4	..........a	-327.66
	210	0.0422	5.03469E-001	-2.17830E-009	0.00000E+000	5.03550E-001	8.00223E-005	4	..........a	-327.66
	211	0.0424	5.13370E-001	-2.03029E-009	0.00000E+000	5.13550E-001	8.00223E-005	4	..........a	-327.66
	212	0.0426	5.23569E-001	-1.88228E-009	0.00000E+000	5.23550E-001	8.00223E-005	4	..........a	-327.66
	213	0.0428	5.33669E-001	-1.72428E-009	0.00000E+000	5.33550E-001	8.00223E-005	4	..........a	-327.66
	214	0.043	5.43669E-001	-1.57827E-009	0.00000E+000	5.43550E-001	8.00223E-005	4	..........a	-327.66
	215	0.0432	5.53670E-001	-1.42227E-009	0.00000E+000	5.53550E-001	8.00223E-005	4	..........a	-327.66
	216	0.0434	5.63419E-001	-1.26326E-009	0.00000E+000	5.63550E-001	8.00223E-005	4	..........a	-327.66
	217	0.0436	5.73469E-001	-1.10825E-009	0.00000E+000	5.73550E-001	8.00223E-005	4	..........a	-327.66
	218	0.0438	5.83669E-001	-9.46249E-010	0.00000E+000	5.83550E-001	8.00223E-005	4	..........a	-327.66
	219	0.044	5.93569E-001	-7.83242E-010	0.00000E+000	5.93550E-001	8.00223E-005	4	..........a	-327.66
	220	0.0442	6.03570E-001	-6.20236E-010	0.00000E+000	6.03550E-001	8.00223E-005	4	..........a	-327.66
	221	0.0444	6.13469E-001	-4.58230E-010	0.00000E+000	6.13550E-001	8.00223E-005	4	..........a	-327.66
	222	0.0446	6.23569E-001	-2.90224E-010	0.00000E+000	6.23550E-001	8.00223E-005	4	..........a	-327.66
	223	0.0448	6.33469E-001	-1.18217E-010	0.00000E+000	6.33550E-001	8.00223E-005	4	..........a	-327.66
	224	0.045	6.43369E-001	5.37897E-011	0.00000E+000	6.43550E-001	8.00223E-005	4	..........a	-327.66
	225	0.0452	6.53369E-001	2.27796E-010	0.00000E+000	6.53550E-001	8.00223E-005	4	..........a	-327.66
	226	0.0454	6.63469E-001	4.03803E-010	0.00000E+000	6.63550E-001	8.00223E-005	4	..........a	-327.66
	227	0.0456	6.73369E-001	5.81810E-010	0.00000E+000	6.73550E-001	8.00223E-005	4	..........a	-327.66
	228	0.0458	6.83619E-001	7.63817E-010	0.00000E+000	6.83550E-001	8.00223E-005	4	..........a	-327.66
	229	0.046	6.93370E-001	9.45824E-010	0.00000E+000	6.93550E-001	8.00223E-005	4	..........a	-327.66
	230	0.0462	7.03569E-001	1.12583E-009	0.00000E+000	7.03550E-001	8.00223E-005	4	..........a	-327.66
	231	0.0464	7.13419E-001	1.31684E-009	0.00000E+000	7.13550E-001	8.00223E-005	4	..........a	-327.66
	232	0.0466	7.23469E-001	1.50585E-009	0.00000E+000	7.23550E-001	8.00223E-005	4	..........a	-327.66
	233	0.0468	7.33269E-001	1.69785E-009	0.00000E+000	7.33550E-001	8.00223E-005	4	..........a	-327.66
	234	0.047	7.43569E-001	1.89786E-009	0.00000E+000	7.43550E-001	8.00223E-005	4	..........a	-327.66
	235	0.0472	7.53469E-001	2.09987E-009	0.00000E+000	7.53550E-001	8.00223E-005	4	..........a	-327.66
	236	0.0474	7.63519E-001	2.30088E-009	0.00000E+000	7.63550E-001	8.00223E-005	4	..........a	-327.66
	237	0.0476	7.73369E-001	2.50488E-009	0.00000E+000	7.73550E-001	8.00223E-005	4	..........a	-327.66
	238	0.0478	7.83669E-001	2.71389E-009	0.00000E+000	7.83550E-001	8.00223E-005	4	..........a	-327.66
	239	0.048	7.93169E-001	2.92390E-009	0.00000E+000	7.93550E-001	8.00223E-005	4	..........a	-327.66
	240	0.0482	8.03569E-001	3.14191E-009	0.00000E+000	8.03550E-001	8.00223E-005	4	..........a	-327.66
CURVE2	TABLE
	Pt	T	Vf	Im	Vu	Sig	Ach	IERange	Over	Temp
	#	s	V vs. Ref.	A	V	V	V	#	bits	deg C
	241	0.0484	7.90069E-001	3.23791E-009	0.00000E+000	7.90000E-001	8.00223E-005	4	..........a	-327.66
	242	0.0486	7.80069E-001	3.31291E-009	0.00000E+000	7.80000E-001	8.00223E-005	4	..........a	-327.66
	243	0.0488	7.69719E-001	3.36492E-009	0.00000E+000	7.70000E-001	8.00223E-005	4	..........a	-327.66
	244	0.049	7.59869E-001	3.40292E-009	0.00000E+000	7.60000E-001	8.00223E-005	4	..........a	-327.66
	245	0.0492	7.49869E-001	3.42392E-009	0.00000E+000	7.50000E-001	8.00223E-005	4	..........a	-327.66
	246	0.0494	7.39819E-001	3.44092E-009	0.00000E+000	7.40000E-001	8.00223E-005	4	..........a	-327.66
	247	0.0496	7.29769E-001	3.44292E-009	0.00000E+000	7.30000E-001	-2.19978E-004	4	..........a	-327.66
	248	0.0498	7.19969E-001	3.43592E-009	0.00000E+000	7.20000E-001	8.00223E-005	4	..........a	-327.66
	249	0.05	7.09870E-001	3.42192E-009	0.00000E+000	7.10000E-001	8.00223E-005	4	..........a	-327.66
	250	0.0502	6.99969E-001	3.40592E-009	0.00000E+000	7.00000E-001	8.00223E-005	4	..........a	-327.66
	251	0.0504	6.89969E-001	3.38492E-009	0.00000E+000	6.90000E-001	8.00223E-005	4	..........a	-327.66
	252	0.0506	6.79769E-001	3.35692E-009	0.00000E+000	6.80000E-001	8.00223E-005	4	..........a	-327.66
	253	0.0508	6.69919E-001	3.32692E-009	0.00000E+000	6.70000E-001	8.00223E-005	4	..........a	-327.66
	254	0.051	6.59970E-001	3.28991E-009	0.00000E+000	6.60000E-001	8.00223E-005	4	..........a	-327.66
	255	0.0512	6.50069E-001	3.25591E-009	0.00000E+000	6.50000E-001	8.00223E-005	4	..........a	-327.66
	256	0.0514	6.39870E-001	3.20891E-009	0.00000E+000	6.40000E-001	8.00223E-005	4	..........a	-327.66
	257	0.0516	6.29969E-001	3.16391E-009	0.00000E+000	6.30000E-001	-2.19978E-004	4	..........a	-327.66
	258	0.0518	6.19769E-001	3.12391E-009	0.00000E+000	6.20000E-001	8.00223E-005	4	..........a	-327.66
	259	0.052	6.09819E-001	3.07091E-009	0.00000E+000	6.10000E-001	8.00223E-005	4	..........a	-327.66
	260	0.0522	5.99869E-001	3.02490E-009	0.00000E+000	6.00000E-001	8.00223E-005	4	..........a	-327.66
	261	0.0524	5.89969E-001	2.96890E-009	0.00000E+000	5.90000E-001	8.00223E-005	4	..........a	-327.66
	262	0.0526	5.79969E-001	2.91690E-009	0.00000E+000	5.80000E-001	8.00223E-005	4	..........a	-327.66
	263	0.0528	5.69869E-001	2.85990E-009	0.00000E+000	5.70000E-001	8.00223E-005	4	..........a	-327.66
	264	0.053	5.59919E-001	2.80190E-009	0.00000E+000	5.60000E-001	8.00223E-005	4	..........a	-327.66
	265	0.0532	5.49969E-001	2.74589E-009	0.00000E+000	5.50000E-001	8.00223E-005	4	..........a	-327.66
	266	0.0534	5.39869E-001	2.68189E-009	0.00000E+000	5.40000E-001	8.00223E-005	4	..........a	-327.66
	267	0.0536	5.30069E-001	2.61989E-009	0.00000E+000	5.30000E-001	8.00223E-005	4	..........a	-327.66
	268	0.0538	5.19969E-001	2.55389E-009	0.00000E+000	5.20000E-001	8.00223E-005	4	..........a	-327.66
	269	0.054	5.09969E-001	2.49088E-009	0.00000E+000	5.10000E-001	8.00223E-005	4	..........a	-327.66
	270	0.0542	4.99770E-001	2.42188E-009	0.00000E+000	5.00000E-001	8.00223E-005	4	..........a	-327.66
	271	0.0544	4.90070E-001	2.35288E-009	0.00000E+000	4.90000E-001	8.00223E-005	4	..........a	-327.66
	272	0.0546	4.80020E-001	2.28388E-009	0.00000E+000	4.80000E-001	8.00223E-005	4	..........a	-327.66
	273	0.0548	4.69970E-001	2.20987E-009	0.00000E+000	4.70000E-001	8.00223E-005	4	..........a	-327.66
	274	0.055	4.59970E-001	2.13787E-009	0.00000E+000	4.60000E-001	8.00223E-005	4	..........a	-327.66
	275	0.0552	4.49620E-001	2.06187E-009	0.00000E+000	4.50000E-001	8.00223E-005	4	..........a	-327.66
	276	0.0554	4.39870E-001	1.98886E-009	0.00000E+000	4.40000E-001	8.00223E-005	4	..........a	-327.66
	277	0.0556	4.30070E-001	1.90386E-009	0.00000E+000	4.30000E-001	8.00223E-005	4	..........a	-327.66
	278	0.0558	4.19970E-001	1.82886E-009	0.00000E+000	4.20000E-001	8.00223E-005	4	..........a	-327.66
	279	0.056	4.09870E-001	1.74485E-009	0.00000E+000	4.10000E-001	8.00223E-005	4	..........a	-327.66
	280	0.0562	4.00070E-001	1.66385E-009	0.00000E+000	4.00000E-001	8.00223E-005	4	..........a	-327.66
	281	0.0564	3.89970E-001	1.57785E-009	0.00000E+000	3.90000E-001	8.00223E-005	4	..........a	-327.66
	282	0.0566	3.80070E-001	1.49184E-009	0.00000E+000	3.80000E-001	8.00223E-005	4	..........a	-327.66
	283	0.0568	3.69970E-001	1.40184E-009	0.00000E+000	3.70000E-001	8.00223E-005	4	..........a	-327.66
	284	0.057	3.60070E-001	1.31084E-009	0.00000E+000	3.60000E-001	8.00223E-005	4	..........a	-327.66
	285	0.0572	3.49970E-001	1.21583E-009	0.00000E+000	3.50000E-001	8.00223E-005	4	..........a	-327.66
	286	0.0574	3.40070E-001	1.11583E-009	0.00000E+000	3.40000E-001	8.00223E-005	4	..........a	-327.66
	287	0.0576	3.29970E-001	1.02583E-009	0.00000E+000	3.30000E-001	8.00223E-005	4	..........a	-327.66
	288	0.0578	3.20070E-001	9.27823E-010	0.00000E+000	3.20000E-001	8.00223E-005	4	..........a	-327.66
	289	0.058	3.09970E-001	8.26819E-010	0.00000E+000	3.10000E-001	8.00223E-005	4	..........a	-327.66
	290	0.0582	3.00170E-001	7.25816E-010	0.00000E+000	3.00000E-001	8.00223E-005	4	..........a	-327.66
	291	0.0584	2.90070E-001	6.22812E-010	0.00000E+000	2.90000E-001	8.00223E-005	4	..........a	-327.66
	292	0.0586	2.79920E-001	5.10807E-010	0.00000E+000	2.80000E-001	8.00223E-005	4	..........a	-327.66
	293	0.0588	2.70070E-001	4.00803E-010	0.00000E+000	2.70000E-001	8.00223E-005	4	..........a	-327.66
	294	0.059	2.60220E-001	2.89799E-010	0.00000E+000	2.60000E-001	8.00223E-005	4	..........a	-327.66
	295	0.0592	2.49970E-001	1.76794E-010	0.00000E+000	2.50000E-001	8.00223E-005	4	..........a	-327.66
	296	0.0594	2.39870E-001	6.17900E-011	0.00000E+000	2.40000E-001	8.00223E-005	4	..........a	-327.66
	297	0.0596	2.29870E-001	-5.82146E-011	0.00000E+000	2.30000E-001	-3.19978E-004	4	..........a	-327.66
	298	0.0598	2.19870E-001	-1.79219E-010	0.00000E+000	2.20000E-001	8.00223E-005	4	..........a	-327.66
	299	0.06	2.10070E-001	-3.02224E-010	0.00000E+000	2.10000E-001	8.00223E-005	4	..........a	-327.66
	300	0.0602	2.00170E-001	-4.23229E-010	0.00000E+000	2.00000E-001	8.00223E-005	4	..........a	-327.66
	301	0.0604	1.90120E-001	-5.53234E-010	0.00000E+000	1.90000E-001	8.00223E-005	4	..........a	-327.66
	302	0.0606	1.79970E-001	-6.82239E-010	0.00000E+000	1.80000E-001	8.00223E-005	4	..........a	-327.66
	303	0.0608	1.69970E-001	-8.10243E-010	0.00000E+000	1.70000E-001	8.00223E-005	4	..........a	-327.66
	304	0.061	1.60070E-001	-9.42249E-010	0.00000E+000	1.60000E-001	8.00223E-005	4	..........a	-327.66
	305	0.0612	1.50070E-001	-1.07625E-009	0.00000E+000	1.50000E-001	8.00223E-005	4	..........a	-327.66
	306	0.0614	1.40070E-001	-1.21026E-009	0.00000E+000	1.40000E-001	1.80022E-004	4	..........a	-327.66
	307	0.0616	1.30170E-001	-1.33826E-009	0.00000E+000	1.30000E-001	8.00223E-005	4	..........a	-327.66
	308	0.0618	1.20170E-001	-1.48027E-009	0.00000E+000	1.20000E-001	8.00223E-005	4	..........a	-327.66
	309	0.062	1.10170E-001	-1.61427E-009	0.00000E+000	1.10000E-001	8.00223E-005	4	..........a	-327.66
	310	0.0622	1.00270E-001	-1.74528E-009	0.00000E+000	1.00000E-001	8.00223E-005	4	..........a	-327.66
	311	0.0624	9.00695E-002	-1.88328E-009	0.00000E+000	9.00000E-002	8.00223E-005	4	..........a	-327.66
	312	0.0626	8.00695E-002	-2.02329E-009	0.00000E+000	8.00000E-002	8.00223E-005	4	..........a	-327.66
	313	0.0628	7.00695E-002	-2.15630E-009	0.00000E+000	7.00000E-002	8.00223E-005	4	..........a	-327.66
	314	0.063	5.99695E-002	-2.29830E-009	0.00000E+000	6.00000E-002	8.00223E-005	4	..........a	-327.66
	315	0.0632	5.00695E-002	-2.43131E-009	0.00000E+000	5.00000E-002	8.00223E-005	4	..........a	-327.66
	316	0.0634	4.00695E-002	-2.57131E-009	0.00000E+000	4.00000E-002	8.00223E-005	4	..........a	-327.66
	317	0.0636	2.98695E-002	-2.70332E-009	0.00000E+000	3.00000E-002	8.00223E-005	4	..........a	-327.66
	318	0.0638	2.02195E-002	-2.83832E-009	0.00000E+000	2.00000E-002	8.00223E-005	4	..........a	-327.66
	319	0.064	1.01695E-002	-2.96733E-009	0.00000E+000	1.00000E-002	8.00223E-005	4	..........a	-327.66
	320	0.0642	6.95192E-005	-3.10833E-009	0.00000E+000	7.45058E-009	8.00223E-005	4	..........a	-327.66
	321	0.0644	-9.93048E-003	-3.23534E-009	0.00000E+000	-1.00000E-002	8.00223E-005	4	..........a	-327.66
	322	0.0646	-1.99305E-002	-3.36734E-009	0.00000E+000	-2.00000E-002	8.00223E-005	4	..........a	-327.66
	323	0.0648	-2.99305E-002	-3.49935E-009	0.00000E+000	-3.00000E-002	8.00223E-005	4	..........a	-327.66
	324	0.065	-3.99305E-002	-3.62635E-009	0.00000E+000	-4.00000E-002	8.00223E-005	4	..........a	-327.66
	325	0.0652	-4.99305E-002	-3.75236E-009	0.00000E+000	-5.00000E-002	8.00223E-005	4	..........a	-327.66
	326	0.0654	-5.99305E-002	-3.87836E-009	0.00000E+000	-6.00000E-002	-3.19978E-004	4	..........a	-327.66
	327	0.0656	-6.99305E-002	-4.00637E-009	0.00000E+000	-7.00000E-002	8.00223E-005	4	..........a	-327.66
	328	0.0658	-8.00305E-002	-4.13037E-009	0.00000E+000	-8.00000E-002	8.00223E-005	4	..........a	-327.66
	329	0.066	-8.98305E-002	-4.25238E-009	0.00000E+000	-9.00000E-002	8.00223E-005	4	..........a	-327.66
	330	0.0662	-9.98305E-002	-4.37238E-009	0.00000E+000	-1.00000E-001	8.00223E-005	4	..........a	-327.66
	331	0.0664	-1.09930E-001	-4.49239E-009	0.00000E+000	-1.10000E-001	8.00223E-005	4	..........a	-327.66
	332	0.0666	-1.19930E-001	-4.61339E-009	0.00000E+000	-1.20000E-001	8.00223E-005	4	..........a	-327.66
	333	0.0668	-1.29930E-001	-4.72739E-009	0.00000E+000	-1.30000E-001	8.00223E-005	4	..........a	-327.66
	334	0.067	-1.40080E-001	-4.84940E-009	0.00000E+000	-1.40000E-001	8.00223E-005	4	..........a	-327.66
	335	0.0672	-1.49930E-001	-4.96640E-009	0.00000E+000	-1.50000E-001	8.00223E-005	4	..........a	-327.66
	336	0.0674	-1.60030E-001	-5.07741E-009	0.00000E+000	-1.60000E-001	-3.19978E-004	4	..........a	-327.66
	337	0.0676	-1.69930E-001	-5.19241E-009	0.00000E+000	-1.70000E-001	8.00223E-005	4	..........a	-327.66
	338	0.0678	-1.80030E-001	-5.30242E-009	0.00000E+000	-1.80000E-001	8.00223E-005	4	..........a	-327.66
	339	0.068	-1.90330E-001	-5.42342E-009	0.00000E+000	-1.90000E-001	8.00223E-005	4	..........a	-327.66
	340	0.0682	-2.00030E-001	-5.53043E-009	0.00000E+000	-2.00000E-001	8.00223E-005	4	..........a	-327.66
	341	0.0684	-2.09930E-001	-5.63943E-009	0.00000E+000	-2.10000E-001	8.00223E-005	4	..........a	-327.66
	342	0.0686	-2.19930E-001	-5.75443E-009	0.00000E+000	-2.20000E-001	8.00223E-005	4	..........a	-327.66
	343	0.0688	-2.30030E-001	-5.85844E-009	0.00000E+000	-2.30000E-001	8.00223E-005	4	..........a	-327.66
	344	0.069	-2.40130E-001	-5.97044E-009	0.00000E+000	-2.40000E-001	8.00223E-005	4	..........a	-327.66
	345	0.0692	-2.49930E-001	-6.07745E-009	0.00000E+000	-2.50000E-001	8.00223E-005	4	..........a	-327.66
[...]
	2605	0.5212	-4.49830E-001	-5.23541E-009	0.00000E+000	-4.50000E-001	8.00223E-005	4	..........a	-327.66
	2606	0.5214	-4.59730E-001	-5.34042E-009	0.00000E+000	-4.60000E-001	8.00223E-005	4	..........a	-327.66
	2607	0.5216	-4.69930E-001	-5.45042E-009	0.00000E+000	-4.70000E-001	8.00223E-005	4	..........a	-327.66
	2608	0.5218	-4.79830E-001	-5.55443E-009	0.00000E+000	-4.80000E-001	8.00223E-005	4	..........a	-327.66
	2609	0.522	-4.89730E-001	-5.66143E-009	0.00000E+000	-4.90000E-001	-3.19978E-004	4	..........a	-327.66
	2610	0.5222	-4.99930E-001	-5.77943E-009	0.00000E+000	-5.00000E-001	8.00223E-005	4	..........a	-327.66
	2611	0.5224	-5.09930E-001	-5.89044E-009	0.00000E+000	-5.10000E-001	-3.19978E-004	4	..........a	-327.66
	2612	0.5226	-5.19930E-001	-5.99744E-009	0.00000E+000	-5.20000E-001	8.00223E-005	4	..........a	-327.66
	2613	0.5228	-5.29930E-001	-6.11145E-009	0.00000E+000	-5.30000E-001	8.00223E-005	4	..........a	-327.66
	2614	0.523	-5.39730E-001	-6.23045E-009	0.00000E+000	-5.40000E-001	8.00223E-005	4	..........a	-327.66
	2615	0.5232	-5.49931E-001	-6.34846E-009	0.00000E+000	-5.50000E-001	8.00223E-005	4	..........a	-327.66
	2616	0.5234	-5.59931E-001	-6.46946E-009	0.00000E+000	-5.60000E-001	8.00223E-005	4	..........a	-327.66
	2617	0.5236	-5.70031E-001	-6.59047E-009	0.00000E+000	-5.70000E-001	8.00223E-005	4	..........a	-327.66
	2618	0.5238	-5.79830E-001	-6.71347E-009	0.00000E+000	-5.80000E-001	8.00223E-005	4	..........a	-327.66
	2619	0.524	-5.89830E-001	-6.83948E-009	0.00000E+000	-5.90000E-001	8.00223E-005	4	..........a	-327.66
	2620	0.5242	-5.99980E-001	-6.97148E-009	0.00000E+000	-6.00000E-001	8.00223E-005	4	..........a	-327.66
	2621	0.5244	-5.89830E-001	-6.99748E-009	0.00000E+000	-5.90000E-001	8.00223E-005	4	..........a	-327.66
	2622	0.5246	-5.79930E-001	-7.00648E-009	0.00000E+000	-5.80000E-001	8.00223E-005	4	..........a	-327.66
	2623	0.5248	-5.69930E-001	-7.00448E-009	0.00000E+000	-5.70000E-001	8.00223E-005	4	..........a	-327.66
	2624	0.525	-5.59931E-001	-6.99448E-009	0.00000E+000	-5.60000E-001	8.00223E-005	4	..........a	-327.66
	2625	0.5252	-5.49931E-001	-6.97848E-009	0.00000E+000	-5.50000E-001	8.00223E-005	4	..........a	-327.66
	2626	0.5254	-5.39730E-001	-6.95048E-009	0.00000E+000	-5.40000E-001	8.00223E-005	4	..........a	-327.66
	2627	0.5256	-5.29930E-001	-6.92048E-009	0.00000E+000	-5.30000E-001	8.00223E-005	4	..........a	-327.66
	2628	0.5258	-5.19930E-001	-6.88748E-009	0.00000E+000	-5.20000E-001	8.00223E-005	4	..........a	-327.66
	2629	0.526	-5.09930E-001	-6.85148E-009	0.00000E+000	-5.10000E-001	8.00223E-005	4	..........a	-327.66
	2630	0.5262	-4.99830E-001	-6.80947E-009	0.00000E+000	-5.00000E-001	8.00223E-005	4	..........a	-327.66
	2631	0.5264	-4.89930E-001	-6.76647E-009	0.00000E+000	-4.90000E-001	8.00223E-005	4	..........a	-327.66
	2632	0.5266	-4.79930E-001	-6.72447E-009	0.00000E+000	-4.80000E-001	8.00223E-005	4	..........a	-327.66
	2633	0.5268	-4.69880E-001	-6.67947E-009	0.00000E+000	-4.70000E-001	8.00223E-005	4	..........a	-327.66
	2634	0.527	-4.59830E-001	-6.62347E-009	0.00000E+000	-4.60000E-001	8.00223E-005	4	..........a	-327.66
	2635	0.5272	-4.49930E-001	-6.57446E-009	0.00000E+000	-4.50000E-001	8.00223E-005	4	..........a	-327.66
	2636	0.5274	-4.39930E-001	-6.51946E-009	0.00000E+000	-4.40000E-001	8.00223E-005	4	..........a	-327.66
	2637	0.5276	-4.29930E-001	-6.46746E-009	0.00000E+000	-4.30000E-001	-3.19978E-004	4	..........a	-327.66
	2638	0.5278	-4.19730E-001	-6.41646E-009	0.00000E+000	-4.20000E-001	8.00223E-005	4	..........a	-327.66
	2639	0.528	-4.09930E-001	-6.35346E-009	0.00000E+000	-4.10000E-001	8.00223E-005	4	..........a	-327.66
	2640	0.5282	-3.99930E-001	-6.29445E-009	0.00000E+000	-4.00000E-001	8.00223E-005	4	..........a	-327.66
	2641	0.5284	-3.89930E-001	-6.24045E-009	0.00000E+000	-3.90000E-001	8.00223E-005	4	..........a	-327.66
	2642	0.5286	-3.79930E-001	-6.17845E-009	0.00000E+000	-3.80000E-001	8.00223E-005	4	..........a	-327.66
	2643	0.5288	-3.69930E-001	-6.11245E-009	0.00000E+000	-3.70000E-001	8.00223E-005	4	..........a	-327.66
	2644	0.529	-3.60030E-001	-6.05045E-009	0.00000E+000	-3.60000E-001	8.00223E-005	4	..........a	-327.66
	2645	0.5292	-3.49930E-001	-5.98344E-009	0.00000E+000	-3.50000E-001	8.00223E-005	4	..........a	-327.66
	2646	0.5294	-3.39730E-001	-5.92244E-009	0.00000E+000	-3.40000E-001	8.00223E-005	4	..........a	-327.66
	2647	0.5296	-3.29930E-001	-5.85844E-009	0.00000E+000	-3.30000E-001	8.00223E-005	4	..........a	-327.66
	2648	0.5298	-3.19830E-001	-5.79243E-009	0.00000E+000	-3.20000E-001	8.00223E-005	4	..........a	-327.66
	2649	0.53	-3.09930E-001	-5.72643E-009	0.00000E+000	-3.10000E-001	8.00223E-005	4	..........a	-327.66
	2650	0.5302	-2.99830E-001	-5.65843E-009	0.00000E+000	-3.00000E-001	8.00223E-005	4	..........a	-327.66
	2651	0.5304	-2.89930E-001	-5.59043E-009	0.00000E+000	-2.90000E-001	8.00223E-005	4	..........a	-327.66
	2652	0.5306	-2.80030E-001	-5.52242E-009	0.00000E+000	-2.80000E-001	8.00223E-005	4	..........a	-327.66
	2653	0.5308	-2.69930E-001	-5.45042E-009	0.00000E+000	-2.70000E-001	8.00223E-005	4	..........a	-327.66
	2654	0.531	-2.59730E-001	-5.38242E-009	0.00000E+000	-2.60000E-001	8.00223E-005	4	..........a	-327.66
	2655	0.5312	-2.49830E-001	-5.31542E-009	0.00000E+000	-2.50000E-001	8.00223E-005	4	..........a	-327.66
	2656	0.5314	-2.39830E-001	-5.24341E-009	0.00000E+000	-2.40000E-001	8.00223E-005	4	..........a	-327.66
	2657	0.5316	-2.29930E-001	-5.17441E-009	0.00000E+000	-2.30000E-001	8.00223E-005	4	..........a	-327.66
	2658	0.5318	-2.19830E-001	-5.09741E-009	0.00000E+000	-2.20000E-001	8.00223E-005	4	..........a	-327.66
	2659	0.532	-2.09930E-001	-5.02941E-009	0.00000E+000	-2.10000E-001	8.00223E-005	4	..........a	-327.66
	2660	0.5322	-1.99830E-001	-4.95640E-009	0.00000E+000	-2.00000E-001	8.00223E-005	4	..........a	-327.66
	2661	0.5324	-1.90330E-001	-4.88740E-009	0.00000E+000	-1.90000E-001	8.00223E-005	4	..........a	-327.66
	2662	0.5326	-1.79830E-001	-4.81340E-009	0.00000E+000	-1.80000E-001	-3.19978E-004	4	..........a	-327.66
	2663	0.5328	-1.69930E-001	-4.73739E-009	0.00000E+000	-1.70000E-001	8.00223E-005	4	..........a	-327.66
	2664	0.533	-1.59930E-001	-4.66239E-009	0.00000E+000	-1.60000E-001	8.00223E-005	4	..........a	-327.66
	2665	0.5332	-1.49930E-001	-4.58739E-009	0.00000E+000	-1.50000E-001	8.00223E-005	4	..........a	-327.66
	2666	0.5334	-1.39830E-001	-4.51039E-009	0.00000E+000	-1.40000E-001	8.00223E-005	4	..........a	-327.66
	2667	0.5336	-1.29930E-001	-4.43838E-009	0.00000E+000	-1.30000E-001	8.00223E-005	4	..........a	-327.66
	2668	0.5338	-1.20030E-001	-4.35938E-009	0.00000E+000	-1.20000E-001	8.00223E-005	4	..........a	-327.66
	2669	0.534	-1.09930E-001	-4.28538E-009	0.00000E+000	-1.10000E-001	8.00223E-005	4	..........a	-327.66
	2670	0.5342	-9.99305E-002	-4.20637E-009	0.00000E+000	-1.00000E-001	8.00223E-005	4	..........a	-327.66
	2671	0.5344	-8.99305E-002	-4.12737E-009	0.00000E+000	-9.00000E-002	8.00223E-005	4	..........a	-327.66
	2672	0.5346	-8.01305E-002	-4.04737E-009	0.00000E+000	-8.00000E-002	8.00223E-005	4	..........a	-327.66
	2673	0.5348	-6.99305E-002	-3.97437E-009	0.00000E+000	-7.00000E-002	8.00223E-005	4	..........a	-327.66
	2674	0.535	-5.97305E-002	-3.89036E-009	0.00000E+000	-6.00000E-002	8.00223E-005	4	..........a	-327.66
	2675	0.5352	-4.99305E-002	-3.80936E-009	0.00000E+000	-5.00000E-002	8.00223E-005	4	..........a	-327.66
	2676	0.5354	-4.00305E-002	-3.73136E-009	0.00000E+000	-4.00000E-002	8.00223E-005	4	..........a	-327.66
	2677	0.5356	-3.00305E-002	-3.64935E-009	0.00000E+000	-3.00000E-002	8.00223E-005	4	..........a	-327.66
	2678	0.5358	-1.99305E-002	-3.56835E-009	0.00000E+000	-2.00000E-002	8.00223E-005	4	..........a	-327.66
	2679	0.536	-1.00305E-002	-3.48635E-009	0.00000E+000	-1.00000E-002	8.00223E-005	4	..........a	-327.66
	2680	0.5362	-1.30481E-004	-3.40834E-009	0.00000E+000	7.45058E-009	8.00223E-005	4	..........a	-327.66
	2681	0.5364	9.96952E-003	-3.32434E-009	0.00000E+000	1.00000E-002	8.00223E-005	4	..........a	-327.66
	2682	0.5366	2.01695E-002	-3.23934E-009	0.00000E+000	2.00000E-002	8.00223E-005	4	..........a	-327.66
	2683	0.5368	2.99695E-002	-3.16133E-009	0.00000E+000	3.00000E-002	8.00223E-005	4	..........a	-327.66
	2684	0.537	3.98695E-002	-3.07533E-009	0.00000E+000	4.00000E-002	8.00223E-005	4	..........a	-327.66
	2685	0.5372	4.99695E-002	-2.98433E-009	0.00000E+000	5.00000E-002	-3.19978E-004	4	..........a	-327.66
	2686	0.5374	6.00695E-002	-2.90232E-009	0.00000E+000	6.00000E-002	-2.19978E-004	4	..........a	-327.66
	2687	0.5376	7.01195E-002	-2.81732E-009	0.00000E+000	7.00000E-002	8.00223E-005	4	..........a	-327.66
	2688	0.5378	7.99695E-002	-2.72932E-009	0.00000E+000	8.00000E-002	8.00223E-005	4	..........a	-327.66
	2689	0.538	8.99695E-002	-2.64231E-009	0.00000E+000	9.00000E-002	8.00223E-005	4	..........a	-327.66
	2690	0.5382	1.00270E-001	-2.55731E-009	0.00000E+000	1.00000E-001	8.00223E-005	4	..........a	-327.66
	2691	0.5384	1.09970E-001	-2.46631E-009	0.00000E+000	1.10000E-001	8.00223E-005	4	..........a	-327.66
	2692	0.5386	1.20170E-001	-2.37630E-009	0.00000E+000	1.20000E-001	8.00223E-005	4	..........a	-327.66
	2693	0.5388	1.30070E-001	-2.28330E-009	0.00000E+000	1.30000E-001	8.00223E-005	4	..........a	-327.66
	2694	0.539	1.40070E-001	-2.19030E-009	0.00000E+000	1.40000E-001	8.00223E-005	4	..........a	-327.66
	2695	0.5392	1.50070E-001	-2.09529E-009	0.00000E+000	1.50000E-001	8.00223E-005	4	..........a	-327.66
	2696	0.5394	1.60070E-001	-2.00229E-009	0.00000E+000	1.60000E-001	-3.19978E-004	4	..........a	-327.66
	2697	0.5396	1.70070E-001	-1.90829E-009	0.00000E+000	1.70000E-001	8.00223E-005	4	..........a	-327.66
	2698	0.5398	1.80070E-001	-1.81228E-009	0.00000E+000	1.80000E-001	8.00223E-005	4	..........a	-327.66
	2699	0.54	1.90070E-001	-1.71328E-009	0.00000E+000	1.90000E-001	8.00223E-005	4	..........a	-327.66
	2700	0.5402	1.99870E-001	-1.61027E-009	0.00000E+000	2.00000E-001	8.00223E-005	4	..........a	-327.66
	2701	0.5404	2.10070E-001	-1.51027E-009	0.00000E+000	2.10000E-001	8.00223E-005	4	..........a	-327.66
	2702	0.5406	2.19670E-001	-1.41027E-009	0.00000E+000	2.20000E-001	8.00223E-005	4	..........a	-327.66
	2703	0.5408	2.29870E-001	-1.30226E-009	0.00000E+000	2.30000E-001	8.00223E-005	4	..........a	-327.66
	2704	0.541	2.40070E-001	-1.19726E-009	0.00000E+000	2.40000E-001	8.00223E-005	4	..........a	-327.66
	2705	0.5412	2.50070E-001	-1.09225E-009	0.00000E+000	2.50000E-001	-3.19978E-004	4	..........a	-327.66
	2706	0.5414	2.60070E-001	-9.84250E-010	0.00000E+000	2.60000E-001	8.00223E-005	4	..........a	-327.66
	2707	0.5416	2.70070E-001	-8.72246E-010	0.00000E+000	2.70000E-001	8.00223E-005	4	..........a	-327.66
	2708	0.5418	2.79920E-001	-7.61242E-010	0.00000E+000	2.80000E-001	8.00223E-005	4	..........a	-327.66
	2709	0.542	2.90070E-001	-6.51237E-010	0.00000E+000	2.90000E-001	8.00223E-005	4	..........a	-327.66
	2710	0.5422	3.00070E-001	-5.34233E-010	0.00000E+000	3.00000E-001	8.00223E-005	4	..........a	-327.66
	2711	0.5424	3.10070E-001	-4.21229E-010	0.00000E+000	3.10000E-001	8.00223E-005	4	..........a	-327.66
	2712	0.5426	3.20070E-001	-2.99224E-010	0.00000E+000	3.20000E-001	-2.19978E-004	4	..........a	-327.66
	2713	0.5428	3.29970E-001	-1.85219E-010	0.00000E+000	3.30000E-001	8.00223E-005	4	..........a	-327.66
	2714	0.543	3.39870E-001	-6.42148E-011	0.00000E+000	3.40000E-001	8.00223E-005	4	..........a	-327.66
	2715	0.5432	3.50070E-001	5.67898E-011	0.00000E+000	3.50000E-001	8.00223E-005	4	..........a	-327.66
	2716	0.5434	3.59870E-001	1.81795E-010	0.00000E+000	3.60000E-001	8.00223E-005	4	..........a	-327.66
	2717	0.5436	3.70070E-001	3.06799E-010	0.00000E+000	3.70000E-001	8.00223E-005	4	..........a	-327.66
	2718	0.5438	3.80070E-001	4.36804E-010	0.00000E+000	3.80000E-001	8.00223E-005	4	..........a	-327.66
	2719	0.544	3.89970E-001	5.57809E-010	0.00000E+000	3.90000E-001	8.00223E-005	4	..........a	-327.66
	2720	0.5442	3.99970E-001	6.87814E-010	0.00000E+000	4.00000E-001	8.00223E-005	4	..........a	-327.66
	2721	0.5444	4.09870E-001	8.19819E-010	0.00000E+000	4.10000E-001	8.00223E-005	4	..........a	-327.66
	2722	0.5446	4.19970E-001	9.49824E-010	0.00000E+000	4.20000E-001	8.00223E-005	4	..........a	-327.66
	2723	0.5448	4.29870E-001	1.08483E-009	0.00000E+000	4.30000E-001	8.00223E-005	4	..........a	-327.66
	2724	0.545	4.40070E-001	1.21983E-009	0.00000E+000	4.40000E-001	8.00223E-005	4	..........a	-327.66
	2725	0.5452	4.49870E-001	1.35584E-009	0.00000E+000	4.50000E-001	8.00223E-005	4	..........a	-327.66
	2726	0.5454	4.60170E-001	1.49685E-009	0.00000E+000	4.60000E-001	8.00223E-005	4	..........a	-327.66
	2727	0.5456	4.69970E-001	1.63485E-009	0.00000E+000	4.70000E-001	8.00223E-005	4	..........a	-327.66
	2728	0.5458	4.79770E-001	1.77286E-009	0.00000E+000	4.80000E-001	8.00223E-005	4	..........a	-327.66
	2729	0.546	4.89770E-001	1.91686E-009	0.00000E+000	4.90000E-001	8.00223E-005	4	..........a	-327.66
	2730	0.5462	5.00219E-001	2.05887E-009	0.00000E+000	5.00000E-001	8.00223E-005	4	..........a	-327.66
	2731	0.5464	5.09969E-001	2.20887E-009	0.00000E+000	5.10000E-001	8.00223E-005	4	..........a	-327.66
	2732	0.5466	5.19969E-001	2.35488E-009	0.00000E+000	5.20000E-001	8.00223E-005	4	..........a	-327.66
	2733	0.5468	5.29970E-001	2.50188E-009	0.00000E+000	5.30000E-001	8.00223E-005	4	..........a	-327.66
	2734	0.547	5.39970E-001	2.65189E-009	0.00000E+000	5.40000E-001	-3.19978E-004	4	..........a	-327.66
	2735	0.5472	5.49969E-001	2.80190E-009	0.00000E+000	5.50000E-001	8.00223E-005	4	..........a	-327.66
	2736	0.5474	5.59770E-001	2.95490E-009	0.00000E+000	5.60000E-001	8.00223E-005	4	..........a	-327.66
	2737	0.5476	5.69969E-001	3.10991E-009	0.00000E+000	5.70000E-001	-3.19978E-004	4	..........a	-327.66
	2738	0.5478	5.80169E-001	3.26591E-009	0.00000E+000	5.80000E-001	8.00223E-005	4	..........a	-327.66
	2739	0.548	5.89969E-001	3.42192E-009	0.00000E+000	5.90000E-001	8.00223E-005	4	..........a	-327.66
	2740	0.5482	5.99970E-001	3.58493E-009	0.00000E+000	6.00000E-001	8.00223E-005	4	..........a	-327.66
	2741	0.5484	6.10070E-001	3.74993E-009	0.00000E+000	6.10000E-001	8.00223E-005	4	..........a	-327.66
	2742	0.5486	6.19769E-001	3.90894E-009	0.00000E+000	6.20000E-001	8.00223E-005	4	..........a	-327.66
	2743	0.5488	6.29820E-001	4.07294E-009	0.00000E+000	6.30000E-001	-4.19978E-004	4	..........a	-327.66
	2744	0.549	6.39820E-001	4.24495E-009	0.00000E+000	6.40000E-001	8.00223E-005	4	..........a	-327.66
	2745	0.5492	6.49969E-001	4.41296E-009	0.00000E+000	6.50000E-001	8.00223E-005	4	..........a	-327.66
	2746	0.5494	6.60169E-001	4.58196E-009	0.00000E+000	6.60000E-001	-3.19978E-004	4	..........a	-327.66
	2747	0.5496	6.69969E-001	4.75797E-009	0.00000E+000	6.70000E-001	8.00223E-005	4	..........a	-327.66
	2748	0.5498	6.79869E-001	4.92998E-009	0.00000E+000	6.80000E-001	8.00223E-005	4	..........a	-327.66
	2749	0.55	6.89869E-001	5.10598E-009	0.00000E+000	6.90000E-001	8.00223E-005	4	..........a	-327.66
	2750	0.5502	6.99769E-001	5.28599E-009	0.00000E+000	7.00000E-001	8.00223E-005	4	..........a	-327.66
	2751	0.5504	7.09819E-001	5.46400E-009	0.00000E+000	7.10000E-001	8.00223E-005	4	..........a	-327.66
	2752	0.5506	7.20069E-001	5.64900E-009	0.00000E+000	7.20000E-001	8.00223E-005	4	..........a	-327.66
	2753	0.5508	7.29970E-001	5.83001E-009	0.00000E+000	7.30000E-001	8.00223E-005	4	..........a	-327.66
	2754	0.551	7.39769E-001	6.02202E-009	0.00000E+000	7.40000E-001	8.00223E-005	4	..........a	-327.66
	2755	0.5512	7.49969E-001	6.21403E-009	0.00000E+000	7.50000E-001	8.00223E-005	4	..........a	-327.66
	2756	0.5514	7.59969E-001	6.40503E-009	0.00000E+000	7.60000E-001	8.00223E-005	4	..........a	-327.66
	2757	0.5516	7.69769E-001	6.60804E-009	0.00000E+000	7.70000E-001	8.00223E-005	4	..........a	-327.66
	2758	0.5518	7.79869E-001	6.80505E-009	0.00000E+000	7.80000E-001	8.00223E-005	4	..........a	-327.66
	2759	0.552	7.89869E-001	7.01106E-009	0.00000E+000	7.90000E-001	8.00223E-005	4	..........a	-327.66
	2760	0.5522	7.99969E-001	7.21706E-009	0.00000E+000	8.00000E-001	8.00223E-005	4	..........a	-327.66
CURVE11	TABLE
	Pt	T	Vf	Im	Vu	Sig	Ach	IERange	Over	Temp
	#	s	V vs. Ref.	A	V	V	V	#	bits	deg C
	2761	0.5524	7.90069E-001	7.31707E-009	0.00000E+000	7.90000E-001	8.00223E-005	4	..........a	-327.66
	2762	0.5526	7.79969E-001	7.38607E-009	0.00000E+000	7.80000E-001	-2.19978E-004	4	..........a	-327.66
	2763	0.5528	7.69870E-001	7.43707E-009	0.00000E+000	7.70000E-001	8.00223E-005	4	..........a	-327.66
	2764	0.553	7.59769E-001	7.47207E-009	0.00000E+000	7.60000E-001	8.00223E-005	4	..........a	-327.66
	2765	0.5532	7.49969E-001	7.48507E-009	0.00000E+000	7.50000E-001	8.00223E-005	4	..........a	-327.66
	2766	0.5534	7.39969E-001	7.49308E-009	0.00000E+000	7.40000E-001	8.00223E-005	4	..........a	-327.66
	2767	0.5536	7.29769E-001	7.49008E-009	0.00000E+000	7.30000E-001	8.00223E-005	4	..........a	-327.66
	2768	0.5538	7.19669E-001	7.47407E-009	0.00000E+000	7.20000E-001	8.00223E-005	4	..........a	-327.66
	2769	0.554	7.09870E-001	7.45207E-009	0.00000E+000	7.10000E-001	-2.19978E-004	4	..........a	-327.66
	2770	0.5542	6.99769E-001	7.43107E-009	0.00000E+000	7.00000E-001	8.00223E-005	4	..........a	-327.66
	2771	0.5544	6.89869E-001	7.39007E-009	0.00000E+000	6.90000E-001	8.00223E-005	4	..........a	-327.66
	2772	0.5546	6.79769E-001	7.35807E-009	0.00000E+000	6.80000E-001	8.00223E-005	4	..........a	-327.66
	2773	0.5548	6.70069E-001	7.31707E-009	0.00000E+000	6.70000E-001	8.00223E-005	4	..........a	-327.66
	2774	0.555	6.59970E-001	7.27807E-009	0.00000E+000	6.60000E-001	8.00223E-005	4	..........a	-327.66
	2775	0.5552	6.49870E-001	7.22807E-009	0.00000E+000	6.50000E-001	8.00223E-005	4	..........a	-327.66
	2776	0.5554	6.39870E-001	7.18006E-009	0.00000E+000	6.40000E-001	8.00223E-005	4	..........a	-327.66
	2777	0.5556	6.29969E-001	7.12906E-009	0.00000E+000	6.30000E-001	8.00223E-005	4	..........a	-327.66
	2778	0.5558	6.20169E-001	7.06706E-009	0.00000E+000	6.20000E-001	8.00223E-005	4	..........a	-327.66
	2779	0.556	6.09969E-001	7.00906E-009	0.00000E+000	6.10000E-001	8.00223E-005	4	..........a	-327.66
	2780	0.5562	5.99970E-001	6.95205E-009	0.00000E+000	6.00000E-001	8.00223E-005	4	..........a	-327.66
	2781	0.5564	5.89869E-001	6.88605E-009	0.00000E+000	5.90000E-001	8.00223E-005	4	..........a	-327.66
	2782	0.5566	5.80069E-001	6.81605E-009	0.00000E+000	5.80000E-001	8.00223E-005	4	..........a	-327.66
	2783	0.5568	5.69969E-001	6.75005E-009	0.00000E+000	5.70000E-001	8.00223E-005	4	..........a	-327.66
	2784	0.557	5.59869E-001	6.68904E-009	0.00000E+000	5.60000E-001	8.00223E-005	4	..........a	-327.66
	2785	0.5572	5.50070E-001	6.61804E-009	0.00000E+000	5.50000E-001	8.00223E-005	4	..........a	-327.66
	2786	0.5574	5.39970E-001	6.54204E-009	0.00000E+000	5.40000E-001	8.00223E-005	4	..........a	-327.66
	2787	0.5576	5.29970E-001	6.46604E-009	0.00000E+000	5.30000E-001	8.00223E-005	4	..........a	-327.66
	2788	0.5578	5.19969E-001	6.39303E-009	0.00000E+000	5.20000E-001	8.00223E-005	4	..........a	-327.66
	2789	0.558	5.10069E-001	6.31403E-009	0.00000E+000	5.10000E-001	8.00223E-005	4	..........a	-327.66
	2790	0.5582	5.00069E-001	6.23403E-009	0.00000E+000	5.00000E-001	8.00223E-005	4	..........a	-327.66
	2791	0.5584	4.89970E-001	6.15002E-009	0.00000E+000	4.90000E-001	8.00223E-005	4	..........a	-327.66
	2792	0.5586	4.79970E-001	6.07102E-009	0.00000E+000	4.80000E-001	8.00223E-005	4	..........a	-327.66
	2793	0.5588	4.69870E-001	5.98502E-009	0.00000E+000	4.70000E-001	8.00223E-005	4	..........a	-327.66
	2794	0.559	4.60070E-001	5.89701E-009	0.00000E+000	4.60000E-001	8.00223E-005	4	..........a	-327.66
	2795	0.5592	4.49670E-001	5.80801E-009	0.00000E+000	4.50000E-001	8.00223E-005	4	..........a	-327.66
	2796	0.5594	4.40070E-001	5.71801E-009	0.00000E+000	4.40000E-001	8.00223E-005	4	..........a	-327.66
	2797	0.5596	4.30070E-001	5.62500E-009	0.00000E+000	4.30000E-001	8.00223E-005	4	..........a	-327.66
	2798	0.5598	4.19970E-001	5.53400E-009	0.00000E+000	4.20000E-001	8.00223E-005	4	..........a	-327.66
	2799	0.56	4.09770E-001	5.43500E-009	0.00000E+000	4.10000E-001	8.00223E-005	4	..........a	-327.66
	2800	0.5602	4.00170E-001	5.33699E-009	0.00000E+000	4.00000E-001	8.00223E-005	4	..........a	-327.66