File: data/raw/batch_data/20240424_D_GM0016_HL03_E01_CV50K.DTA
EXPLAIN
TAG	CV
TITLE	LABEL	Cyclic Voltammetry	Test &Identifier
DATE	LABEL	4/24/2024	Date
TIME	LABEL	16:54:05	Time
NOTES	NOTES	1	&Notes...

PSTAT	PSTAT	REF600P-43058	Potentiostat
VINIT	POTEN	0.00000E+000	T	Initial &E (V)
VLIMIT1	POTEN	-6.00000E-001	F	Scan Limit &1 (V)
VLIMIT2	POTEN	8.00000E-001	F	Scan Limit &2 (V)
VFINAL	POTEN	0.00000E+000	T	Final &E (V)
SCANRATE	QUANT	4.99999E+004	&Scan Rate (mV/s)
STEPSIZE	QUANT	1.00000E+001	St&ep Size (mV)
CYCLES	IQUANT	10	C&ycles (#)
IMODE	SELECTOR	0	I/E Range &Mode
IRANGE	QUANT	1.00000E-005	&Max Current (mA)
AREA	QUANT	1.00000E+000	Electrode &Area (cm^2)
ELECTRODETYPE	SELECTOR	0	Electrode Type
STRIPPING	TOGGLE	F	Used for Stripping
POLARITY	TOGGLE	F	Signal Polarity
CONDIT	TWOPARAM	F	1.50000E+001	0.00000E+000	Conditionin&g	Time(s)	E(V)
DELAY	TWOPARAM	T	1.00000E+001	0.00000E+000	Init. De&lay	Time(s)	Stab.(mV/s)
EQDELAY	QUANT	1.00000E+001	Equil. &Time (s)
IRCOMP	SELECTOR	0	IRCom&p
PFCOR	QUANT	5.00000E+001	PF Corr. (ohm)
SAMPLINGMODE	SELECTOR	1	Sampling &Mode
OCVCURVE	TABLE	39
	Pt	T	Vf	Vm	Ach	Over	Temp
	#	s	V vs. Ref.	V	V	bits	deg C
	0	0.258333	-1.56350E-001	-1.56350E-001	2.10992E-004	..........a	-327.66
	1	0.516667	-1.56368E-001	-1.57331E-001	2.08259E-004	..........a	-327.66
	2	0.775	-1.56484E-001	-1.58278E-001	2.15926E-004	..........a	-327.66
	3	1.03333	-1.56812E-001	-1.59212E-001	2.09259E-004	..........a	-327.66
	4	1.29167	-1.57403E-001	-1.60112E-001	2.05192E-004	..........a	-327.66
	5	1.55	-1.58197E-001	-1.60986E-001	2.05459E-004	..........a	-327.66
	6	1.80833	-1.59090E-001	-1.61843E-001	2.12259E-004	..........a	-327.66
	7	2.06667	-1.60001E-001	-1.62681E-001	2.02192E-004	..........a	-327.66
	8	2.325	-1.60894E-001	-1.63493E-001	2.02859E-004	..........a	-327.66
	9	2.58333	-1.61760E-001	-1.64297E-001	2.10126E-004	..........a	-327.66
	10	2.84167	-1.62600E-001	-1.65088E-001	2.09926E-004	..........a	-327.66
	11	3.1	-1.63421E-001	-1.65863E-001	2.03192E-004	..........a	-327.66
	12	3.35833	-1.64226E-001	-1.66625E-001	2.00859E-004	..........a	-327.66
	13	3.61667	-1.65016E-001	-1.67365E-001	2.06992E-004	..........a	-327.66
	14	3.875	-1.65791E-001	-1.68095E-001	1.98592E-004	..........a	-327.66
	15	4.13333	-1.66552E-001	-1.68815E-001	2.02192E-004	..........a	-327.66
	16	4.39167	-1.67298E-001	-1.69526E-001	2.10059E-004	..........a	-327.66
	17	4.65	-1.68030E-001	-1.70186E-001	2.00259E-004	..........a	-327.66
	18	4.90833	-1.68747E-001	-1.70833E-001	1.98859E-004	..........a	-327.66
	19	5.16667	-1.69444E-001	-1.71476E-001	2.12726E-004	..........a	-327.66
	20	5.425	-1.70120E-001	-1.72116E-001	2.03192E-004	..........a	-327.66
	21	5.68333	-1.70779E-001	-1.72760E-001	1.95992E-004	..........a	-327.66
	22	5.94167	-1.71426E-001	-1.73378E-001	2.04859E-004	..........a	-327.66
	23	6.2	-1.72066E-001	-1.73982E-001	1.98526E-004	..........a	-327.66
	24	6.45833	-1.72697E-001	-1.74574E-001	2.02526E-004	..........a	-327.66
	25	6.71667	-1.73318E-001	-1.75158E-001	2.08526E-004	..........a	-327.66
	26	6.975	-1.73925E-001	-1.75724E-001	1.96792E-004	..........a	-327.66
	27	7.23333	-1.74520E-001	-1.76278E-001	2.08192E-004	..........a	-327.66
	28	7.49167	-1.75102E-001	-1.76818E-001	2.09792E-004	..........a	-327.66
	29	7.75	-1.75670E-001	-1.77356E-001	2.08392E-004	..........a	-327.66
	30	8.00833	-1.76227E-001	-1.77895E-001	2.02392E-004	..........a	-327.66
	31	8.26667	-1.76773E-001	-1.78412E-001	2.00192E-004	..........a	-327.66
	32	8.525	-1.77312E-001	-1.78938E-001	2.08259E-004	..........a	-327.66
	33	8.78333	-1.77845E-001	-1.79446E-001	2.06392E-004	..........a	-327.66
	34	9.04167	-1.78370E-001	-1.79946E-001	2.08992E-004	..........a	-327.66
	35	9.3	-1.78889E-001	-1.80441E-001	1.99659E-004	..........a	-327.66
	36	9.5583	-1.79399E-001	-1.80909E-001	2.01859E-004	..........a	-327.66
	37	9.8167	-1.79900E-001	-1.81369E-001	1.97392E-004	..........a	-327.66
	38	10.075	-1.80388E-001	-1.81808E-001	2.01059E-004	..........a	-327.66
EOC	QUANT	-0.1803878	Open Circuit (V)
PSTATMODEL	IQUANT	7	Pstat Model
PSTATSECTION	LABEL	REF600P-43058	Pstat Section
PSTATSERIALNO	LABEL	43058	Pstat Serial Number
CTRLMODE	IQUANT	1	Control Mode
ELECTROMETER	IQUANT	0	RE=0 or CS=1
IESTAB	IQUANT	2	I/E Stability
CASPEED	IQUANT	4	Control Amp Speed
CONVENTION	IQUANT	1	Current Convention
ICHRANGE	IQUANT	2	Ich Range
ICHRANGEMODE	TOGGLE	F	Ich Auto Range
ICHOFFSETENABLE	TOGGLE	F	Ich Offset Enable
ICHOFFSET	QUANT	0	Ich Offset (V)
ICHFILTER	IQUANT	1	Ich Filter
VCHRANGE	IQUANT	2	Vch Range
VCHRANGEMODE	TOGGLE	F	Vch Auto Range
VCHOFFSETENABLE	TOGGLE	F	Vch Offset Enable
VCHOFFSET	QUANT	0	Vch Offset (V)
VCHFILTER	IQUANT	1	Vch Filter
ACHRANGE	IQUANT	2	Ach Range
ACHOFFSETENABLE	TOGGLE	F	Ach Offset Enable
ACHOFFSET	QUANT	0	Ach Offset (V)
ACHFILTER	IQUANT	1	Ach Filter
IERANGELOWERLIMIT	IQUANT	1	I/E Range Lower Limit
IERANGEMODE	TOGGLE	T	I/E AutoRange
IERANGE	IQUANT	4	I/E Range
POSFEEDENABLE	TOGGLE	F	Positive Feedback IR Comp
POSFEEDRESISTANCE	QUANT	0	Positive Feedback Resistance (ohm)
ACHSELECT	IQUANT	4	Ach Select
SENSECABLEID	IQUANT	7	Sense Cable ID
PWRCABLEID	IQUANT	7	Power Cable ID
DCCALDATE	LABEL	3/22/2024	DC Calibration Date
ACCALDATE	LABEL	3/22/2024	AC Calibration Date
THERMOSELECT	IQUANT	1	Thermo Select
FRAMEWORKVERSION	LABEL	7.8.4	Framework Version
INSTRUMENTVERSION	LABEL	4.42	Instrument Version
CURVE1	TABLE
	Pt	T	Vf	Im	Vu	Sig	Ach	IERange	Over	Temp
	#	s	V vs. Ref.	A	V	V	V	#	bits	deg C
	0	0.0002	-1.80303E-001	2.35001E-007	0.00000E+000	-1.80400E-001	8.15923E-005	8	..........a	-327.66
	1	0.0004	-1.90253E-001	-6.95035E-007	0.00000E+000	-1.90400E-001	8.15923E-005	8	..........a	-327.66
	2	0.0006	-2.00353E-001	-1.36506E-006	0.00000E+000	-2.00400E-001	8.15923E-005	8	..........a	-327.66
	3	0.0008	-2.10153E-001	-1.86508E-006	0.00000E+000	-2.10400E-001	8.15923E-005	8	..........a	-327.66
	4	0.001	-2.20453E-001	-2.29510E-006	0.00000E+000	-2.20400E-001	8.15923E-005	8	..........a	-327.66
	5	0.0012	-2.30353E-001	-2.68511E-006	0.00000E+000	-2.30400E-001	-3.18408E-004	8	..........a	-327.66
	6	0.0014	-2.40353E-001	-2.95512E-006	0.00000E+000	-2.40400E-001	8.15923E-005	8	..........a	-327.66
	7	0.0016	-2.50353E-001	-3.27513E-006	0.00000E+000	-2.50400E-001	8.15923E-005	8	..........a	-327.66
	8	0.0018	-2.60353E-001	-3.52514E-006	0.00000E+000	-2.60400E-001	8.15923E-005	8	..........a	-327.66
	9	0.002	-2.70303E-001	-3.64515E-006	0.00000E+000	-2.70400E-001	8.15923E-005	8	..........a	-327.66
	10	0.0022	-2.80353E-001	-3.88516E-006	0.00000E+000	-2.80400E-001	8.15923E-005	8	..........a	-327.66
	11	0.0024	-2.90153E-001	-4.06516E-006	0.00000E+000	-2.90400E-001	8.15923E-005	8	..........a	-327.66
	12	0.0026	-3.00353E-001	-4.25517E-006	0.00000E+000	-3.00400E-001	8.15923E-005	8	..........a	-327.66
	13	0.0028	-3.10253E-001	-4.41518E-006	0.00000E+000	-3.10400E-001	8.15923E-005	8	..........a	-327.66
	14	0.003	-3.20403E-001	-4.51518E-006	0.00000E+000	-3.20400E-001	8.15923E-005	8	..........a	-327.66
	15	0.0032	-3.30353E-001	-4.65519E-006	0.00000E+000	-3.30400E-001	8.15923E-005	8	..........a	-327.66
	16	0.0034	-3.40353E-001	-4.75519E-006	0.00000E+000	-3.40400E-001	8.15923E-005	8	..........a	-327.66
	17	0.0036	-3.50353E-001	-4.88519E-006	0.00000E+000	-3.50400E-001	8.15923E-005	8	..........a	-327.66
	18	0.0038	-3.60353E-001	-5.01520E-006	0.00000E+000	-3.60400E-001	8.15923E-005	8	..........a	-327.66
	19	0.004	-3.70253E-001	-5.15521E-006	0.00000E+000	-3.70400E-001	8.15923E-005	8	..........a	-327.66
	20	0.0042	-3.80353E-001	-5.24521E-006	0.00000E+000	-3.80400E-001	8.15923E-005	8	..........a	-327.66
	21	0.0044	-3.90353E-001	-5.40521E-006	0.00000E+000	-3.90400E-001	8.15923E-005	8	..........a	-327.66
	22	0.0046	-4.00353E-001	-5.47522E-006	0.00000E+000	-4.00400E-001	-3.18408E-004	8	..........a	-327.66
	23	0.0048	-4.10153E-001	-5.59522E-006	0.00000E+000	-4.10400E-001	8.15923E-005	8	..........a	-327.66
	24	0.005	-4.20353E-001	-5.71523E-006	0.00000E+000	-4.20400E-001	8.15923E-005	8	..........a	-327.66
	25	0.0052	-4.30353E-001	-5.85523E-006	0.00000E+000	-4.30400E-001	8.15923E-005	8	..........a	-327.66
	26	0.0054	-4.40353E-001	-5.97524E-006	0.00000E+000	-4.40400E-001	8.15923E-005	8	..........a	-327.66
	27	0.0056	-4.50353E-001	-6.07524E-006	0.00000E+000	-4.50400E-001	8.15923E-005	8	..........a	-327.66
	28	0.0058	-4.60253E-001	-6.19525E-006	0.00000E+000	-4.60400E-001	8.15923E-005	8	..........a	-327.66
	29	0.006	-4.70153E-001	-6.29525E-006	0.00000E+000	-4.70400E-001	8.15923E-005	8	..........a	-327.66
	30	0.0062	-4.80353E-001	-6.45526E-006	0.00000E+000	-4.80400E-001	8.15923E-005	8	..........a	-327.66
	31	0.0064	-4.90253E-001	-6.51526E-006	0.00000E+000	-4.90400E-001	-2.18408E-004	8	..........a	-327.66
	32	0.0066	-5.00253E-001	-6.65526E-006	0.00000E+000	-5.00400E-001	8.15923E-005	8	..........a	-327.66
	33	0.0068	-5.10153E-001	-6.76527E-006	0.00000E+000	-5.10400E-001	8.15923E-005	8	..........a	-327.66
	34	0.007	-5.20353E-001	-6.88527E-006	0.00000E+000	-5.20400E-001	8.15923E-005	8	..........a	-327.66
	35	0.0072	-5.30253E-001	-7.01528E-006	0.00000E+000	-5.30400E-001	-2.18408E-004	8	..........a	-327.66
	36	0.0074	-5.40353E-001	-7.12528E-006	0.00000E+000	-5.40400E-001	8.15923E-005	8	..........a	-327.66
	37	0.0076	-5.50353E-001	-7.19528E-006	0.00000E+000	-5.50400E-001	8.15923E-005	8	..........a	-327.66
	38	0.0078	-5.60253E-001	-7.33529E-006	0.00000E+000	-5.60400E-001	8.15923E-005	8	..........a	-327.66
	39	0.008	-5.70353E-001	-7.48529E-006	0.00000E+000	-5.70400E-001	-2.18408E-004	8	..........a	-327.66
	40	0.0082	-5.80353E-001	-7.56530E-006	0.00000E+000	-5.80400E-001	-3.18408E-004	8	..........a	-327.66
	41	0.0084	-5.90453E-001	-7.70530E-006	0.00000E+000	-5.90400E-001	-2.18408E-004	8	..........a	-327.66
	42	0.0086	-6.00453E-001	-7.79531E-006	0.00000E+000	-6.00400E-001	8.15923E-005	8	..........a	-327.66
	43	0.0088	-5.90353E-001	-6.04524E-006	0.00000E+000	-5.90400E-001	8.15923E-005	8	..........a	-327.66
	44	0.009	-5.80353E-001	-4.71519E-006	0.00000E+000	-5.80400E-001	8.15923E-005	8	..........a	-327.66
	45	0.0092	-5.70053E-001	-3.60515E-006	0.00000E+000	-5.70400E-001	-1.18408E-004	8	..........a	-327.66
	46	0.0094	-5.60253E-001	-2.61511E-006	0.00000E+000	-5.60400E-001	8.15923E-005	8	..........a	-327.66
	47	0.0096	-5.50453E-001	-1.78508E-006	0.00000E+000	-5.50400E-001	8.15923E-005	8	..........a	-327.66
	48	0.0098	-5.40353E-001	-1.04505E-006	0.00000E+000	-5.40400E-001	8.15923E-005	8	..........a	-327.66
	49	0.01	-5.30353E-001	-4.35025E-007	0.00000E+000	-5.30400E-001	-3.18408E-004	8	..........a	-327.66
	50	0.0102	-5.20353E-001	1.94999E-007	0.00000E+000	-5.20400E-001	8.15923E-005	8	..........a	-327.66
	51	0.0104	-5.10253E-001	7.35020E-007	0.00000E+000	-5.10400E-001	-2.18408E-004	8	..........a	-327.66
	52	0.0106	-5.00353E-001	1.20504E-006	0.00000E+000	-5.00400E-001	8.15923E-005	8	..........a	-327.66
	53	0.0108	-4.90253E-001	1.60505E-006	0.00000E+000	-4.90400E-001	8.15923E-005	8	..........a	-327.66
	54	0.011	-4.80153E-001	1.99507E-006	0.00000E+000	-4.80400E-001	8.15923E-005	8	..........a	-327.66
	55	0.0112	-4.70253E-001	2.33508E-006	0.00000E+000	-4.70400E-001	8.15923E-005	8	..........a	-327.66
	56	0.0114	-4.60353E-001	2.63509E-006	0.00000E+000	-4.60400E-001	8.15923E-005	8	..........a	-327.66
	57	0.0116	-4.50353E-001	2.91510E-006	0.00000E+000	-4.50400E-001	-3.18408E-004	8	..........a	-327.66
	58	0.0118	-4.40353E-001	3.18511E-006	0.00000E+000	-4.40400E-001	8.15923E-005	8	..........a	-327.66
	59	0.012	-4.30353E-001	3.44512E-006	0.00000E+000	-4.30400E-001	8.15923E-005	8	..........a	-327.66
	60	0.0122	-4.20153E-001	3.67513E-006	0.00000E+000	-4.20400E-001	8.15923E-005	8	..........a	-327.66
	61	0.0124	-4.10253E-001	3.84514E-006	0.00000E+000	-4.10400E-001	8.15923E-005	8	..........a	-327.66
	62	0.0126	-4.00353E-001	4.05515E-006	0.00000E+000	-4.00400E-001	8.15923E-005	8	..........a	-327.66
	63	0.0128	-3.90453E-001	4.19515E-006	0.00000E+000	-3.90400E-001	8.15923E-005	8	..........a	-327.66
	64	0.013	-3.80353E-001	4.35516E-006	0.00000E+000	-3.80400E-001	8.15923E-005	8	..........a	-327.66
	65	0.0132	-3.70153E-001	4.50516E-006	0.00000E+000	-3.70400E-001	8.15923E-005	8	..........a	-327.66
	66	0.0134	-3.60353E-001	4.64517E-006	0.00000E+000	-3.60400E-001	8.15923E-005	8	..........a	-327.66
	67	0.0136	-3.50353E-001	4.76517E-006	0.00000E+000	-3.50400E-001	8.15923E-005	8	..........a	-327.66
	68	0.0138	-3.40253E-001	4.91518E-006	0.00000E+000	-3.40400E-001	8.15923E-005	8	..........a	-327.66
	69	0.014	-3.30253E-001	4.98518E-006	0.00000E+000	-3.30400E-001	8.15923E-005	8	..........a	-327.66
	70	0.0142	-3.20353E-001	5.08519E-006	0.00000E+000	-3.20400E-001	8.15923E-005	8	..........a	-327.66
	71	0.0144	-3.10503E-001	5.19519E-006	0.00000E+000	-3.10400E-001	8.15923E-005	8	..........a	-327.66
	72	0.0146	-3.00253E-001	5.30520E-006	0.00000E+000	-3.00400E-001	8.15923E-005	8	..........a	-327.66
	73	0.0148	-2.90353E-001	5.38520E-006	0.00000E+000	-2.90400E-001	8.15923E-005	8	..........a	-327.66
	74	0.015	-2.80353E-001	5.48520E-006	0.00000E+000	-2.80400E-001	8.15923E-005	8	..........a	-327.66
	75	0.0152	-2.70253E-001	5.54520E-006	0.00000E+000	-2.70400E-001	8.15923E-005	8	..........a	-327.66
	76	0.0154	-2.60253E-001	5.61521E-006	0.00000E+000	-2.60400E-001	8.15923E-005	8	..........a	-327.66
	77	0.0156	-2.50253E-001	5.67521E-006	0.00000E+000	-2.50400E-001	-3.18408E-004	8	..........a	-327.66
	78	0.0158	-2.40453E-001	5.76521E-006	0.00000E+000	-2.40400E-001	8.15923E-005	8	..........a	-327.66
	79	0.016	-2.30553E-001	5.80521E-006	0.00000E+000	-2.30400E-001	-3.18408E-004	8	..........a	-327.66
	80	0.0162	-2.20353E-001	5.87522E-006	0.00000E+000	-2.20400E-001	8.15923E-005	8	..........a	-327.66
	81	0.0164	-2.10253E-001	5.92522E-006	0.00000E+000	-2.10400E-001	8.15923E-005	8	..........a	-327.66
	82	0.0166	-2.00353E-001	5.98522E-006	0.00000E+000	-2.00400E-001	8.15923E-005	8	..........a	-327.66
	83	0.0168	-1.90553E-001	6.02522E-006	0.00000E+000	-1.90400E-001	8.15923E-005	8	..........a	-327.66
	84	0.017	-1.80253E-001	6.10523E-006	0.00000E+000	-1.80400E-001	8.15923E-005	8	..........a	-327.66
	85	0.0172	-1.70253E-001	6.15523E-006	0.00000E+000	-1.70400E-001	8.15923E-005	8	..........a	-327.66
	86	0.0174	-1.60253E-001	6.20523E-006	0.00000E+000	-1.60400E-001	8.15923E-005	8	..........a	-327.66
	87	0.0176	-1.50353E-001	6.24523E-006	0.00000E+000	-1.50400E-001	8.15923E-005	8	..........a	-327.66
	88	0.0178	-1.40453E-001	6.28523E-006	0.00000E+000	-1.40400E-001	-3.18408E-004	8	..........a	-327.66
	89	0.018	-1.30553E-001	6.32523E-006	0.00000E+000	-1.30400E-001	8.15923E-005	8	..........a	-327.66
	90	0.0182	-1.20353E-001	6.39524E-006	0.00000E+000	-1.20400E-001	8.15923E-005	8	..........a	-327.66
	91	0.0184	-1.10353E-001	6.42524E-006	0.00000E+000	-1.10400E-001	8.15923E-005	8	..........a	-327.66
	92	0.0186	-1.00353E-001	6.50524E-006	0.00000E+000	-1.00400E-001	8.15923E-005	8	..........a	-327.66
	93	0.0188	-9.03529E-002	6.52524E-006	0.00000E+000	-9.04000E-002	8.15923E-005	8	..........a	-327.66
	94	0.019	-8.03529E-002	6.59524E-006	0.00000E+000	-8.04000E-002	8.15923E-005	8	..........a	-327.66
	95	0.0192	-7.03529E-002	6.59524E-006	0.00000E+000	-7.04000E-002	8.15923E-005	8	..........a	-327.66
	96	0.0194	-6.01529E-002	6.67525E-006	0.00000E+000	-6.04000E-002	8.15923E-005	8	..........a	-327.66
	97	0.0196	-5.02529E-002	6.74525E-006	0.00000E+000	-5.04000E-002	8.15923E-005	8	..........a	-327.66
	98	0.0198	-4.04529E-002	6.80525E-006	0.00000E+000	-4.04000E-002	8.15923E-005	8	..........a	-327.66
	99	0.02	-3.05529E-002	6.86525E-006	0.00000E+000	-3.04000E-002	8.15923E-005	8	..........a	-327.66
	100	0.0202	-2.03529E-002	6.92526E-006	0.00000E+000	-2.04000E-002	-2.18408E-004	8	..........a	-327.66
	101	0.0204	-1.01529E-002	6.98526E-006	0.00000E+000	-1.04000E-002	8.15923E-005	8	..........a	-327.66
	102	0.0206	-4.52886E-004	7.07526E-006	0.00000E+000	-3.99999E-004	8.15923E-005	8	..........a	-327.66
	103	0.0208	9.74711E-003	7.15527E-006	0.00000E+000	9.60001E-003	8.15923E-005	8	..........a	-327.66
	104	0.021	1.97471E-002	7.22527E-006	0.00000E+000	1.96000E-002	-2.18408E-004	8	..........a	-327.66
	105	0.0212	2.94471E-002	7.30527E-006	0.00000E+000	2.96000E-002	-3.18408E-004	8	..........a	-327.66
	106	0.0214	3.96971E-002	7.41528E-006	0.00000E+000	3.96000E-002	8.15923E-005	8	..........a	-327.66
	107	0.0216	4.93471E-002	7.49528E-006	0.00000E+000	4.96000E-002	8.15923E-005	8	..........a	-327.66
	108	0.0218	5.96471E-002	7.63528E-006	0.00000E+000	5.96000E-002	8.15923E-005	8	..........a	-327.66
	109	0.022	6.97971E-002	7.72529E-006	0.00000E+000	6.96000E-002	-4.18408E-004	8	..........a	-327.66
	110	0.0222	7.95971E-002	7.84529E-006	0.00000E+000	7.96000E-002	8.15923E-005	8	..........a	-327.66
	111	0.0224	8.96471E-002	7.99530E-006	0.00000E+000	8.96000E-002	8.15923E-005	8	..........a	-327.66
	112	0.0226	9.94471E-002	8.12530E-006	0.00000E+000	9.96000E-002	8.15923E-005	8	..........a	-327.66
	113	0.0228	1.09747E-001	8.27531E-006	0.00000E+000	1.09600E-001	8.15923E-005	8	..........a	-327.66
	114	0.023	1.19497E-001	8.41531E-006	0.00000E+000	1.19600E-001	8.15923E-005	8	..........a	-327.66
	115	0.0232	1.29647E-001	8.60532E-006	0.00000E+000	1.29600E-001	8.15923E-005	8	..........a	-327.66
	116	0.0234	1.39647E-001	8.74533E-006	0.00000E+000	1.39600E-001	-5.18408E-004	8	..........a	-327.66
	117	0.0236	1.49797E-001	8.92533E-006	0.00000E+000	1.49600E-001	8.15923E-005	8	..........a	-327.66
	118	0.0238	1.59647E-001	9.06534E-006	0.00000E+000	1.59600E-001	8.15923E-005	8	..........a	-327.66
	119	0.024	1.69747E-001	9.28535E-006	0.00000E+000	1.69600E-001	-3.18408E-004	8	..........a	-327.66
	120	0.0242	1.79547E-001	9.45535E-006	0.00000E+000	1.79600E-001	8.15923E-005	8	..........a	-327.66
	121	0.0244	1.89747E-001	9.66536E-006	0.00000E+000	1.89600E-001	8.15923E-005	8	..........a	-327.66
	122	0.0246	1.99647E-001	9.83537E-006	0.00000E+000	1.99600E-001	8.15923E-005	8	..........a	-327.66
	123	0.0248	2.09647E-001	9.99537E-006	0.00000E+000	2.09600E-001	-2.18408E-004	8	..........a	-327.66
	124	0.025	2.19447E-001	1.02354E-005	0.00000E+000	2.19600E-001	8.15923E-005	8	..........a	-327.66
	125	0.0252	2.29747E-001	1.04054E-005	0.00000E+000	2.29600E-001	8.15923E-005	8	..........a	-327.66
	126	0.0254	2.39647E-001	1.06054E-005	0.00000E+000	2.39600E-001	8.15923E-005	8	..........a	-327.66
	127	0.0256	2.49447E-001	1.08254E-005	0.00000E+000	2.49600E-001	-3.18408E-004	8	..........a	-327.66
	128	0.0258	2.59647E-001	1.10054E-005	0.00000E+000	2.59600E-001	8.15923E-005	8	..........a	-327.66
	129	0.026	2.69697E-001	1.11954E-005	0.00000E+000	2.69600E-001	8.15923E-005	8	..........a	-327.66
	130	0.0262	2.79547E-001	1.14354E-005	0.00000E+000	2.79600E-001	8.15923E-005	8	..........a	-327.66
	131	0.0264	2.89547E-001	1.16554E-005	0.00000E+000	2.89600E-001	8.15923E-005	8	..........a	-327.66
	132	0.0266	2.99697E-001	1.18654E-005	0.00000E+000	2.99600E-001	8.15923E-005	8	..........a	-327.66
	133	0.0268	3.09647E-001	1.20455E-005	0.00000E+000	3.09600E-001	8.15923E-005	8	..........a	-327.66
	134	0.027	3.19647E-001	1.22855E-005	0.00000E+000	3.19600E-001	-2.18408E-004	8	..........a	-327.66
	135	0.0272	3.29547E-001	1.24955E-005	0.00000E+000	3.29600E-001	-2.18408E-004	8	..........a	-327.66
	136	0.0274	3.39497E-001	1.27455E-005	0.00000E+000	3.39600E-001	-2.18408E-004	8	..........a	-327.66
	137	0.0276	3.49597E-001	1.29055E-005	0.00000E+000	3.49600E-001	-2.18408E-004	8	..........a	-327.66
	138	0.0278	3.59547E-001	1.31155E-005	0.00000E+000	3.59600E-001	-3.18408E-004	8	..........a	-327.66
	139	0.028	3.69547E-001	1.33055E-005	0.00000E+000	3.69600E-001	8.15923E-005	8	..........a	-327.66
	140	0.0282	3.79647E-001	1.35255E-005	0.00000E+000	3.79600E-001	8.15923E-005	8	..........a	-327.66
	141	0.0284	3.89647E-001	1.37355E-005	0.00000E+000	3.89600E-001	8.15923E-005	8	..........a	-327.66
	142	0.0286	3.99497E-001	1.39255E-005	0.00000E+000	3.99600E-001	8.15923E-005	8	..........a	-327.66
	143	0.0288	4.09547E-001	1.41155E-005	0.00000E+000	4.09600E-001	-3.18408E-004	8	..........a	-327.66
	144	0.029	4.19647E-001	1.42955E-005	0.00000E+000	4.19600E-001	-5.18408E-004	8	..........a	-327.66
	145	0.0292	4.29447E-001	1.45055E-005	0.00000E+000	4.29600E-001	8.15923E-005	8	..........a	-327.66
	146	0.0294	4.39397E-001	1.47056E-005	0.00000E+000	4.39600E-001	8.15923E-005	8	..........a	-327.66
	147	0.0296	4.49747E-001	1.48756E-005	0.00000E+000	4.49600E-001	8.15923E-005	8	..........a	-327.66
	148	0.0298	4.59647E-001	1.50456E-005	0.00000E+000	4.59600E-001	-5.18408E-004	8	..........a	-327.66
	149	0.03	4.69547E-001	1.52356E-005	0.00000E+000	4.69600E-001	8.15923E-005	8	..........a	-327.66
	150	0.0302	4.79547E-001	1.54256E-005	0.00000E+000	4.79600E-001	-3.18408E-004	8	..........a	-327.66
	151	0.0304	4.89547E-001	1.55456E-005	0.00000E+000	4.89600E-001	8.15923E-005	8	..........a	-327.66
	152	0.0306	4.99647E-001	1.57156E-005	0.00000E+000	4.99600E-001	8.15923E-005	8	..........a	-327.66
	153	0.0308	5.09647E-001	1.58856E-005	0.00000E+000	5.09600E-001	8.15923E-005	8	..........a	-327.66
	154	0.031	5.19447E-001	1.60856E-005	0.00000E+000	5.19600E-001	8.15923E-005	8	..........a	-327.66
	155	0.0312	5.29647E-001	1.62456E-005	0.00000E+000	5.29600E-001	8.15923E-005	8	..........a	-327.66
	156	0.0314	5.39547E-001	1.63656E-005	0.00000E+000	5.39600E-001	8.15923E-005	8	..........a	-327.66
	157	0.0316	5.49647E-001	1.65056E-005	0.00000E+000	5.49600E-001	8.15923E-005	8	..........a	-327.66
	158	0.0318	5.59547E-001	1.66356E-005	0.00000E+000	5.59600E-001	8.15923E-005	8	..........a	-327.66
	159	0.032	5.69547E-001	1.68056E-005	0.00000E+000	5.69600E-001	8.15923E-005	8	..........a	-327.66
	160	0.0322	5.79447E-001	1.68456E-005	0.00000E+000	5.79600E-001	8.15923E-005	8	..........a	-327.66
	161	0.0324	5.89447E-001	1.69956E-005	0.00000E+000	5.89600E-001	-2.18408E-004	8	..........a	-327.66
	162	0.0326	5.99647E-001	1.70856E-005	0.00000E+000	5.99600E-001	8.15923E-005	8	..........a	-327.66
	163	0.0328	6.09547E-001	1.71456E-005	0.00000E+000	6.09600E-001	-3.18408E-004	8	..........a	-327.66
	164	0.033	6.19647E-001	1.72257E-005	0.00000E+000	6.19600E-001	8.15923E-005	8	..........a	-327.66
	165	0.0332	6.29447E-001	1.72657E-005	0.00000E+000	6.29600E-001	8.15923E-005	8	..........a	-327.66
	166	0.0334	6.39447E-001	1.73257E-005	0.00000E+000	6.39600E-001	8.15923E-005	8	..........a	-327.66
	167	0.0336	6.49447E-001	1.73857E-005	0.00000E+000	6.49600E-001	8.15923E-005	8	..........a	-327.66
	168	0.0338	6.59447E-001	1.74457E-005	0.00000E+000	6.59600E-001	8.15923E-005	8	..........a	-327.66
	169	0.034	6.69647E-001	1.74057E-005	0.00000E+000	6.69600E-001	-4.18408E-004	8	..........a	-327.66
	170	0.0342	6.79447E-001	1.74457E-005	0.00000E+000	6.79600E-001	8.15923E-005	8	..........a	-327.66
	171	0.0344	6.89547E-001	1.74457E-005	0.00000E+000	6.89600E-001	8.15923E-005	8	..........a	-327.66
	172	0.0346	6.99447E-001	1.74457E-005	0.00000E+000	6.99600E-001	8.15923E-005	8	..........a	-327.66
	173	0.0348	7.09547E-001	1.74357E-005	0.00000E+000	7.09600E-001	8.15923E-005	8	..........a	-327.66
	174	0.035	7.19397E-001	1.74357E-005	0.00000E+000	7.19600E-001	-3.18408E-004	8	..........a	-327.66
	175	0.0352	7.29547E-001	1.74157E-005	0.00000E+000	7.29600E-001	8.15923E-005	8	..........a	-327.66
	176	0.0354	7.39397E-001	1.74157E-005	0.00000E+000	7.39600E-001	8.15923E-005	8	..........a	-327.66
	177	0.0356	7.49547E-001	1.73057E-005	0.00000E+000	7.49600E-001	8.15923E-005	8	..........a	-327.66
	178	0.0358	7.59547E-001	1.73057E-005	0.00000E+000	7.59600E-001	-2.18408E-004	8	..........a	-327.66
	179	0.036	7.69547E-001	1.72857E-005	0.00000E+000	7.69600E-001	8.15923E-005	8	..........a	-327.66
	180	0.0362	7.79547E-001	1.72757E-005	0.00000E+000	7.79600E-001	8.15923E-005	8	..........a	-327.66
	181	0.0364	7.89447E-001	1.72457E-005	0.00000E+000	7.89600E-001	8.15923E-005	8	..........a	-327.66
	182	0.0366	7.99447E-001	1.72057E-005	0.00000E+000	7.99600E-001	8.15923E-005	8	..........a	-327.66
CURVE2	TABLE
	Pt	T	Vf	Im	Vu	Sig	Ach	IERange	Over	Temp
	#	s	V vs. Ref.	A	V	V	V	#	bits	deg C
	183	0.0368	7.89947E-001	1.50756E-005	0.00000E+000	7.90000E-001	8.15923E-005	8	..........a	-327.66
	184	0.037	7.80047E-001	1.33155E-005	0.00000E+000	7.80000E-001	8.15923E-005	8	..........a	-327.66
	185	0.0372	7.69847E-001	1.17654E-005	0.00000E+000	7.70000E-001	-2.18408E-004	8	..........a	-327.66
	186	0.0374	7.59847E-001	1.03654E-005	0.00000E+000	7.60000E-001	-4.18408E-004	8	..........a	-327.66
	187	0.0376	7.49847E-001	9.16534E-006	0.00000E+000	7.50000E-001	8.15923E-005	8	..........a	-327.66
	188	0.0378	7.39897E-001	8.02530E-006	0.00000E+000	7.40000E-001	-2.18408E-004	8	..........a	-327.66
	189	0.038	7.29947E-001	7.04526E-006	0.00000E+000	7.30000E-001	8.15923E-005	8	..........a	-327.66
	190	0.0382	7.19847E-001	6.06522E-006	0.00000E+000	7.20000E-001	-3.18408E-004	8	..........a	-327.66
	191	0.0384	7.09847E-001	5.25519E-006	0.00000E+000	7.10000E-001	8.15923E-005	8	..........a	-327.66
	192	0.0386	6.99947E-001	4.40516E-006	0.00000E+000	7.00000E-001	8.15923E-005	8	..........a	-327.66
	193	0.0388	6.89797E-001	3.71513E-006	0.00000E+000	6.90000E-001	8.15923E-005	8	..........a	-327.66
	194	0.039	6.80047E-001	3.02511E-006	0.00000E+000	6.80000E-001	8.15923E-005	8	..........a	-327.66
	195	0.0392	6.69897E-001	2.41508E-006	0.00000E+000	6.70000E-001	8.15923E-005	8	..........a	-327.66
	196	0.0394	6.59847E-001	1.82506E-006	0.00000E+000	6.60000E-001	8.15923E-005	8	..........a	-327.66
	197	0.0396	6.49847E-001	1.24504E-006	0.00000E+000	6.50000E-001	8.15923E-005	8	..........a	-327.66
	198	0.0398	6.39747E-001	6.75018E-007	0.00000E+000	6.40000E-001	8.15923E-005	8	..........a	-327.66
	199	0.04	6.29947E-001	2.25001E-007	0.00000E+000	6.30000E-001	8.15923E-005	8	..........a	-327.66
	200	0.0402	6.20047E-001	-2.75019E-007	0.00000E+000	6.20000E-001	8.15923E-005	8	..........a	-327.66
	201	0.0404	6.09797E-001	-6.75034E-007	0.00000E+000	6.10000E-001	-3.18408E-004	8	..........a	-327.66
	202	0.0406	5.99847E-001	-1.12505E-006	0.00000E+000	6.00000E-001	8.15923E-005	8	..........a	-327.66
	203	0.0408	5.90047E-001	-1.50507E-006	0.00000E+000	5.90000E-001	8.15923E-005	8	..........a	-327.66
	204	0.041	5.79897E-001	-1.88508E-006	0.00000E+000	5.80000E-001	8.15923E-005	8	..........a	-327.66
	205	0.0412	5.69847E-001	-2.27510E-006	0.00000E+000	5.70000E-001	-1.18408E-004	8	..........a	-327.66
	206	0.0414	5.59947E-001	-2.62511E-006	0.00000E+000	5.60000E-001	8.15923E-005	8	..........a	-327.66
	207	0.0416	5.49797E-001	-2.96512E-006	0.00000E+000	5.50000E-001	8.15923E-005	8	..........a	-327.66
	208	0.0418	5.39947E-001	-3.29513E-006	0.00000E+000	5.40000E-001	8.15923E-005	8	..........a	-327.66
	209	0.042	5.30147E-001	-3.59515E-006	0.00000E+000	5.30000E-001	8.15923E-005	8	..........a	-327.66
	210	0.0422	5.20047E-001	-3.88516E-006	0.00000E+000	5.20000E-001	8.15923E-005	8	..........a	-327.66
	211	0.0424	5.09947E-001	-4.21517E-006	0.00000E+000	5.10000E-001	8.15923E-005	8	..........a	-327.66
	212	0.0426	4.99847E-001	-4.51518E-006	0.00000E+000	5.00000E-001	8.15923E-005	8	..........a	-327.66
	213	0.0428	4.89947E-001	-4.80519E-006	0.00000E+000	4.90000E-001	8.15923E-005	8	..........a	-327.66
	214	0.043	4.79797E-001	-5.11520E-006	0.00000E+000	4.80000E-001	-3.18408E-004	8	..........a	-327.66
	215	0.0432	4.69947E-001	-5.33521E-006	0.00000E+000	4.70000E-001	8.15923E-005	8	..........a	-327.66
	216	0.0434	4.59847E-001	-5.59522E-006	0.00000E+000	4.60000E-001	-3.18408E-004	8	..........a	-327.66
	217	0.0436	4.49947E-001	-5.89523E-006	0.00000E+000	4.50000E-001	-3.18408E-004	8	..........a	-327.66
	218	0.0438	4.40047E-001	-6.15524E-006	0.00000E+000	4.40000E-001	8.15923E-005	8	..........a	-327.66
	219	0.044	4.29847E-001	-6.41525E-006	0.00000E+000	4.30000E-001	8.15923E-005	8	..........a	-327.66
	220	0.0442	4.19947E-001	-6.69526E-006	0.00000E+000	4.20000E-001	-4.18408E-004	8	..........a	-327.66
	221	0.0444	4.10047E-001	-6.93527E-006	0.00000E+000	4.10000E-001	-3.18408E-004	8	..........a	-327.66
	222	0.0446	3.99747E-001	-7.22528E-006	0.00000E+000	4.00000E-001	8.15923E-005	8	..........a	-327.66
	223	0.0448	3.90047E-001	-7.49529E-006	0.00000E+000	3.90000E-001	-4.18408E-004	8	..........a	-327.66
	224	0.045	3.80147E-001	-7.75530E-006	0.00000E+000	3.80000E-001	8.15923E-005	8	..........a	-327.66
	225	0.0452	3.70047E-001	-8.05532E-006	0.00000E+000	3.70000E-001	8.15923E-005	8	..........a	-327.66
	226	0.0454	3.60047E-001	-8.27532E-006	0.00000E+000	3.60000E-001	-3.18408E-004	8	..........a	-327.66
	227	0.0456	3.50047E-001	-8.55534E-006	0.00000E+000	3.50000E-001	8.15923E-005	8	..........a	-327.66
	228	0.0458	3.40047E-001	-8.72534E-006	0.00000E+000	3.40000E-001	8.15923E-005	8	..........a	-327.66
	229	0.046	3.30047E-001	-9.00535E-006	0.00000E+000	3.30000E-001	8.15923E-005	8	..........a	-327.66
	230	0.0462	3.20047E-001	-9.31536E-006	0.00000E+000	3.20000E-001	8.15923E-005	8	..........a	-327.66
	231	0.0464	3.10047E-001	-9.55537E-006	0.00000E+000	3.10000E-001	8.15923E-005	8	..........a	-327.66
	232	0.0466	3.00047E-001	-9.83538E-006	0.00000E+000	3.00000E-001	8.15923E-005	8	..........a	-327.66
	233	0.0468	2.90047E-001	-9.93539E-006	0.00000E+000	2.90000E-001	8.15923E-005	8	..........a	-327.66
	234	0.047	2.79947E-001	-1.02854E-005	0.00000E+000	2.80000E-001	8.15923E-005	8	..........a	-327.66
	235	0.0472	2.70047E-001	-1.05354E-005	0.00000E+000	2.70000E-001	8.15923E-005	8	..........a	-327.66
	236	0.0474	2.60047E-001	-1.07554E-005	0.00000E+000	2.60000E-001	-3.18408E-004	8	..........a	-327.66
	237	0.0476	2.50047E-001	-1.09254E-005	0.00000E+000	2.50000E-001	-2.18408E-004	8	..........a	-327.66
	238	0.0478	2.40047E-001	-1.11554E-005	0.00000E+000	2.40000E-001	8.15923E-005	8	..........a	-327.66
	239	0.048	2.30047E-001	-1.13554E-005	0.00000E+000	2.30000E-001	8.15923E-005	8	..........a	-327.66
	240	0.0482	2.19847E-001	-1.15555E-005	0.00000E+000	2.20000E-001	8.15923E-005	8	..........a	-327.66
	241	0.0484	2.09947E-001	-1.17355E-005	0.00000E+000	2.10000E-001	8.15923E-005	8	..........a	-327.66
	242	0.0486	2.00247E-001	-1.18955E-005	0.00000E+000	2.00000E-001	-2.18408E-004	8	..........a	-327.66
	243	0.0488	1.90147E-001	-1.20855E-005	0.00000E+000	1.90000E-001	8.15923E-005	8	..........a	-327.66
	244	0.049	1.80147E-001	-1.22455E-005	0.00000E+000	1.80000E-001	-1.18408E-004	8	..........a	-327.66
	245	0.0492	1.69947E-001	-1.23655E-005	0.00000E+000	1.70000E-001	-3.18408E-004	8	..........a	-327.66
	246	0.0494	1.60147E-001	-1.24855E-005	0.00000E+000	1.60000E-001	8.15923E-005	8	..........a	-327.66
	247	0.0496	1.50047E-001	-1.26555E-005	0.00000E+000	1.50000E-001	8.15923E-005	8	..........a	-327.66
	248	0.0498	1.40147E-001	-1.27355E-005	0.00000E+000	1.40000E-001	8.15923E-005	8	..........a	-327.66
	249	0.05	1.30097E-001	-1.28355E-005	0.00000E+000	1.30000E-001	-1.18408E-004	8	..........a	-327.66
	250	0.0502	1.19947E-001	-1.29955E-005	0.00000E+000	1.20000E-001	8.15923E-005	8	..........a	-327.66
	251	0.0504	1.09947E-001	-1.30955E-005	0.00000E+000	1.10000E-001	8.15923E-005	8	..........a	-327.66
	252	0.0506	1.00147E-001	-1.31755E-005	0.00000E+000	1.00000E-001	8.15923E-005	8	..........a	-327.66
	253	0.0508	9.00471E-002	-1.32155E-005	0.00000E+000	9.00000E-002	8.15923E-005	8	..........a	-327.66
	254	0.051	8.00471E-002	-1.32455E-005	0.00000E+000	8.00000E-002	8.15923E-005	8	..........a	-327.66
	255	0.0512	6.99471E-002	-1.32855E-005	0.00000E+000	7.00000E-002	-3.18408E-004	8	..........a	-327.66
	256	0.0514	6.00471E-002	-1.33955E-005	0.00000E+000	6.00000E-002	-3.18408E-004	8	..........a	-327.66
	257	0.0516	4.98971E-002	-1.34155E-005	0.00000E+000	5.00000E-002	8.15923E-005	8	..........a	-327.66
	258	0.0518	4.00471E-002	-1.34455E-005	0.00000E+000	4.00000E-002	8.15923E-005	8	..........a	-327.66
	259	0.052	3.00471E-002	-1.34755E-005	0.00000E+000	3.00000E-002	8.15923E-005	8	..........a	-327.66
	260	0.0522	2.01471E-002	-1.34855E-005	0.00000E+000	2.00000E-002	8.15923E-005	8	..........a	-327.66
	261	0.0524	1.00471E-002	-1.34755E-005	0.00000E+000	1.00000E-002	8.15923E-005	8	..........a	-327.66
	262	0.0526	-5.28858E-005	-1.34655E-005	0.00000E+000	7.45058E-009	8.15923E-005	8	..........a	-327.66
	263	0.0528	-1.00529E-002	-1.34055E-005	0.00000E+000	-1.00000E-002	8.15923E-005	8	..........a	-327.66
	264	0.053	-1.99529E-002	-1.34355E-005	0.00000E+000	-2.00000E-002	8.15923E-005	8	..........a	-327.66
	265	0.0532	-2.99529E-002	-1.34155E-005	0.00000E+000	-3.00000E-002	-3.18408E-004	8	..........a	-327.66
	266	0.0534	-3.99529E-002	-1.34155E-005	0.00000E+000	-4.00000E-002	8.15923E-005	8	..........a	-327.66
	267	0.0536	-5.00529E-002	-1.33155E-005	0.00000E+000	-5.00000E-002	8.15923E-005	8	..........a	-327.66
	268	0.0538	-5.99529E-002	-1.32555E-005	0.00000E+000	-6.00000E-002	8.15923E-005	8	..........a	-327.66
	269	0.054	-6.99529E-002	-1.32455E-005	0.00000E+000	-7.00000E-002	-1.18408E-004	8	..........a	-327.66
	270	0.0542	-7.98529E-002	-1.31755E-005	0.00000E+000	-8.00000E-002	8.15923E-005	8	..........a	-327.66
	271	0.0544	-8.99529E-002	-1.30455E-005	0.00000E+000	-9.00000E-002	-3.18408E-004	8	..........a	-327.66
	272	0.0546	-9.97529E-002	-1.29955E-005	0.00000E+000	-1.00000E-001	8.15923E-005	8	..........a	-327.66
	273	0.0548	-1.10253E-001	-1.28955E-005	0.00000E+000	-1.10000E-001	8.15923E-005	8	..........a	-327.66
	274	0.055	-1.20053E-001	-1.28055E-005	0.00000E+000	-1.20000E-001	8.15923E-005	8	..........a	-327.66
	275	0.0552	-1.30153E-001	-1.26855E-005	0.00000E+000	-1.30000E-001	8.15923E-005	8	..........a	-327.66
	276	0.0554	-1.39903E-001	-1.25755E-005	0.00000E+000	-1.40000E-001	8.15923E-005	8	..........a	-327.66
	277	0.0556	-1.49953E-001	-1.24455E-005	0.00000E+000	-1.50000E-001	8.15923E-005	8	..........a	-327.66
	278	0.0558	-1.59953E-001	-1.23655E-005	0.00000E+000	-1.60000E-001	8.15923E-005	8	..........a	-327.66
	279	0.056	-1.69953E-001	-1.22255E-005	0.00000E+000	-1.70000E-001	-4.18408E-004	8	..........a	-327.66
	280	0.0562	-1.79953E-001	-1.20955E-005	0.00000E+000	-1.80000E-001	8.15923E-005	8	..........a	-327.66
	281	0.0564	-1.89953E-001	-1.19855E-005	0.00000E+000	-1.90000E-001	-3.18408E-004	8	..........a	-327.66
	282	0.0566	-1.99953E-001	-1.19055E-005	0.00000E+000	-2.00000E-001	8.15923E-005	8	..........a	-327.66
	283	0.0568	-2.09953E-001	-1.17355E-005	0.00000E+000	-2.10000E-001	8.15923E-005	8	..........a	-327.66
	284	0.057	-2.19953E-001	-1.16555E-005	0.00000E+000	-2.20000E-001	-3.18408E-004	8	..........a	-327.66
	285	0.0572	-2.30053E-001	-1.15555E-005	0.00000E+000	-2.30000E-001	-3.18408E-004	8	..........a	-327.66
	286	0.0574	-2.39853E-001	-1.14254E-005	0.00000E+000	-2.40000E-001	8.15923E-005	8	..........a	-327.66
	287	0.0576	-2.49953E-001	-1.12954E-005	0.00000E+000	-2.50000E-001	8.15923E-005	8	..........a	-327.66
	288	0.0578	-2.59853E-001	-1.12154E-005	0.00000E+000	-2.60000E-001	-3.18408E-004	8	..........a	-327.66
	289	0.058	-2.69953E-001	-1.10954E-005	0.00000E+000	-2.70000E-001	8.15923E-005	8	..........a	-327.66
	290	0.0582	-2.80153E-001	-1.10054E-005	0.00000E+000	-2.80000E-001	8.15923E-005	8	..........a	-327.66
	291	0.0584	-2.90053E-001	-1.09454E-005	0.00000E+000	-2.90000E-001	8.15923E-005	8	..........a	-327.66
	292	0.0586	-2.99953E-001	-1.08454E-005	0.00000E+000	-3.00000E-001	8.15923E-005	8	..........a	-327.66
	293	0.0588	-3.09953E-001	-1.07854E-005	0.00000E+000	-3.10000E-001	8.15923E-005	8	..........a	-327.66
	294	0.059	-3.19753E-001	-1.06554E-005	0.00000E+000	-3.20000E-001	8.15923E-005	8	..........a	-327.66
	295	0.0592	-3.29953E-001	-1.06354E-005	0.00000E+000	-3.30000E-001	-2.18408E-004	8	..........a	-327.66
	296	0.0594	-3.39853E-001	-1.05454E-005	0.00000E+000	-3.40000E-001	-3.18408E-004	8	..........a	-327.66
	297	0.0596	-3.49953E-001	-1.04554E-005	0.00000E+000	-3.50000E-001	8.15923E-005	8	..........a	-327.66
	298	0.0598	-3.59853E-001	-1.04054E-005	0.00000E+000	-3.60000E-001	8.15923E-005	8	..........a	-327.66
	299	0.06	-3.69953E-001	-1.03454E-005	0.00000E+000	-3.70000E-001	8.15923E-005	8	..........a	-327.66
	300	0.0602	-3.79953E-001	-1.02954E-005	0.00000E+000	-3.80000E-001	8.15923E-005	8	..........a	-327.66
	301	0.0604	-3.89853E-001	-1.02454E-005	0.00000E+000	-3.90000E-001	-2.18408E-004	8	..........a	-327.66
	302	0.0606	-3.99953E-001	-1.02254E-005	0.00000E+000	-4.00000E-001	8.15923E-005	8	..........a	-327.66
	303	0.0608	-4.09953E-001	-1.01854E-005	0.00000E+000	-4.10000E-001	8.15923E-005	8	..........a	-327.66
	304	0.061	-4.19753E-001	-1.01354E-005	0.00000E+000	-4.20000E-001	8.15923E-005	8	..........a	-327.66
	305	0.0612	-4.29953E-001	-1.01154E-005	0.00000E+000	-4.30000E-001	8.15923E-005	8	..........a	-327.66
	306	0.0614	-4.39853E-001	-1.00854E-005	0.00000E+000	-4.40000E-001	8.15923E-005	8	..........a	-327.66
	307	0.0616	-4.49853E-001	-1.00954E-005	0.00000E+000	-4.50000E-001	8.15923E-005	8	..........a	-327.66
	308	0.0618	-4.59853E-001	-1.00154E-005	0.00000E+000	-4.60000E-001	8.15923E-005	8	..........a	-327.66
	309	0.062	-4.69953E-001	-1.00854E-005	0.00000E+000	-4.70000E-001	8.15923E-005	8	..........a	-327.66
	310	0.0622	-4.80053E-001	-1.00554E-005	0.00000E+000	-4.80000E-001	8.15923E-005	8	..........a	-327.66
	311	0.0624	-4.89953E-001	-1.00154E-005	0.00000E+000	-4.90000E-001	-3.18408E-004	8	..........a	-327.66
	312	0.0626	-4.99953E-001	-1.00154E-005	0.00000E+000	-5.00000E-001	8.15923E-005	8	..........a	-327.66
	313	0.0628	-5.09853E-001	-1.00354E-005	0.00000E+000	-5.10000E-001	8.15923E-005	8	..........a	-327.66
	314	0.063	-5.19653E-001	-1.00754E-005	0.00000E+000	-5.20000E-001	8.15923E-005	8	..........a	-327.66
	315	0.0632	-5.29853E-001	-1.00254E-005	0.00000E+000	-5.30000E-001	-3.18408E-004	8	..........a	-327.66
	316	0.0634	-5.39853E-001	-1.00054E-005	0.00000E+000	-5.40000E-001	-3.18408E-004	8	..........a	-327.66
	317	0.0636	-5.49953E-001	-1.01154E-005	0.00000E+000	-5.50000E-001	-3.18408E-004	8	..........a	-327.66
	318	0.0638	-5.59753E-001	-1.00854E-005	0.00000E+000	-5.60000E-001	8.15923E-005	8	..........a	-327.66
	319	0.064	-5.69953E-001	-1.01254E-005	0.00000E+000	-5.70000E-001	8.15923E-005	8	..........a	-327.66
	320	0.0642	-5.79953E-001	-1.01754E-005	0.00000E+000	-5.80000E-001	8.15923E-005	8	..........a	-327.66
	321	0.0644	-5.89953E-001	-1.02054E-005	0.00000E+000	-5.90000E-001	-3.18408E-004	8	..........a	-327.66
	322	0.0646	-5.99753E-001	-1.02154E-005	0.00000E+000	-6.00000E-001	8.15923E-005	8	..........a	-327.66
	323	0.0648	-5.89953E-001	-8.35533E-006	0.00000E+000	-5.90000E-001	8.15923E-005	8	..........a	-327.66
	324	0.065	-5.79753E-001	-6.91527E-006	0.00000E+000	-5.80000E-001	8.15923E-005	8	..........a	-327.66
	325	0.0652	-5.69953E-001	-5.68523E-006	0.00000E+000	-5.70000E-001	8.15923E-005	8	..........a	-327.66
	326	0.0654	-5.59853E-001	-4.63519E-006	0.00000E+000	-5.60000E-001	8.15923E-005	8	..........a	-327.66
	327	0.0656	-5.49953E-001	-3.68515E-006	0.00000E+000	-5.50000E-001	-3.18408E-004	8	..........a	-327.66
	328	0.0658	-5.39753E-001	-2.91512E-006	0.00000E+000	-5.40000E-001	8.15923E-005	8	..........a	-327.66
	329	0.066	-5.29953E-001	-2.13509E-006	0.00000E+000	-5.30000E-001	-3.18408E-004	8	..........a	-327.66
	330	0.0662	-5.19753E-001	-1.46506E-006	0.00000E+000	-5.20000E-001	8.15923E-005	8	..........a	-327.66
	331	0.0664	-5.09953E-001	-8.65041E-007	0.00000E+000	-5.10000E-001	8.15923E-005	8	..........a	-327.66
	332	0.0666	-4.99853E-001	-3.55022E-007	0.00000E+000	-5.00000E-001	8.15923E-005	8	..........a	-327.66
	333	0.0668	-4.90003E-001	1.54998E-007	0.00000E+000	-4.90000E-001	8.15923E-005	8	..........a	-327.66
	334	0.067	-4.79953E-001	6.25016E-007	0.00000E+000	-4.80000E-001	8.15923E-005	8	..........a	-327.66
	335	0.0672	-4.69953E-001	1.00503E-006	0.00000E+000	-4.70000E-001	8.15923E-005	8	..........a	-327.66
	336	0.0674	-4.59953E-001	1.48505E-006	0.00000E+000	-4.60000E-001	-2.18408E-004	8	..........a	-327.66
	337	0.0676	-4.49953E-001	1.78506E-006	0.00000E+000	-4.50000E-001	8.15923E-005	8	..........a	-327.66
	338	0.0678	-4.39953E-001	2.07507E-006	0.00000E+000	-4.40000E-001	8.15923E-005	8	..........a	-327.66
	339	0.068	-4.29753E-001	2.36508E-006	0.00000E+000	-4.30000E-001	8.15923E-005	8	..........a	-327.66
	340	0.0682	-4.19803E-001	2.66509E-006	0.00000E+000	-4.20000E-001	8.15923E-005	8	..........a	-327.66
	341	0.0684	-4.09953E-001	2.89510E-006	0.00000E+000	-4.10000E-001	8.15923E-005	8	..........a	-327.66
	342	0.0686	-3.99953E-001	3.18511E-006	0.00000E+000	-4.00000E-001	8.15923E-005	8	..........a	-327.66
	343	0.0688	-3.90053E-001	3.38512E-006	0.00000E+000	-3.90000E-001	8.15923E-005	8	..........a	-327.66
[...]
	2604	0.521	-1.79803E-001	6.13523E-006	0.00000E+000	-1.80000E-001	8.15923E-005	8	..........a	-327.66
	2605	0.5212	-1.69953E-001	6.20523E-006	0.00000E+000	-1.70000E-001	8.15923E-005	8	..........a	-327.66
	2606	0.5214	-1.60053E-001	6.31523E-006	0.00000E+000	-1.60000E-001	8.15923E-005	8	..........a	-327.66
	2607	0.5216	-1.50053E-001	6.39524E-006	0.00000E+000	-1.50000E-001	8.15923E-005	8	..........a	-327.66
	2608	0.5218	-1.39753E-001	6.48524E-006	0.00000E+000	-1.40000E-001	-3.18408E-004	8	..........a	-327.66
	2609	0.522	-1.29953E-001	6.59524E-006	0.00000E+000	-1.30000E-001	8.15923E-005	8	..........a	-327.66
	2610	0.5222	-1.19953E-001	6.71525E-006	0.00000E+000	-1.20000E-001	8.15923E-005	8	..........a	-327.66
	2611	0.5224	-1.09953E-001	6.75525E-006	0.00000E+000	-1.10000E-001	8.15923E-005	8	..........a	-327.66
	2612	0.5226	-9.99529E-002	6.84525E-006	0.00000E+000	-1.00000E-001	8.15923E-005	8	..........a	-327.66
	2613	0.5228	-8.99529E-002	6.92526E-006	0.00000E+000	-9.00000E-002	8.15923E-005	8	..........a	-327.66
	2614	0.523	-7.99529E-002	7.04526E-006	0.00000E+000	-8.00000E-002	8.15923E-005	8	..........a	-327.66
	2615	0.5232	-6.99529E-002	7.11526E-006	0.00000E+000	-7.00000E-002	8.15923E-005	8	..........a	-327.66
	2616	0.5234	-6.00529E-002	7.25527E-006	0.00000E+000	-6.00000E-002	-3.18408E-004	8	..........a	-327.66
	2617	0.5236	-4.99529E-002	7.29527E-006	0.00000E+000	-5.00000E-002	8.15923E-005	8	..........a	-327.66
	2618	0.5238	-3.99529E-002	7.35527E-006	0.00000E+000	-4.00000E-002	8.15923E-005	8	..........a	-327.66
	2619	0.524	-3.00529E-002	7.44528E-006	0.00000E+000	-3.00000E-002	8.15923E-005	8	..........a	-327.66
	2620	0.5242	-2.00529E-002	7.53528E-006	0.00000E+000	-2.00000E-002	8.15923E-005	8	..........a	-327.66
	2621	0.5244	-1.00529E-002	7.60528E-006	0.00000E+000	-1.00000E-002	8.15923E-005	8	..........a	-327.66
	2622	0.5246	-2.88584E-006	7.69529E-006	0.00000E+000	7.45058E-009	-2.18408E-004	8	..........a	-327.66
	2623	0.5248	1.00471E-002	7.84529E-006	0.00000E+000	1.00000E-002	8.15923E-005	8	..........a	-327.66
	2624	0.525	1.99971E-002	7.93530E-006	0.00000E+000	2.00000E-002	8.15923E-005	8	..........a	-327.66
	2625	0.5252	3.00471E-002	8.03530E-006	0.00000E+000	3.00000E-002	8.15923E-005	8	..........a	-327.66
	2626	0.5254	4.00471E-002	8.11530E-006	0.00000E+000	4.00000E-002	8.15923E-005	8	..........a	-327.66
	2627	0.5256	4.98971E-002	8.27531E-006	0.00000E+000	5.00000E-002	8.15923E-005	8	..........a	-327.66
	2628	0.5258	6.00471E-002	8.39531E-006	0.00000E+000	6.00000E-002	8.15923E-005	8	..........a	-327.66
	2629	0.526	7.00471E-002	8.49532E-006	0.00000E+000	7.00000E-002	8.15923E-005	8	..........a	-327.66
	2630	0.5262	8.00471E-002	8.60532E-006	0.00000E+000	8.00000E-002	8.15923E-005	8	..........a	-327.66
	2631	0.5264	9.01471E-002	8.74533E-006	0.00000E+000	9.00000E-002	8.15923E-005	8	..........a	-327.66
	2632	0.5266	1.00047E-001	8.90533E-006	0.00000E+000	1.00000E-001	8.15923E-005	8	..........a	-327.66
	2633	0.5268	1.10047E-001	9.00534E-006	0.00000E+000	1.10000E-001	8.15923E-005	8	..........a	-327.66
	2634	0.527	1.20147E-001	9.19534E-006	0.00000E+000	1.20000E-001	-3.18408E-004	8	..........a	-327.66
	2635	0.5272	1.30147E-001	9.30535E-006	0.00000E+000	1.30000E-001	8.15923E-005	8	..........a	-327.66
	2636	0.5274	1.40047E-001	9.46535E-006	0.00000E+000	1.40000E-001	8.15923E-005	8	..........a	-327.66
	2637	0.5276	1.50047E-001	9.66536E-006	0.00000E+000	1.50000E-001	8.15923E-005	8	..........a	-327.66
	2638	0.5278	1.60047E-001	9.77537E-006	0.00000E+000	1.60000E-001	8.15923E-005	8	..........a	-327.66
	2639	0.528	1.70047E-001	9.96537E-006	0.00000E+000	1.70000E-001	8.15923E-005	8	..........a	-327.66
	2640	0.5282	1.80047E-001	1.01254E-005	0.00000E+000	1.80000E-001	8.15923E-005	8	..........a	-327.66
	2641	0.5284	1.90047E-001	1.02954E-005	0.00000E+000	1.90000E-001	8.15923E-005	8	..........a	-327.66
	2642	0.5286	1.99947E-001	1.04554E-005	0.00000E+000	2.00000E-001	8.15923E-005	8	..........a	-327.66
	2643	0.5288	2.10147E-001	1.06454E-005	0.00000E+000	2.10000E-001	-3.18408E-004	8	..........a	-327.66
	2644	0.529	2.19847E-001	1.08154E-005	0.00000E+000	2.20000E-001	-3.18408E-004	8	..........a	-327.66
	2645	0.5292	2.29947E-001	1.09954E-005	0.00000E+000	2.30000E-001	8.15923E-005	8	..........a	-327.66
	2646	0.5294	2.39947E-001	1.11454E-005	0.00000E+000	2.40000E-001	8.15923E-005	8	..........a	-327.66
	2647	0.5296	2.49947E-001	1.13254E-005	0.00000E+000	2.50000E-001	8.15923E-005	8	..........a	-327.66
	2648	0.5298	2.60147E-001	1.15454E-005	0.00000E+000	2.60000E-001	8.15923E-005	8	..........a	-327.66
	2649	0.53	2.69947E-001	1.17154E-005	0.00000E+000	2.70000E-001	8.15923E-005	8	..........a	-327.66
	2650	0.5302	2.79947E-001	1.18854E-005	0.00000E+000	2.80000E-001	-3.18408E-004	8	..........a	-327.66
	2651	0.5304	2.89897E-001	1.20955E-005	0.00000E+000	2.90000E-001	8.15923E-005	8	..........a	-327.66
	2652	0.5306	3.00147E-001	1.22555E-005	0.00000E+000	3.00000E-001	-3.18408E-004	8	..........a	-327.66
	2653	0.5308	3.09947E-001	1.23955E-005	0.00000E+000	3.10000E-001	8.15923E-005	8	..........a	-327.66
	2654	0.531	3.20047E-001	1.26455E-005	0.00000E+000	3.20000E-001	8.15923E-005	8	..........a	-327.66
	2655	0.5312	3.29697E-001	1.27655E-005	0.00000E+000	3.30000E-001	8.15923E-005	8	..........a	-327.66
	2656	0.5314	3.39947E-001	1.29655E-005	0.00000E+000	3.40000E-001	-3.18408E-004	8	..........a	-327.66
	2657	0.5316	3.49797E-001	1.31255E-005	0.00000E+000	3.50000E-001	8.15923E-005	8	..........a	-327.66
	2658	0.5318	3.59947E-001	1.33155E-005	0.00000E+000	3.60000E-001	-3.18408E-004	8	..........a	-327.66
	2659	0.532	3.70047E-001	1.34755E-005	0.00000E+000	3.70000E-001	8.15923E-005	8	..........a	-327.66
	2660	0.5322	3.80147E-001	1.36155E-005	0.00000E+000	3.80000E-001	8.15923E-005	8	..........a	-327.66
	2661	0.5324	3.90047E-001	1.38155E-005	0.00000E+000	3.90000E-001	8.15923E-005	8	..........a	-327.66
	2662	0.5326	3.99947E-001	1.39855E-005	0.00000E+000	4.00000E-001	8.15923E-005	8	..........a	-327.66
	2663	0.5328	4.09947E-001	1.41355E-005	0.00000E+000	4.10000E-001	8.15923E-005	8	..........a	-327.66
	2664	0.533	4.20047E-001	1.43155E-005	0.00000E+000	4.20000E-001	-2.18408E-004	8	..........a	-327.66
	2665	0.5332	4.29947E-001	1.44455E-005	0.00000E+000	4.30000E-001	-1.18408E-004	8	..........a	-327.66
	2666	0.5334	4.39847E-001	1.46256E-005	0.00000E+000	4.40000E-001	8.15923E-005	8	..........a	-327.66
	2667	0.5336	4.50047E-001	1.47656E-005	0.00000E+000	4.50000E-001	8.15923E-005	8	..........a	-327.66
	2668	0.5338	4.60047E-001	1.48656E-005	0.00000E+000	4.60000E-001	-2.18408E-004	8	..........a	-327.66
	2669	0.534	4.70147E-001	1.51056E-005	0.00000E+000	4.70000E-001	8.15923E-005	8	..........a	-327.66
	2670	0.5342	4.79697E-001	1.51656E-005	0.00000E+000	4.80000E-001	-3.18408E-004	8	..........a	-327.66
	2671	0.5344	4.89847E-001	1.52956E-005	0.00000E+000	4.90000E-001	8.15923E-005	8	..........a	-327.66
	2672	0.5346	4.99897E-001	1.54456E-005	0.00000E+000	5.00000E-001	8.15923E-005	8	..........a	-327.66
	2673	0.5348	5.09797E-001	1.55756E-005	0.00000E+000	5.10000E-001	-3.18408E-004	8	..........a	-327.66
	2674	0.535	5.19847E-001	1.57056E-005	0.00000E+000	5.20000E-001	8.15923E-005	8	..........a	-327.66
	2675	0.5352	5.29947E-001	1.57956E-005	0.00000E+000	5.30000E-001	8.15923E-005	8	..........a	-327.66
	2676	0.5354	5.40047E-001	1.58856E-005	0.00000E+000	5.40000E-001	8.15923E-005	8	..........a	-327.66
	2677	0.5356	5.49947E-001	1.60056E-005	0.00000E+000	5.50000E-001	8.15923E-005	8	..........a	-327.66
	2678	0.5358	5.59947E-001	1.61356E-005	0.00000E+000	5.60000E-001	8.15923E-005	8	..........a	-327.66
	2679	0.536	5.70047E-001	1.61656E-005	0.00000E+000	5.70000E-001	8.15923E-005	8	..........a	-327.66
	2680	0.5362	5.79947E-001	1.62656E-005	0.00000E+000	5.80000E-001	8.15923E-005	8	..........a	-327.66
	2681	0.5364	5.89847E-001	1.63456E-005	0.00000E+000	5.90000E-001	-2.18408E-004	8	..........a	-327.66
	2682	0.5366	5.99797E-001	1.63556E-005	0.00000E+000	6.00000E-001	8.15923E-005	8	..........a	-327.66
	2683	0.5368	6.09947E-001	1.64056E-005	0.00000E+000	6.10000E-001	8.15923E-005	8	..........a	-327.66
	2684	0.537	6.19947E-001	1.64056E-005	0.00000E+000	6.20000E-001	8.15923E-005	8	..........a	-327.66
	2685	0.5372	6.30047E-001	1.64756E-005	0.00000E+000	6.30000E-001	8.15923E-005	8	..........a	-327.66
	2686	0.5374	6.39847E-001	1.65356E-005	0.00000E+000	6.40000E-001	8.15923E-005	8	..........a	-327.66
	2687	0.5376	6.49647E-001	1.64956E-005	0.00000E+000	6.50000E-001	8.15923E-005	8	..........a	-327.66
	2688	0.5378	6.60047E-001	1.65256E-005	0.00000E+000	6.60000E-001	8.15923E-005	8	..........a	-327.66
	2689	0.538	6.70047E-001	1.65156E-005	0.00000E+000	6.70000E-001	8.15923E-005	8	..........a	-327.66
	2690	0.5382	6.79947E-001	1.65056E-005	0.00000E+000	6.80000E-001	-3.18408E-004	8	..........a	-327.66
	2691	0.5384	6.89747E-001	1.65056E-005	0.00000E+000	6.90000E-001	8.15923E-005	8	..........a	-327.66
	2692	0.5386	6.99847E-001	1.64256E-005	0.00000E+000	7.00000E-001	8.15923E-005	8	..........a	-327.66
	2693	0.5388	7.09947E-001	1.63556E-005	0.00000E+000	7.10000E-001	-3.18408E-004	8	..........a	-327.66
	2694	0.539	7.19947E-001	1.63456E-005	0.00000E+000	7.20000E-001	8.15923E-005	8	..........a	-327.66
	2695	0.5392	7.29847E-001	1.63456E-005	0.00000E+000	7.30000E-001	8.15923E-005	8	..........a	-327.66
	2696	0.5394	7.40047E-001	1.63056E-005	0.00000E+000	7.40000E-001	8.15923E-005	8	..........a	-327.66
	2697	0.5396	7.49947E-001	1.62656E-005	0.00000E+000	7.50000E-001	8.15923E-005	8	..........a	-327.66
	2698	0.5398	7.59847E-001	1.62056E-005	0.00000E+000	7.60000E-001	8.15923E-005	8	..........a	-327.66
	2699	0.54	7.70047E-001	1.61256E-005	0.00000E+000	7.70000E-001	8.15923E-005	8	..........a	-327.66
	2700	0.5402	7.79847E-001	1.61056E-005	0.00000E+000	7.80000E-001	8.15923E-005	8	..........a	-327.66
	2701	0.5404	7.89847E-001	1.60856E-005	0.00000E+000	7.90000E-001	8.15923E-005	8	..........a	-327.66
	2702	0.5406	7.99847E-001	1.60456E-005	0.00000E+000	8.00000E-001	-1.18408E-004	8	..........a	-327.66
CURVE11	TABLE
	Pt	T	Vf	Im	Vu	Sig	Ach	IERange	Over	Temp
	#	s	V vs. Ref.	A	V	V	V	#	bits	deg C
	2703	0.5408	7.89897E-001	1.38755E-005	0.00000E+000	7.90000E-001	-4.18408E-004	8	..........a	-327.66
	2704	0.541	7.80047E-001	1.21055E-005	0.00000E+000	7.80000E-001	-3.18408E-004	8	..........a	-327.66
	2705	0.5412	7.69797E-001	1.05954E-005	0.00000E+000	7.70000E-001	8.15923E-005	8	..........a	-327.66
	2706	0.5414	7.59847E-001	9.23535E-006	0.00000E+000	7.60000E-001	8.15923E-005	8	..........a	-327.66
	2707	0.5416	7.50047E-001	8.03530E-006	0.00000E+000	7.50000E-001	8.15923E-005	8	..........a	-327.66
	2708	0.5418	7.40147E-001	6.92526E-006	0.00000E+000	7.40000E-001	-3.18408E-004	8	..........a	-327.66
	2709	0.542	7.29947E-001	5.95522E-006	0.00000E+000	7.30000E-001	8.15923E-005	8	..........a	-327.66
	2710	0.5422	7.19847E-001	5.06519E-006	0.00000E+000	7.20000E-001	8.15923E-005	8	..........a	-327.66
	2711	0.5424	7.09847E-001	4.18515E-006	0.00000E+000	7.10000E-001	8.15923E-005	8	..........a	-327.66
	2712	0.5426	6.99847E-001	3.39512E-006	0.00000E+000	7.00000E-001	8.15923E-005	8	..........a	-327.66
	2713	0.5428	6.89947E-001	2.74510E-006	0.00000E+000	6.90000E-001	8.15923E-005	8	..........a	-327.66
	2714	0.543	6.79847E-001	2.02507E-006	0.00000E+000	6.80000E-001	-4.18408E-004	8	..........a	-327.66
	2715	0.5432	6.70047E-001	1.43505E-006	0.00000E+000	6.70000E-001	8.15923E-005	8	..........a	-327.66
	2716	0.5434	6.60047E-001	8.85026E-007	0.00000E+000	6.60000E-001	8.15923E-005	8	..........a	-327.66
	2717	0.5436	6.49947E-001	3.45005E-007	0.00000E+000	6.50000E-001	-2.18408E-004	8	..........a	-327.66
	2718	0.5438	6.39947E-001	-1.45014E-007	0.00000E+000	6.40000E-001	8.15923E-005	8	..........a	-327.66
	2719	0.544	6.29947E-001	-5.95031E-007	0.00000E+000	6.30000E-001	-2.18408E-004	8	..........a	-327.66
	2720	0.5442	6.19947E-001	-1.07505E-006	0.00000E+000	6.20000E-001	8.15923E-005	8	..........a	-327.66
	2721	0.5444	6.09947E-001	-1.47506E-006	0.00000E+000	6.10000E-001	8.15923E-005	8	..........a	-327.66
	2722	0.5446	5.99847E-001	-1.86508E-006	0.00000E+000	6.00000E-001	8.15923E-005	8	..........a	-327.66
	2723	0.5448	5.89847E-001	-2.25509E-006	0.00000E+000	5.90000E-001	8.15923E-005	8	..........a	-327.66
	2724	0.545	5.80047E-001	-2.63511E-006	0.00000E+000	5.80000E-001	8.15923E-005	8	..........a	-327.66
	2725	0.5452	5.69847E-001	-2.95512E-006	0.00000E+000	5.70000E-001	8.15923E-005	8	..........a	-327.66
	2726	0.5454	5.60047E-001	-3.24513E-006	0.00000E+000	5.60000E-001	8.15923E-005	8	..........a	-327.66
	2727	0.5456	5.49997E-001	-3.57515E-006	0.00000E+000	5.50000E-001	8.15923E-005	8	..........a	-327.66
	2728	0.5458	5.39947E-001	-3.93516E-006	0.00000E+000	5.40000E-001	8.15923E-005	8	..........a	-327.66
	2729	0.546	5.29947E-001	-4.21517E-006	0.00000E+000	5.30000E-001	8.15923E-005	8	..........a	-327.66
	2730	0.5462	5.20047E-001	-4.53518E-006	0.00000E+000	5.20000E-001	8.15923E-005	8	..........a	-327.66
	2731	0.5464	5.09947E-001	-4.75519E-006	0.00000E+000	5.10000E-001	8.15923E-005	8	..........a	-327.66
	2732	0.5466	4.99947E-001	-5.05520E-006	0.00000E+000	5.00000E-001	8.15923E-005	8	..........a	-327.66
	2733	0.5468	4.89947E-001	-5.34521E-006	0.00000E+000	4.90000E-001	8.15923E-005	8	..........a	-327.66
	2734	0.547	4.80247E-001	-5.61522E-006	0.00000E+000	4.80000E-001	8.15923E-005	8	..........a	-327.66
	2735	0.5472	4.69997E-001	-5.86523E-006	0.00000E+000	4.70000E-001	8.15923E-005	8	..........a	-327.66
	2736	0.5474	4.60047E-001	-6.11524E-006	0.00000E+000	4.60000E-001	8.15923E-005	8	..........a	-327.66
	2737	0.5476	4.50047E-001	-6.35525E-006	0.00000E+000	4.50000E-001	8.15923E-005	8	..........a	-327.66
	2738	0.5478	4.39847E-001	-6.63526E-006	0.00000E+000	4.40000E-001	8.15923E-005	8	..........a	-327.66
	2739	0.548	4.29947E-001	-6.87527E-006	0.00000E+000	4.30000E-001	8.15923E-005	8	..........a	-327.66
	2740	0.5482	4.19947E-001	-7.11528E-006	0.00000E+000	4.20000E-001	8.15923E-005	8	..........a	-327.66
	2741	0.5484	4.09797E-001	-7.34529E-006	0.00000E+000	4.10000E-001	-3.18408E-004	8	..........a	-327.66
	2742	0.5486	3.99847E-001	-7.64530E-006	0.00000E+000	4.00000E-001	-2.18408E-004	8	..........a	-327.66
	2743	0.5488	3.89947E-001	-7.92531E-006	0.00000E+000	3.90000E-001	8.15923E-005	8	..........a	-327.66
	2744	0.549	3.80147E-001	-8.10532E-006	0.00000E+000	3.80000E-001	8.15923E-005	8	..........a	-327.66
	2745	0.5492	3.70047E-001	-8.37533E-006	0.00000E+000	3.70000E-001	8.15923E-005	8	..........a	-327.66
	2746	0.5494	3.60047E-001	-8.60534E-006	0.00000E+000	3.60000E-001	8.15923E-005	8	..........a	-327.66
	2747	0.5496	3.49947E-001	-8.91535E-006	0.00000E+000	3.50000E-001	8.15923E-005	8	..........a	-327.66
	2748	0.5498	3.39947E-001	-9.13536E-006	0.00000E+000	3.40000E-001	8.15923E-005	8	..........a	-327.66
	2749	0.55	3.30047E-001	-9.37537E-006	0.00000E+000	3.30000E-001	-3.18408E-004	8	..........a	-327.66
	2750	0.5502	3.19947E-001	-9.59537E-006	0.00000E+000	3.20000E-001	8.15923E-005	8	..........a	-327.66
	2751	0.5504	3.10047E-001	-9.84538E-006	0.00000E+000	3.10000E-001	8.15923E-005	8	..........a	-327.66
	2752	0.5506	3.00247E-001	-1.01154E-005	0.00000E+000	3.00000E-001	8.15923E-005	8	..........a	-327.66
	2753	0.5508	2.89947E-001	-1.03254E-005	0.00000E+000	2.90000E-001	8.15923E-005	8	..........a	-327.66
	2754	0.551	2.80047E-001	-1.06154E-005	0.00000E+000	2.80000E-001	8.15923E-005	8	..........a	-327.66
	2755	0.5512	2.69947E-001	-1.08154E-005	0.00000E+000	2.70000E-001	8.15923E-005	8	..........a	-327.66
	2756	0.5514	2.60047E-001	-1.10754E-005	0.00000E+000	2.60000E-001	8.15923E-005	8	..........a	-327.66
	2757	0.5516	2.49947E-001	-1.12554E-005	0.00000E+000	2.50000E-001	8.15923E-005	8	..........a	-327.66
	2758	0.5518	2.39947E-001	-1.14554E-005	0.00000E+000	2.40000E-001	8.15923E-005	8	..........a	-327.66
	2759	0.552	2.29847E-001	-1.16755E-005	0.00000E+000	2.30000E-001	8.15923E-005	8	..........a	-327.66
	2760	0.5522	2.20147E-001	-1.18255E-005	0.00000E+000	2.20000E-001	8.15923E-005	8	..........a	-327.66
	2761	0.5524	2.10047E-001	-1.20555E-005	0.00000E+000	2.10000E-001	8.15923E-005	8	..........a	-327.66
	2762	0.5526	2.00147E-001	-1.21955E-005	0.00000E+000	2.00000E-001	8.15923E-005	8	..........a	-327.66
	2763	0.5528	1.90047E-001	-1.23555E-005	0.00000E+000	1.90000E-001	8.15923E-005	8	..........a	-327.66
	2764	0.553	1.79997E-001	-1.25155E-005	0.00000E+000	1.80000E-001	8.15923E-005	8	..........a	-327.66
	2765	0.5532	1.70047E-001	-1.26555E-005	0.00000E+000	1.70000E-001	8.15923E-005	8	..........a	-327.66
	2766	0.5534	1.60047E-001	-1.27555E-005	0.00000E+000	1.60000E-001	8.15923E-005	8	..........a	-327.66
	2767	0.5536	1.50047E-001	-1.29255E-005	0.00000E+000	1.50000E-001	-2.18408E-004	8	..........a	-327.66
	2768	0.5538	1.40147E-001	-1.30355E-005	0.00000E+000	1.40000E-001	8.15923E-005	8	..........a	-327.66
	2769	0.554	1.30047E-001	-1.31755E-005	0.00000E+000	1.30000E-001	8.15923E-005	8	..........a	-327.66
	2770	0.5542	1.20247E-001	-1.32855E-005	0.00000E+000	1.20000E-001	8.15923E-005	8	..........a	-327.66
	2771	0.5544	1.10047E-001	-1.33255E-005	0.00000E+000	1.10000E-001	-3.18408E-004	8	..........a	-327.66
	2772	0.5546	1.00047E-001	-1.34355E-005	0.00000E+000	1.00000E-001	8.15923E-005	8	..........a	-327.66
	2773	0.5548	9.01471E-002	-1.35155E-005	0.00000E+000	9.00000E-002	-3.18408E-004	8	..........a	-327.66
	2774	0.555	8.00471E-002	-1.35555E-005	0.00000E+000	8.00000E-002	-3.18408E-004	8	..........a	-327.66
	2775	0.5552	7.01471E-002	-1.36355E-005	0.00000E+000	7.00000E-002	8.15923E-005	8	..........a	-327.66
	2776	0.5554	6.00471E-002	-1.37155E-005	0.00000E+000	6.00000E-002	8.15923E-005	8	..........a	-327.66
	2777	0.5556	5.00471E-002	-1.37055E-005	0.00000E+000	5.00000E-002	8.15923E-005	8	..........a	-327.66
	2778	0.5558	3.98471E-002	-1.37355E-005	0.00000E+000	4.00000E-002	8.15923E-005	8	..........a	-327.66
	2779	0.556	3.00471E-002	-1.37655E-005	0.00000E+000	3.00000E-002	8.15923E-005	8	..........a	-327.66
	2780	0.5562	2.01471E-002	-1.38055E-005	0.00000E+000	2.00000E-002	8.15923E-005	8	..........a	-327.66
	2781	0.5564	1.00471E-002	-1.37655E-005	0.00000E+000	1.00000E-002	8.15923E-005	8	..........a	-327.66
	2782	0.5566	4.71142E-005	-1.37655E-005	0.00000E+000	7.45058E-009	8.15923E-005	8	..........a	-327.66
	2783	0.5568	-9.95289E-003	-1.37955E-005	0.00000E+000	-1.00000E-002	8.15923E-005	8	..........a	-327.66
	2784	0.557	-1.98529E-002	-1.38055E-005	0.00000E+000	-2.00000E-002	8.15923E-005	8	..........a	-327.66
	2785	0.5572	-2.99529E-002	-1.37655E-005	0.00000E+000	-3.00000E-002	8.15923E-005	8	..........a	-327.66
	2786	0.5574	-3.98529E-002	-1.37255E-005	0.00000E+000	-4.00000E-002	8.15923E-005	8	..........a	-327.66
	2787	0.5576	-4.99529E-002	-1.36555E-005	0.00000E+000	-5.00000E-002	8.15923E-005	8	..........a	-327.66
	2788	0.5578	-5.99529E-002	-1.36555E-005	0.00000E+000	-6.00000E-002	8.15923E-005	8	..........a	-327.66
	2789	0.558	-6.99529E-002	-1.35955E-005	0.00000E+000	-7.00000E-002	8.15923E-005	8	..........a	-327.66
	2790	0.5582	-7.98529E-002	-1.35255E-005	0.00000E+000	-8.00000E-002	8.15923E-005	8	..........a	-327.66
	2791	0.5584	-8.98529E-002	-1.34455E-005	0.00000E+000	-9.00000E-002	8.15923E-005	8	..........a	-327.66
	2792	0.5586	-9.98529E-002	-1.33455E-005	0.00000E+000	-1.00000E-001	8.15923E-005	8	..........a	-327.66
	2793	0.5588	-1.09953E-001	-1.33055E-005	0.00000E+000	-1.10000E-001	8.15923E-005	8	..........a	-327.66
	2794	0.559	-1.19853E-001	-1.32055E-005	0.00000E+000	-1.20000E-001	8.15923E-005	8	..........a	-327.66
	2795	0.5592	-1.29953E-001	-1.31755E-005	0.00000E+000	-1.30000E-001	8.15923E-005	8	..........a	-327.66
	2796	0.5594	-1.40053E-001	-1.29855E-005	0.00000E+000	-1.40000E-001	8.15923E-005	8	..........a	-327.66
	2797	0.5596	-1.49953E-001	-1.28855E-005	0.00000E+000	-1.50000E-001	8.15923E-005	8	..........a	-327.66
	2798	0.5598	-1.59953E-001	-1.28455E-005	0.00000E+000	-1.60000E-001	8.15923E-005	8	..........a	-327.66
	2799	0.56	-1.69953E-001	-1.27655E-005	0.00000E+000	-1.70000E-001	8.15923E-005	8	..........a	-327.66
	2800	0.5602	-1.79953E-001	-1.25855E-005	0.00000E+000	-1.80000E-001	8.15923E-005	8	..........a	-327.66