File: data/raw/batch_data/20240522_C_GM0016_HL03_E01_CV50.DTA
EXPLAIN
TAG	CV
TITLE	LABEL	Cyclic Voltammetry	Test &Identifier
DATE	LABEL	5/22/2024	Date
TIME	LABEL	16:39:14	Time
NOTES	NOTES	1	&Notes...

PSTAT	PSTAT	REF600P-43058	Potentiostat
VINIT	POTEN	0.00000E+000	T	Initial &E (V)
VLIMIT1	POTEN	8.00000E-001	F	Scan Limit &1 (V)
VLIMIT2	POTEN	-6.00000E-001	F	Scan Limit &2 (V)
VFINAL	POTEN	0.00000E+000	T	Final &E (V)
SCANRATE	QUANT	4.99999E+001	&Scan Rate (mV/s)
STEPSIZE	QUANT	1.00000E+001	St&ep Size (mV)
CYCLES	IQUANT	4	C&ycles (#)
IMODE	SELECTOR	0	I/E Range &Mode
IRANGE	QUANT	1.00000E-005	&Max Current (mA)
AREA	QUANT	1.00000E+000	Electrode &Area (cm^2)
ELECTRODETYPE	SELECTOR	0	Electrode Type
STRIPPING	TOGGLE	F	Used for Stripping
POLARITY	TOGGLE	F	Signal Polarity
CONDIT	TWOPARAM	F	1.50000E+001	0.00000E+000	Conditionin&g	Time(s)	E(V)
DELAY	TWOPARAM	T	1.00000E+001	0.00000E+000	Init. De&lay	Time(s)	Stab.(mV/s)
EQDELAY	QUANT	5.00000E+000	Equil. &Time (s)
IRCOMP	SELECTOR	0	IRCom&p
PFCOR	QUANT	5.00000E+001	PF Corr. (ohm)
SAMPLINGMODE	SELECTOR	1	Sampling &Mode
OCVCURVE	TABLE	39
	Pt	T	Vf	Vm	Ach	Over	Temp
	#	s	V vs. Ref.	V	V	bits	deg C
	0	0.258333	3.42736E-002	3.42736E-002	2.55659E-004	..........a	-327.66
	1	0.516667	3.42152E-002	3.12190E-002	2.50726E-004	..........a	-327.66
	2	0.775	3.38562E-002	2.82881E-002	2.44526E-004	..........a	-327.66
	3	1.03333	3.28384E-002	2.54787E-002	2.54459E-004	..........a	-327.66
	4	1.29167	3.10133E-002	2.27783E-002	2.45192E-004	..........a	-327.66
	5	1.55	2.85793E-002	2.01852E-002	2.52192E-004	..........a	-327.66
	6	1.80833	2.58711E-002	1.77008E-002	2.67459E-004	..........a	-327.66
	7	2.06667	2.31382E-002	1.53152E-002	2.36326E-004	..........a	-327.66
	8	2.325	2.04968E-002	1.30218E-002	2.37792E-004	..........a	-327.66
	9	2.58333	1.79761E-002	1.08240E-002	2.32326E-004	..........a	-327.66
	10	2.84167	1.55703E-002	8.71060E-003	2.45992E-004	..........a	-327.66
	11	3.1	1.32673E-002	6.68308E-003	2.39792E-004	..........a	-327.66
	12	3.35833	1.10582E-002	4.73371E-003	2.45592E-004	..........a	-327.66
	13	3.61667	8.93704E-003	2.86217E-003	2.56526E-004	..........a	-327.66
	14	3.875	6.89958E-003	1.06182E-003	2.44592E-004	..........a	-327.66
	15	4.13333	4.94216E-003	-6.68436E-004	2.38859E-004	..........a	-327.66
	16	4.39167	3.06125E-003	-2.33230E-003	2.57459E-004	..........a	-327.66
	17	4.65	1.25343E-003	-3.93154E-003	2.37726E-004	..........a	-327.66
	18	4.90833	-4.84401E-004	-5.46833E-003	2.45259E-004	..........a	-327.66
	19	5.16667	-2.15507E-003	-6.94912E-003	2.57926E-004	..........a	-327.66
	20	5.425	-3.76140E-003	-8.37352E-003	2.51926E-004	..........a	-327.66
	21	5.68333	-5.30629E-003	-9.74308E-003	2.40392E-004	..........a	-327.66
	22	5.94167	-6.79254E-003	-1.10634E-002	2.46992E-004	..........a	-327.66
	23	6.2	-8.22276E-003	-1.23378E-002	2.41792E-004	..........a	-327.66
	24	6.45833	-9.59959E-003	-1.35592E-002	2.40592E-004	..........a	-327.66
	25	6.71667	-1.09254E-002	-1.47399E-002	2.35459E-004	..........a	-327.66
	26	6.975	-1.22021E-002	-1.58760E-002	2.46592E-004	..........a	-327.66
	27	7.23333	-1.34317E-002	-1.69742E-002	2.51459E-004	..........a	-327.66
	28	7.49167	-1.46164E-002	-1.80337E-002	2.45926E-004	..........a	-327.66
	29	7.75	-1.57588E-002	-1.90634E-002	2.46792E-004	..........a	-327.66
	30	8.00833	-1.68612E-002	-2.00396E-002	2.66792E-004	..........a	-327.66
	31	8.26667	-1.79250E-002	-2.09880E-002	2.51726E-004	..........a	-327.66
	32	8.525	-1.89505E-002	-2.19045E-002	2.50792E-004	..........a	-327.66
	33	8.78333	-1.99385E-002	-2.27882E-002	2.58459E-004	..........a	-327.66
	34	9.04167	-2.08909E-002	-2.36418E-002	2.45392E-004	..........a	-327.66
	35	9.3	-2.18099E-002	-2.44691E-002	2.49659E-004	..........a	-327.66
	36	9.5583	-2.26974E-002	-2.52661E-002	2.45926E-004	..........a	-327.66
	37	9.8167	-2.35549E-002	-2.60374E-002	2.56326E-004	..........a	-327.66
	38	10.075	-2.43835E-002	-2.67821E-002	2.48859E-004	..........a	-327.66
EOC	QUANT	-0.0243835	Open Circuit (V)
PSTATMODEL	IQUANT	7	Pstat Model
PSTATSECTION	LABEL	REF600P-43058	Pstat Section
PSTATSERIALNO	LABEL	43058	Pstat Serial Number
CTRLMODE	IQUANT	1	Control Mode
ELECTROMETER	IQUANT	0	RE=0 or CS=1
IESTAB	IQUANT	2	I/E Stability
CASPEED	IQUANT	4	Control Amp Speed
CONVENTION	IQUANT	1	Current Convention
ICHRANGE	IQUANT	2	Ich Range
ICHRANGEMODE	TOGGLE	F	Ich Auto Range
ICHOFFSETENABLE	TOGGLE	F	Ich Offset Enable
ICHOFFSET	QUANT	0	Ich Offset (V)
ICHFILTER	IQUANT	2	Ich Filter
VCHRANGE	IQUANT	2	Vch Range
VCHRANGEMODE	TOGGLE	F	Vch Auto Range
VCHOFFSETENABLE	TOGGLE	F	Vch Offset Enable
VCHOFFSET	QUANT	0	Vch Offset (V)
VCHFILTER	IQUANT	2	Vch Filter
ACHRANGE	IQUANT	2	Ach Range
ACHOFFSETENABLE	TOGGLE	F	Ach Offset Enable
ACHOFFSET	QUANT	0	Ach Offset (V)
ACHFILTER	IQUANT	1	Ach Filter
IERANGELOWERLIMIT	IQUANT	1	I/E Range Lower Limit
IERANGEMODE	TOGGLE	T	I/E AutoRange
IERANGE	IQUANT	4	I/E Range
POSFEEDENABLE	TOGGLE	F	Positive Feedback IR Comp
POSFEEDRESISTANCE	QUANT	0	Positive Feedback Resistance (ohm)
ACHSELECT	IQUANT	4	Ach Select
SENSECABLEID	IQUANT	7	Sense Cable ID
PWRCABLEID	IQUANT	7	Power Cable ID
DCCALDATE	LABEL	3/22/2024	DC Calibration Date
ACCALDATE	LABEL	3/22/2024	AC Calibration Date
THERMOSELECT	IQUANT	1	Thermo Select
FRAMEWORKVERSION	LABEL	7.8.4	Framework Version
INSTRUMENTVERSION	LABEL	4.42	Instrument Version
CURVE1	TABLE
	Pt	T	Vf	Im	Vu	Sig	Ach	IERange	Over	Temp
	#	s	V vs. Ref.	A	V	V	V	#	bits	deg C
	0	0.2	-2.43789E-002	3.29722E-009	0.00000E+000	-2.44000E-002	1.00439E-003	5	..........a	-327.66
	1	0.4	-1.43669E-002	1.34861E-008	0.00000E+000	-1.44000E-002	1.01929E-003	5	..........a	-327.66
	2	0.6	-4.37831E-003	1.90199E-008	0.00000E+000	-4.39999E-003	1.01799E-003	5	..........a	-327.66
	3	0.8	5.67849E-003	2.28928E-008	0.00000E+000	5.60001E-003	1.00239E-003	5	..........a	-327.66
	4	1	1.56487E-002	2.59303E-008	0.00000E+000	1.56000E-002	1.00859E-003	5	..........a	-327.66
	5	1.2	2.55525E-002	2.85460E-008	0.00000E+000	2.56000E-002	1.04189E-003	5	..........a	-327.66
	6	1.4	3.56665E-002	3.09076E-008	0.00000E+000	3.56000E-002	1.00529E-003	5	..........a	-327.66
	7	1.6	4.57263E-002	3.31499E-008	0.00000E+000	4.56000E-002	1.00329E-003	5	..........a	-327.66
	8	1.8	5.56268E-002	3.52901E-008	0.00000E+000	5.56000E-002	1.00659E-003	5	..........a	-327.66
	9	2	6.56145E-002	3.73852E-008	0.00000E+000	6.56000E-002	1.02209E-003	5	..........a	-327.66
	10	2.2	7.55847E-002	3.94862E-008	0.00000E+000	7.56000E-002	1.02869E-003	5	..........a	-327.66
	11	2.4	8.56817E-002	4.16178E-008	0.00000E+000	8.56000E-002	1.00579E-003	5	..........a	-327.66
	12	2.6	9.55607E-002	4.37184E-008	0.00000E+000	9.56000E-002	1.02199E-003	5	..........a	-327.66
	13	2.8	1.05606E-001	4.58655E-008	0.00000E+000	1.05600E-001	1.01069E-003	5	..........a	-327.66
	14	3	1.15616E-001	4.80153E-008	0.00000E+000	1.15600E-001	1.00809E-003	5	..........a	-327.66
	15	3.2	1.25698E-001	5.02251E-008	0.00000E+000	1.25600E-001	1.01169E-003	5	..........a	-327.66
	16	3.4	1.35668E-001	5.24688E-008	0.00000E+000	1.35600E-001	1.02169E-003	5	..........a	-327.66
	17	3.6	1.45579E-001	5.47276E-008	0.00000E+000	1.45600E-001	1.00599E-003	5	..........a	-327.66
	18	3.8	1.55618E-001	5.70280E-008	0.00000E+000	1.55600E-001	1.01779E-003	5	..........a	-327.66
	19	4	1.65654E-001	5.93744E-008	0.00000E+000	1.65600E-001	1.02129E-003	5	..........a	-327.66
	20	4.2	1.75608E-001	6.17549E-008	0.00000E+000	1.75600E-001	1.01409E-003	5	..........a	-327.66
	21	4.4	1.85593E-001	6.41636E-008	0.00000E+000	1.85600E-001	1.02069E-003	5	..........a	-327.66
	22	4.6	1.95648E-001	6.66078E-008	0.00000E+000	1.95600E-001	1.00199E-003	5	..........a	-327.66
	23	4.8	2.05600E-001	6.90843E-008	0.00000E+000	2.05600E-001	1.01429E-003	5	..........a	-327.66
	24	5	2.15643E-001	7.15728E-008	0.00000E+000	2.15600E-001	1.00529E-003	5	..........a	-327.66
	25	5.2	2.25548E-001	7.41208E-008	0.00000E+000	2.25600E-001	1.01889E-003	5	..........a	-327.66
	26	5.4	2.35579E-001	7.66663E-008	0.00000E+000	2.35600E-001	1.01489E-003	5	..........a	-327.66
	27	5.6	2.45610E-001	7.92530E-008	0.00000E+000	2.45600E-001	1.01059E-003	5	..........a	-327.66
	28	5.8	2.55575E-001	8.18529E-008	0.00000E+000	2.55600E-001	1.02029E-003	5	..........a	-327.66
	29	6	2.65563E-001	8.45235E-008	0.00000E+000	2.65600E-001	1.02109E-003	5	..........a	-327.66
	30	6.2	2.75528E-001	8.71721E-008	0.00000E+000	2.75600E-001	1.02559E-003	5	..........a	-327.66
	31	6.4	2.85580E-001	8.98946E-008	0.00000E+000	2.85600E-001	1.01479E-003	5	..........a	-327.66
	32	6.6	2.95617E-001	9.26081E-008	0.00000E+000	2.95600E-001	9.90392E-004	5	..........a	-327.66
	33	6.8	3.05529E-001	9.53696E-008	0.00000E+000	3.05600E-001	1.02239E-003	5	..........a	-327.66
	34	7	3.15591E-001	9.81466E-008	0.00000E+000	3.15600E-001	1.02449E-003	5	..........a	-327.66
	35	7.2	3.25635E-001	1.00957E-007	0.00000E+000	3.25600E-001	9.89792E-004	5	..........a	-327.66
	36	7.4	3.35579E-001	1.03768E-007	0.00000E+000	3.35600E-001	1.01989E-003	5	..........a	-327.66
	37	7.6	3.45590E-001	1.06626E-007	0.00000E+000	3.45600E-001	9.98292E-004	5	..........a	-327.66
	38	7.8	3.55560E-001	1.09542E-007	0.00000E+000	3.55600E-001	1.01749E-003	5	..........a	-327.66
	39	8	3.65591E-001	1.12453E-007	0.00000E+000	3.65600E-001	9.97092E-004	5	..........a	-327.66
	40	8.2	3.75560E-001	1.15319E-007	0.00000E+000	3.75600E-001	1.02349E-003	5	..........a	-327.66
	41	8.4	3.85556E-001	1.18416E-007	0.00000E+000	3.85600E-001	1.01699E-003	5	..........a	-327.66
	42	8.6	3.95576E-001	1.21496E-007	0.00000E+000	3.95600E-001	9.98192E-004	5	..........a	-327.66
	43	8.8	4.05584E-001	1.24756E-007	0.00000E+000	4.05600E-001	9.98892E-004	5	..........a	-327.66
	44	9	4.15593E-001	1.28023E-007	0.00000E+000	4.15600E-001	1.01409E-003	5	..........a	-327.66
	45	9.2	4.25497E-001	1.31452E-007	0.00000E+000	4.25600E-001	1.03639E-003	5	..........a	-327.66
	46	9.4	4.35499E-001	1.34667E-007	0.00000E+000	4.35600E-001	1.00189E-003	5	..........a	-327.66
	47	9.6	4.45544E-001	1.37683E-007	0.00000E+000	4.45600E-001	1.01469E-003	5	..........a	-327.66
	48	9.8	4.55570E-001	1.40448E-007	0.00000E+000	4.55600E-001	1.01359E-003	5	..........a	-327.66
	49	10	4.65515E-001	1.43459E-007	0.00000E+000	4.65600E-001	1.00809E-003	5	..........a	-327.66
	50	10.2	4.75515E-001	1.46717E-007	0.00000E+000	4.75600E-001	1.00019E-003	5	..........a	-327.66
	51	10.4	4.85523E-001	1.49902E-007	0.00000E+000	4.85600E-001	9.90592E-004	5	..........a	-327.66
	52	10.6	4.95592E-001	1.53203E-007	0.00000E+000	4.95600E-001	1.04259E-003	5	..........a	-327.66
	53	10.8	5.05495E-001	1.56660E-007	0.00000E+000	5.05600E-001	1.01619E-003	5	..........a	-327.66
	54	11	5.15532E-001	1.60216E-007	0.00000E+000	5.15600E-001	1.01779E-003	5	..........a	-327.66
	55	11.2	5.25581E-001	1.63981E-007	0.00000E+000	5.25600E-001	1.01359E-003	5	..........a	-327.66
	56	11.4	5.35552E-001	1.67949E-007	0.00000E+000	5.35600E-001	1.02729E-003	5	..........a	-327.66
	57	11.6	5.45510E-001	1.71959E-007	0.00000E+000	5.45600E-001	1.00189E-003	5	..........a	-327.66
	58	11.8	5.55485E-001	1.76093E-007	0.00000E+000	5.55600E-001	1.02169E-003	5	..........a	-327.66
	59	12	5.65509E-001	1.80438E-007	0.00000E+000	5.65600E-001	9.97392E-004	5	..........a	-327.66
	60	12.2	5.75554E-001	1.84734E-007	0.00000E+000	5.75600E-001	1.03049E-003	5	..........a	-327.66
	61	12.4	5.85486E-001	1.88981E-007	0.00000E+000	5.85600E-001	9.94292E-004	5	..........a	-327.66
	62	12.6	5.95475E-001	1.93124E-007	0.00000E+000	5.95600E-001	1.00189E-003	5	..........a	-327.66
	63	12.8	6.05514E-001	1.97222E-007	0.00000E+000	6.05600E-001	1.00069E-003	5	..........a	-327.66
	64	13	6.15548E-001	2.01294E-007	0.00000E+000	6.15600E-001	9.96092E-004	5	..........a	-327.66
	65	13.2	6.25448E-001	2.05261E-007	0.00000E+000	6.25600E-001	1.02089E-003	5	..........a	-327.66
	66	13.4	6.35441E-001	2.09178E-007	0.00000E+000	6.35600E-001	1.02359E-003	5	..........a	-327.66
	67	13.6	6.45454E-001	2.13109E-007	0.00000E+000	6.45600E-001	1.01069E-003	5	..........a	-327.66
	68	13.8	6.55559E-001	2.16857E-007	0.00000E+000	6.55600E-001	1.03029E-003	5	..........a	-327.66
	69	14	6.65443E-001	2.20555E-007	0.00000E+000	6.65600E-001	1.02159E-003	5	..........a	-327.66
	70	14.2	6.75445E-001	2.24174E-007	0.00000E+000	6.75600E-001	1.02819E-003	5	..........a	-327.66
	71	14.4	6.85441E-001	2.27749E-007	0.00000E+000	6.85600E-001	1.00959E-003	5	..........a	-327.66
	72	14.6	6.95520E-001	2.31273E-007	0.00000E+000	6.95600E-001	1.00569E-003	5	..........a	-327.66
	73	14.8	7.05474E-001	2.34780E-007	0.00000E+000	7.05600E-001	1.00119E-003	5	..........a	-327.66
	74	15	7.15426E-001	2.38257E-007	0.00000E+000	7.15600E-001	1.01039E-003	5	..........a	-327.66
	75	15.2	7.25436E-001	2.41488E-007	0.00000E+000	7.25600E-001	1.00259E-003	5	..........a	-327.66
	76	15.4	7.35539E-001	2.44697E-007	0.00000E+000	7.35600E-001	1.00619E-003	5	..........a	-327.66
	77	15.6	7.45428E-001	2.47943E-007	0.00000E+000	7.45600E-001	1.01319E-003	5	..........a	-327.66
	78	15.8	7.55498E-001	2.51169E-007	0.00000E+000	7.55600E-001	9.97792E-004	5	..........a	-327.66
	79	16	7.65440E-001	2.54398E-007	0.00000E+000	7.65600E-001	9.93992E-004	5	..........a	-327.66
	80	16.2	7.75510E-001	2.57655E-007	0.00000E+000	7.75600E-001	1.00169E-003	5	..........a	-327.66
	81	16.4	7.85413E-001	2.60959E-007	0.00000E+000	7.85600E-001	9.96392E-004	5	..........a	-327.66
	82	16.6	7.95413E-001	2.64339E-007	0.00000E+000	7.95600E-001	1.02249E-003	5	..........a	-327.66
	83	16.8	7.85446E-001	2.31928E-007	0.00000E+000	7.85600E-001	9.83992E-004	5	..........a	-327.66
	84	17	7.75527E-001	2.08980E-007	0.00000E+000	7.75600E-001	1.00929E-003	5	..........a	-327.66
	85	17.2	7.65462E-001	1.90841E-007	0.00000E+000	7.65600E-001	9.99992E-004	5	..........a	-327.66
	86	17.4	7.55519E-001	1.75853E-007	0.00000E+000	7.55600E-001	1.01769E-003	5	..........a	-327.66
	87	17.6	7.45474E-001	1.63162E-007	0.00000E+000	7.45600E-001	1.00439E-003	5	..........a	-327.66
	88	17.8	7.35551E-001	1.52137E-007	0.00000E+000	7.35600E-001	1.01289E-003	5	..........a	-327.66
	89	18	7.25493E-001	1.42394E-007	0.00000E+000	7.25600E-001	1.00829E-003	5	..........a	-327.66
	90	18.2	7.15477E-001	1.33909E-007	0.00000E+000	7.15600E-001	1.02019E-003	5	..........a	-327.66
	91	18.4	7.05509E-001	1.26145E-007	0.00000E+000	7.05600E-001	1.00999E-003	5	..........a	-327.66
	92	18.6	6.95564E-001	1.19081E-007	0.00000E+000	6.95600E-001	1.02139E-003	5	..........a	-327.66
	93	18.8	6.85512E-001	1.12730E-007	0.00000E+000	6.85600E-001	9.91692E-004	5	..........a	-327.66
	94	19	6.75508E-001	1.06974E-007	0.00000E+000	6.75600E-001	1.02129E-003	5	..........a	-327.66
	95	19.2	6.65483E-001	1.01610E-007	0.00000E+000	6.65600E-001	1.00819E-003	5	..........a	-327.66
	96	19.4	6.55590E-001	9.66715E-008	0.00000E+000	6.55600E-001	1.01949E-003	5	..........a	-327.66
	97	19.6	6.45521E-001	9.20700E-008	0.00000E+000	6.45600E-001	1.00469E-003	5	..........a	-327.66
	98	19.8	6.35495E-001	8.77533E-008	0.00000E+000	6.35600E-001	1.01459E-003	5	..........a	-327.66
	99	20	6.25507E-001	8.38341E-008	0.00000E+000	6.25600E-001	1.00049E-003	5	..........a	-327.66
	100	20.2	6.15574E-001	8.00804E-008	0.00000E+000	6.15600E-001	1.00779E-003	5	..........a	-327.66
	101	20.4	6.05573E-001	7.63508E-008	0.00000E+000	6.05600E-001	9.98992E-004	5	..........a	-327.66
	102	20.6	5.95549E-001	7.28919E-008	0.00000E+000	5.95600E-001	1.01039E-003	5	..........a	-327.66
	103	20.8	5.85525E-001	6.96401E-008	0.00000E+000	5.85600E-001	1.02469E-003	5	..........a	-327.66
	104	21	5.75612E-001	6.65206E-008	0.00000E+000	5.75600E-001	1.01009E-003	5	..........a	-327.66
	105	21.2	5.65569E-001	6.35827E-008	0.00000E+000	5.65600E-001	1.01389E-003	5	..........a	-327.66
	106	21.4	5.55554E-001	6.06787E-008	0.00000E+000	5.55600E-001	1.01329E-003	5	..........a	-327.66
	107	21.6	5.45568E-001	5.79023E-008	0.00000E+000	5.45600E-001	1.01559E-003	5	..........a	-327.66
	108	21.8	5.35562E-001	5.50135E-008	0.00000E+000	5.35600E-001	1.01339E-003	5	..........a	-327.66
	109	22	5.25657E-001	5.23375E-008	0.00000E+000	5.25600E-001	1.01809E-003	5	..........a	-327.66
	110	22.2	5.15527E-001	4.97867E-008	0.00000E+000	5.15600E-001	1.01639E-003	5	..........a	-327.66
	111	22.4	5.05530E-001	4.71711E-008	0.00000E+000	5.05600E-001	1.01559E-003	5	..........a	-327.66
	112	22.6	4.95609E-001	4.46220E-008	0.00000E+000	4.95600E-001	1.00009E-003	5	..........a	-327.66
	113	22.8	4.85575E-001	4.20628E-008	0.00000E+000	4.85600E-001	1.00509E-003	5	..........a	-327.66
	114	23	4.75586E-001	3.95302E-008	0.00000E+000	4.75600E-001	9.88992E-004	5	..........a	-327.66
	115	23.2	4.65554E-001	3.70640E-008	0.00000E+000	4.65600E-001	9.86292E-004	5	..........a	-327.66
	116	23.4	4.55576E-001	3.46089E-008	0.00000E+000	4.55600E-001	1.00439E-003	5	..........a	-327.66
	117	23.6	4.45604E-001	3.21952E-008	0.00000E+000	4.45600E-001	1.01709E-003	5	..........a	-327.66
	118	23.8	4.35523E-001	2.96808E-008	0.00000E+000	4.35600E-001	1.00279E-003	5	..........a	-327.66
	119	24	4.25541E-001	2.72797E-008	0.00000E+000	4.25600E-001	9.83292E-004	5	..........a	-327.66
	120	24.2	4.15615E-001	2.48675E-008	0.00000E+000	4.15600E-001	1.00899E-003	5	..........a	-327.66
	121	24.4	4.05674E-001	2.24770E-008	0.00000E+000	4.05600E-001	1.00329E-003	5	..........a	-327.66
	122	24.6	3.95649E-001	2.01033E-008	0.00000E+000	3.95600E-001	9.89792E-004	5	..........a	-327.66
	123	24.8	3.85576E-001	1.76770E-008	0.00000E+000	3.85600E-001	1.01809E-003	5	..........a	-327.66
	124	25	3.75600E-001	1.52964E-008	0.00000E+000	3.75600E-001	9.97992E-004	5	..........a	-327.66
	125	25.2	3.65644E-001	1.29332E-008	0.00000E+000	3.65600E-001	9.96792E-004	5	..........a	-327.66
	126	25.4	3.55609E-001	1.05803E-008	0.00000E+000	3.55600E-001	1.02529E-003	5	..........a	-327.66
	127	25.6	3.45640E-001	8.22972E-009	0.00000E+000	3.45600E-001	1.01289E-003	5	..........a	-327.66
	128	25.8	3.35619E-001	5.89819E-009	0.00000E+000	3.35600E-001	1.00959E-003	5	..........a	-327.66
	129	26	3.25719E-001	3.64283E-009	0.00000E+000	3.25600E-001	1.00029E-003	5	..........a	-327.66
	130	26.2	3.15628E-001	1.38518E-009	0.00000E+000	3.15600E-001	1.00469E-003	5	..........a	-327.66
	131	26.4	3.05558E-001	-8.85116E-010	0.00000E+000	3.05600E-001	1.01249E-003	5	..........a	-327.66
	132	26.6	2.95687E-001	-3.09896E-009	0.00000E+000	2.95600E-001	1.00219E-003	5	..........a	-327.66
	133	26.8	2.85665E-001	-5.27324E-009	0.00000E+000	2.85600E-001	9.99092E-004	5	..........a	-327.66
	134	27	2.75600E-001	-7.41873E-009	0.00000E+000	2.75600E-001	1.00769E-003	5	..........a	-327.66
	135	27.2	2.65653E-001	-9.47983E-009	0.00000E+000	2.65600E-001	1.00809E-003	5	..........a	-327.66
	136	27.4	2.55612E-001	-1.15548E-008	0.00000E+000	2.55600E-001	1.01939E-003	5	..........a	-327.66
	137	27.6	2.45666E-001	-1.35518E-008	0.00000E+000	2.45600E-001	1.00269E-003	5	..........a	-327.66
	138	27.8	2.35628E-001	-1.55393E-008	0.00000E+000	2.35600E-001	1.02959E-003	5	..........a	-327.66
	139	28	2.25591E-001	-1.74681E-008	0.00000E+000	2.25600E-001	9.99892E-004	5	..........a	-327.66
	140	28.2	2.15688E-001	-1.93750E-008	0.00000E+000	2.15600E-001	1.01119E-003	5	..........a	-327.66
	141	28.4	2.05673E-001	-2.12441E-008	0.00000E+000	2.05600E-001	9.91992E-004	5	..........a	-327.66
	142	28.6	1.95682E-001	-2.30562E-008	0.00000E+000	1.95600E-001	9.94692E-004	5	..........a	-327.66
	143	28.8	1.85693E-001	-2.48242E-008	0.00000E+000	1.85600E-001	1.02509E-003	5	..........a	-327.66
	144	29	1.75662E-001	-2.65334E-008	0.00000E+000	1.75600E-001	9.96392E-004	5	..........a	-327.66
	145	29.2	1.65709E-001	-2.82301E-008	0.00000E+000	1.65600E-001	1.00139E-003	5	..........a	-327.66
	146	29.4	1.55674E-001	-2.98529E-008	0.00000E+000	1.55600E-001	1.00119E-003	5	..........a	-327.66
	147	29.6	1.45658E-001	-3.14730E-008	0.00000E+000	1.45600E-001	1.02899E-003	5	..........a	-327.66
	148	29.8	1.35701E-001	-3.30081E-008	0.00000E+000	1.35600E-001	1.01859E-003	5	..........a	-327.66
	149	30	1.25769E-001	-3.45569E-008	0.00000E+000	1.25600E-001	9.95692E-004	5	..........a	-327.66
	150	30.2	1.15669E-001	-3.60719E-008	0.00000E+000	1.15600E-001	9.96392E-004	5	..........a	-327.66
	151	30.4	1.05635E-001	-3.75249E-008	0.00000E+000	1.05600E-001	9.94292E-004	5	..........a	-327.66
	152	30.6	9.56311E-002	-3.89471E-008	0.00000E+000	9.56000E-002	1.01069E-003	5	..........a	-327.66
	153	30.8	8.57297E-002	-4.03094E-008	0.00000E+000	8.56000E-002	9.91892E-004	5	..........a	-327.66
	154	31	7.56384E-002	-4.16378E-008	0.00000E+000	7.56000E-002	9.98392E-004	5	..........a	-327.66
	155	31.2	6.57240E-002	-4.28968E-008	0.00000E+000	6.56000E-002	9.89692E-004	5	..........a	-327.66
	156	31.4	5.56746E-002	-4.41148E-008	0.00000E+000	5.56000E-002	1.01299E-003	5	..........a	-327.66
	157	31.6	4.57843E-002	-4.52909E-008	0.00000E+000	4.56000E-002	9.86292E-004	5	..........a	-327.66
	158	31.8	3.57156E-002	-4.64455E-008	0.00000E+000	3.56000E-002	1.00639E-003	5	..........a	-327.66
	159	32	2.56222E-002	-4.75403E-008	0.00000E+000	2.56000E-002	1.00529E-003	5	..........a	-327.66
	160	32.2	1.56740E-002	-4.86259E-008	0.00000E+000	1.56000E-002	9.90992E-004	5	..........a	-327.66
	161	32.4	5.74384E-003	-4.97208E-008	0.00000E+000	5.60001E-003	9.97192E-004	5	..........a	-327.66
	162	32.6	-4.30746E-003	-5.08227E-008	0.00000E+000	-4.39999E-003	9.99492E-004	5	..........a	-327.66
	163	32.8	-1.42862E-002	-5.18463E-008	0.00000E+000	-1.44000E-002	9.90192E-004	5	..........a	-327.66
	164	33	-2.43149E-002	-5.28829E-008	0.00000E+000	-2.44000E-002	1.01139E-003	5	..........a	-327.66
	165	33.2	-3.42609E-002	-5.39221E-008	0.00000E+000	-3.44000E-002	9.74792E-004	5	..........a	-327.66
	166	33.4	-4.42991E-002	-5.49893E-008	0.00000E+000	-4.44000E-002	9.75392E-004	5	..........a	-327.66
	167	33.6	-5.42992E-002	-5.60807E-008	0.00000E+000	-5.44000E-002	9.99992E-004	5	..........a	-327.66
	168	33.8	-6.42785E-002	-5.72394E-008	0.00000E+000	-6.44000E-002	9.83492E-004	5	..........a	-327.66
	169	34	-7.42581E-002	-5.84260E-008	0.00000E+000	-7.44000E-002	9.78092E-004	5	..........a	-327.66
	170	34.2	-8.43348E-002	-5.96702E-008	0.00000E+000	-8.44000E-002	1.01419E-003	5	..........a	-327.66
	171	34.4	-9.42810E-002	-6.09894E-008	0.00000E+000	-9.44000E-002	9.97992E-004	5	..........a	-327.66
	172	34.6	-1.04318E-001	-6.24183E-008	0.00000E+000	-1.04400E-001	1.00309E-003	5	..........a	-327.66
	173	34.8	-1.14253E-001	-6.38707E-008	0.00000E+000	-1.14400E-001	1.00259E-003	5	..........a	-327.66
	174	35	-1.24317E-001	-6.54090E-008	0.00000E+000	-1.24400E-001	9.91092E-004	5	..........a	-327.66
	175	35.2	-1.34344E-001	-6.70439E-008	0.00000E+000	-1.34400E-001	9.85192E-004	5	..........a	-327.66
	176	35.4	-1.44289E-001	-6.87279E-008	0.00000E+000	-1.44400E-001	1.00289E-003	5	..........a	-327.66
	177	35.6	-1.54246E-001	-7.04938E-008	0.00000E+000	-1.54400E-001	9.95992E-004	5	..........a	-327.66
	178	35.8	-1.64279E-001	-7.23926E-008	0.00000E+000	-1.64400E-001	1.00709E-003	5	..........a	-327.66
	179	36	-1.74335E-001	-7.43433E-008	0.00000E+000	-1.74400E-001	1.02199E-003	5	..........a	-327.66
	180	36.2	-1.84313E-001	-7.63852E-008	0.00000E+000	-1.84400E-001	1.01189E-003	5	..........a	-327.66
	181	36.4	-1.94291E-001	-7.85584E-008	0.00000E+000	-1.94400E-001	9.95592E-004	5	..........a	-327.66
	182	36.6	-2.04321E-001	-8.08135E-008	0.00000E+000	-2.04400E-001	1.00879E-003	5	..........a	-327.66
	183	36.8	-2.14287E-001	-8.33225E-008	0.00000E+000	-2.14400E-001	9.96492E-004	5	..........a	-327.66
	184	37	-2.24249E-001	-8.61023E-008	0.00000E+000	-2.24400E-001	9.89092E-004	5	..........a	-327.66
	185	37.2	-2.34182E-001	-8.90498E-008	0.00000E+000	-2.34400E-001	9.80492E-004	5	..........a	-327.66
	186	37.4	-2.44252E-001	-9.19436E-008	0.00000E+000	-2.44400E-001	9.92592E-004	5	..........a	-327.66
	187	37.6	-2.54283E-001	-9.48523E-008	0.00000E+000	-2.54400E-001	9.92992E-004	5	..........a	-327.66
	188	37.8	-2.64266E-001	-9.77530E-008	0.00000E+000	-2.64400E-001	9.93292E-004	5	..........a	-327.66
	189	38	-2.74209E-001	-1.00683E-007	0.00000E+000	-2.74400E-001	1.00009E-003	5	..........a	-327.66
	190	38.2	-2.84278E-001	-1.03653E-007	0.00000E+000	-2.84400E-001	1.01199E-003	5	..........a	-327.66
	191	38.4	-2.94234E-001	-1.06704E-007	0.00000E+000	-2.94400E-001	1.01489E-003	5	..........a	-327.66
	192	38.6	-3.04276E-001	-1.09843E-007	0.00000E+000	-3.04400E-001	1.00989E-003	5	..........a	-327.66
	193	38.8	-3.14163E-001	-1.13071E-007	0.00000E+000	-3.14400E-001	9.83392E-004	5	..........a	-327.66
	194	39	-3.24246E-001	-1.16377E-007	0.00000E+000	-3.24400E-001	9.82192E-004	5	..........a	-327.66
	195	39.2	-3.34299E-001	-1.19791E-007	0.00000E+000	-3.34400E-001	1.00399E-003	5	..........a	-327.66
	196	39.4	-3.44223E-001	-1.23358E-007	0.00000E+000	-3.44400E-001	1.01359E-003	5	..........a	-327.66
	197	39.6	-3.54196E-001	-1.26868E-007	0.00000E+000	-3.54400E-001	9.95892E-004	5	..........a	-327.66
	198	39.8	-3.64271E-001	-1.30439E-007	0.00000E+000	-3.64400E-001	9.89792E-004	5	..........a	-327.66
	199	40	-3.74228E-001	-1.33968E-007	0.00000E+000	-3.74400E-001	1.00719E-003	5	..........a	-327.66
	200	40.2	-3.84262E-001	-1.37575E-007	0.00000E+000	-3.84400E-001	1.00699E-003	5	..........a	-327.66
	201	40.4	-3.94133E-001	-1.41194E-007	0.00000E+000	-3.94400E-001	1.01569E-003	5	..........a	-327.66
	202	40.6	-4.04247E-001	-1.44908E-007	0.00000E+000	-4.04400E-001	9.74992E-004	5	..........a	-327.66
	203	40.8	-4.14198E-001	-1.48762E-007	0.00000E+000	-4.14400E-001	1.00899E-003	5	..........a	-327.66
	204	41	-4.24209E-001	-1.52547E-007	0.00000E+000	-4.24400E-001	9.76992E-004	5	..........a	-327.66
	205	41.2	-4.34141E-001	-1.56333E-007	0.00000E+000	-4.34400E-001	9.94392E-004	5	..........a	-327.66
	206	41.4	-4.44218E-001	-1.60149E-007	0.00000E+000	-4.44400E-001	1.00549E-003	5	..........a	-327.66
	207	41.6	-4.54220E-001	-1.63973E-007	0.00000E+000	-4.54400E-001	9.87992E-004	5	..........a	-327.66
	208	41.8	-4.64200E-001	-1.67735E-007	0.00000E+000	-4.64400E-001	9.88392E-004	5	..........a	-327.66
	209	42	-4.74171E-001	-1.71508E-007	0.00000E+000	-4.74400E-001	9.96692E-004	5	..........a	-327.66
	210	42.2	-4.84209E-001	-1.75395E-007	0.00000E+000	-4.84400E-001	1.00319E-003	5	..........a	-327.66
	211	42.4	-4.94186E-001	-1.79237E-007	0.00000E+000	-4.94400E-001	1.00009E-003	5	..........a	-327.66
	212	42.6	-5.04202E-001	-1.83005E-007	0.00000E+000	-5.04400E-001	1.01159E-003	5	..........a	-327.66
	213	42.8	-5.14111E-001	-1.86743E-007	0.00000E+000	-5.14400E-001	9.99792E-004	5	..........a	-327.66
	214	43	-5.24209E-001	-1.90348E-007	0.00000E+000	-5.24400E-001	1.00049E-003	5	..........a	-327.66
	215	43.2	-5.34202E-001	-1.94011E-007	0.00000E+000	-5.34400E-001	9.95792E-004	5	..........a	-327.66
	216	43.4	-5.44220E-001	-1.97589E-007	0.00000E+000	-5.44400E-001	1.00809E-003	5	..........a	-327.66
	217	43.6	-5.54147E-001	-2.01066E-007	0.00000E+000	-5.54400E-001	9.97892E-004	5	..........a	-327.66
	218	43.8	-5.64196E-001	-2.04467E-007	0.00000E+000	-5.64400E-001	9.99392E-004	5	..........a	-327.66
	219	44	-5.74102E-001	-2.07782E-007	0.00000E+000	-5.74400E-001	1.00759E-003	5	..........a	-327.66
	220	44.2	-5.84200E-001	-2.10975E-007	0.00000E+000	-5.84400E-001	9.89492E-004	5	..........a	-327.66
	221	44.4	-5.94065E-001	-2.14087E-007	0.00000E+000	-5.94400E-001	1.01599E-003	5	..........a	-327.66
	222	44.6	-6.04189E-001	-2.17012E-007	0.00000E+000	-6.04400E-001	1.00649E-003	5	..........a	-327.66
CURVE2	TABLE
	Pt	T	Vf	Im	Vu	Sig	Ach	IERange	Over	Temp
	#	s	V vs. Ref.	A	V	V	V	#	bits	deg C
	223	44.8	-5.89816E-001	-1.79879E-007	0.00000E+000	-5.90000E-001	1.00539E-003	5	..........a	-327.66
	224	45	-5.79757E-001	-1.61982E-007	0.00000E+000	-5.80000E-001	9.79792E-004	5	..........a	-327.66
	225	45.2	-5.69823E-001	-1.47418E-007	0.00000E+000	-5.70000E-001	1.00609E-003	5	..........a	-327.66
	226	45.4	-5.59868E-001	-1.35078E-007	0.00000E+000	-5.60000E-001	1.00859E-003	5	..........a	-327.66
	227	45.6	-5.49856E-001	-1.24425E-007	0.00000E+000	-5.50000E-001	9.95992E-004	5	..........a	-327.66
	228	45.8	-5.39755E-001	-1.14951E-007	0.00000E+000	-5.40000E-001	9.85592E-004	5	..........a	-327.66
	229	46	-5.29828E-001	-1.06482E-007	0.00000E+000	-5.30000E-001	1.01869E-003	5	..........a	-327.66
	230	46.2	-5.19870E-001	-9.88521E-008	0.00000E+000	-5.20000E-001	1.00849E-003	5	..........a	-327.66
	231	46.4	-5.09835E-001	-9.18912E-008	0.00000E+000	-5.10000E-001	9.93292E-004	5	..........a	-327.66
	232	46.6	-4.99820E-001	-8.54942E-008	0.00000E+000	-5.00000E-001	9.97592E-004	5	..........a	-327.66
	233	46.8	-4.89862E-001	-7.95356E-008	0.00000E+000	-4.90000E-001	1.00619E-003	5	..........a	-327.66
	234	47	-4.79854E-001	-7.40666E-008	0.00000E+000	-4.80000E-001	9.86592E-004	5	..........a	-327.66
	235	47.2	-4.69855E-001	-6.89190E-008	0.00000E+000	-4.70000E-001	1.00329E-003	5	..........a	-327.66
	236	47.4	-4.59799E-001	-6.41156E-008	0.00000E+000	-4.60000E-001	9.77492E-004	5	..........a	-327.66
	237	47.6	-4.49838E-001	-5.95831E-008	0.00000E+000	-4.50000E-001	9.91092E-004	5	..........a	-327.66
	238	47.8	-4.39846E-001	-5.53400E-008	0.00000E+000	-4.40000E-001	9.96392E-004	5	..........a	-327.66
	239	48	-4.29863E-001	-5.13408E-008	0.00000E+000	-4.30000E-001	1.01009E-003	5	..........a	-327.66
	240	48.2	-4.19774E-001	-4.75255E-008	0.00000E+000	-4.20000E-001	9.93192E-004	5	..........a	-327.66
	241	48.4	-4.09876E-001	-4.39039E-008	0.00000E+000	-4.10000E-001	1.00079E-003	5	..........a	-327.66
	242	48.6	-3.99862E-001	-4.04191E-008	0.00000E+000	-4.00000E-001	9.99592E-004	5	..........a	-327.66
	243	48.8	-3.89936E-001	-3.71307E-008	0.00000E+000	-3.90000E-001	1.01499E-003	5	..........a	-327.66
	244	49	-3.79850E-001	-3.39775E-008	0.00000E+000	-3.80000E-001	1.00089E-003	5	..........a	-327.66
	245	49.2	-3.69856E-001	-3.09394E-008	0.00000E+000	-3.70000E-001	1.00339E-003	5	..........a	-327.66
	246	49.4	-3.59928E-001	-2.80183E-008	0.00000E+000	-3.60000E-001	1.00369E-003	5	..........a	-327.66
	247	49.6	-3.49875E-001	-2.51910E-008	0.00000E+000	-3.50000E-001	1.01139E-003	5	..........a	-327.66
	248	49.8	-3.39826E-001	-2.24827E-008	0.00000E+000	-3.40000E-001	1.00639E-003	5	..........a	-327.66
	249	50	-3.29888E-001	-1.98562E-008	0.00000E+000	-3.30000E-001	1.02059E-003	5	..........a	-327.66
	250	50.2	-3.19881E-001	-1.73151E-008	0.00000E+000	-3.20000E-001	9.96292E-004	5	..........a	-327.66
	251	50.4	-3.09904E-001	-1.48290E-008	0.00000E+000	-3.10000E-001	9.78992E-004	5	..........a	-327.66
	252	50.6	-2.99864E-001	-1.24365E-008	0.00000E+000	-3.00000E-001	9.98892E-004	5	..........a	-327.66
	253	50.8	-2.89890E-001	-1.00816E-008	0.00000E+000	-2.90000E-001	1.00859E-003	5	..........a	-327.66
	254	51	-2.79912E-001	-7.78347E-009	0.00000E+000	-2.80000E-001	9.87792E-004	5	..........a	-327.66
	255	51.2	-2.69878E-001	-5.55832E-009	0.00000E+000	-2.70000E-001	9.94092E-004	5	..........a	-327.66
	256	51.4	-2.59843E-001	-3.34404E-009	0.00000E+000	-2.60000E-001	9.82892E-004	5	..........a	-327.66
	257	51.6	-2.49920E-001	-1.20100E-009	0.00000E+000	-2.50000E-001	1.00379E-003	5	..........a	-327.66
	258	51.8	-2.39937E-001	9.27911E-010	0.00000E+000	-2.40000E-001	9.85092E-004	5	..........a	-327.66
	259	52	-2.29990E-001	3.07494E-009	0.00000E+000	-2.30000E-001	9.95892E-004	5	..........a	-327.66
	260	52.2	-2.19885E-001	5.30769E-009	0.00000E+000	-2.20000E-001	9.94892E-004	5	..........a	-327.66
	261	52.4	-2.09943E-001	7.48449E-009	0.00000E+000	-2.10000E-001	9.91192E-004	5	..........a	-327.66
	262	52.6	-1.99981E-001	9.66361E-009	0.00000E+000	-2.00000E-001	1.02519E-003	5	..........a	-327.66
	263	52.8	-1.90158E-001	1.17574E-008	0.00000E+000	-1.90000E-001	9.99192E-004	5	..........a	-327.66
	264	53	-1.79944E-001	1.37235E-008	0.00000E+000	-1.80000E-001	1.00569E-003	5	..........a	-327.66
	265	53.2	-1.69910E-001	1.56834E-008	0.00000E+000	-1.70000E-001	1.00479E-003	5	..........a	-327.66
	266	53.4	-1.60017E-001	1.76358E-008	0.00000E+000	-1.60000E-001	9.97892E-004	5	..........a	-327.66
	267	53.6	-1.49988E-001	1.94496E-008	0.00000E+000	-1.50000E-001	1.00309E-003	5	..........a	-327.66
	268	53.8	-1.39902E-001	2.13413E-008	0.00000E+000	-1.40000E-001	1.01019E-003	5	..........a	-327.66
	269	54	-1.29992E-001	2.31676E-008	0.00000E+000	-1.30000E-001	9.99092E-004	5	..........a	-327.66
	270	54.2	-1.19967E-001	2.49281E-008	0.00000E+000	-1.20000E-001	1.01129E-003	5	..........a	-327.66
	271	54.4	-1.09996E-001	2.64967E-008	0.00000E+000	-1.10000E-001	1.01109E-003	5	..........a	-327.66
	272	54.6	-9.99332E-002	2.81187E-008	0.00000E+000	-1.00000E-001	1.00179E-003	5	..........a	-327.66
	273	54.8	-8.99194E-002	2.98418E-008	0.00000E+000	-9.00000E-002	1.00249E-003	5	..........a	-327.66
	274	55	-7.99889E-002	3.15212E-008	0.00000E+000	-8.00000E-002	9.91892E-004	5	..........a	-327.66
	275	55.2	-6.99614E-002	3.33346E-008	0.00000E+000	-7.00000E-002	9.96392E-004	5	..........a	-327.66
	276	55.4	-5.99198E-002	3.52729E-008	0.00000E+000	-6.00000E-002	9.93392E-004	5	..........a	-327.66
	277	55.6	-4.99250E-002	3.71857E-008	0.00000E+000	-5.00000E-002	9.90292E-004	5	..........a	-327.66
	278	55.8	-3.99597E-002	3.92150E-008	0.00000E+000	-4.00000E-002	9.95292E-004	5	..........a	-327.66
	279	56	-2.99798E-002	4.14275E-008	0.00000E+000	-3.00000E-002	1.00269E-003	5	..........a	-327.66
	280	56.2	-1.99643E-002	4.34975E-008	0.00000E+000	-2.00000E-002	1.00479E-003	5	..........a	-327.66
	281	56.4	-9.92391E-003	4.57837E-008	0.00000E+000	-1.00000E-002	1.01359E-003	5	..........a	-327.66
	282	56.6	-3.38083E-005	4.80582E-008	0.00000E+000	7.45058E-009	1.01809E-003	5	..........a	-327.66
	283	56.8	1.00642E-002	5.04338E-008	0.00000E+000	1.00000E-002	9.99592E-004	5	..........a	-327.66
	284	57	2.00834E-002	5.28138E-008	0.00000E+000	2.00000E-002	1.00159E-003	5	..........a	-327.66
	285	57.2	3.00087E-002	5.53252E-008	0.00000E+000	3.00000E-002	1.01059E-003	5	..........a	-327.66
	286	57.4	3.99871E-002	5.78662E-008	0.00000E+000	4.00000E-002	1.01459E-003	5	..........a	-327.66
	287	57.6	4.99894E-002	6.04587E-008	0.00000E+000	5.00000E-002	1.01109E-003	5	..........a	-327.66
	288	57.8	6.00578E-002	6.31636E-008	0.00000E+000	6.00000E-002	1.00559E-003	5	..........a	-327.66
	289	58	6.99804E-002	6.58576E-008	0.00000E+000	7.00000E-002	1.00869E-003	5	..........a	-327.66
	290	58.2	7.99804E-002	6.86403E-008	0.00000E+000	8.00000E-002	9.91592E-004	5	..........a	-327.66
	291	58.4	9.00392E-002	7.13895E-008	0.00000E+000	9.00000E-002	1.00259E-003	5	..........a	-327.66
	292	58.6	1.00055E-001	7.42090E-008	0.00000E+000	1.00000E-001	9.98292E-004	5	..........a	-327.66
	293	58.8	1.10058E-001	7.69865E-008	0.00000E+000	1.10000E-001	1.00149E-003	5	..........a	-327.66
	294	59	1.19978E-001	7.99827E-008	0.00000E+000	1.20000E-001	1.01459E-003	5	..........a	-327.66
	295	59.2	1.29989E-001	8.27934E-008	0.00000E+000	1.30000E-001	9.98492E-004	5	..........a	-327.66
	296	59.4	1.40040E-001	8.55536E-008	0.00000E+000	1.40000E-001	9.84492E-004	5	..........a	-327.66
	297	59.6	1.50003E-001	8.82223E-008	0.00000E+000	1.50000E-001	1.00069E-003	5	..........a	-327.66
	298	59.8	1.59974E-001	9.08047E-008	0.00000E+000	1.60000E-001	1.00429E-003	5	..........a	-327.66
	299	60	1.70018E-001	9.33633E-008	0.00000E+000	1.70000E-001	9.95392E-004	5	..........a	-327.66
	300	60.2	1.80006E-001	9.58567E-008	0.00000E+000	1.80000E-001	9.94392E-004	5	..........a	-327.66
	301	60.4	1.90058E-001	9.82739E-008	0.00000E+000	1.90000E-001	9.92892E-004	5	..........a	-327.66
	302	60.6	1.99966E-001	1.00577E-007	0.00000E+000	2.00000E-001	1.01459E-003	5	..........a	-327.66
	303	60.8	2.09955E-001	1.02688E-007	0.00000E+000	2.10000E-001	1.00349E-003	5	..........a	-327.66
	304	61	2.19893E-001	1.04783E-007	0.00000E+000	2.20000E-001	9.73392E-004	5	..........a	-327.66
	305	61.2	2.29961E-001	1.06678E-007	0.00000E+000	2.30000E-001	1.02769E-003	5	..........a	-327.66
	306	61.4	2.39975E-001	1.08444E-007	0.00000E+000	2.40000E-001	9.99292E-004	5	..........a	-327.66
	307	61.6	2.49940E-001	1.10325E-007	0.00000E+000	2.50000E-001	1.00779E-003	5	..........a	-327.66
	308	61.8	2.59978E-001	1.12484E-007	0.00000E+000	2.60000E-001	9.81392E-004	5	..........a	-327.66
	309	62	2.70012E-001	1.14731E-007	0.00000E+000	2.70000E-001	1.01019E-003	5	..........a	-327.66
	310	62.2	2.79927E-001	1.17059E-007	0.00000E+000	2.80000E-001	1.00839E-003	5	..........a	-327.66
	311	62.4	2.89980E-001	1.19313E-007	0.00000E+000	2.90000E-001	1.00629E-003	5	..........a	-327.66
	312	62.6	2.99972E-001	1.21654E-007	0.00000E+000	3.00000E-001	9.85792E-004	5	..........a	-327.66
	313	62.8	3.09986E-001	1.24005E-007	0.00000E+000	3.10000E-001	1.00659E-003	5	..........a	-327.66
	314	63	3.19961E-001	1.26297E-007	0.00000E+000	3.20000E-001	1.01159E-003	5	..........a	-327.66
	315	63.2	3.29960E-001	1.28517E-007	0.00000E+000	3.30000E-001	1.00979E-003	5	..........a	-327.66
	316	63.4	3.39985E-001	1.30749E-007	0.00000E+000	3.40000E-001	9.87792E-004	5	..........a	-327.66
	317	63.6	3.49984E-001	1.32809E-007	0.00000E+000	3.50000E-001	1.00569E-003	5	..........a	-327.66
	318	63.8	3.59933E-001	1.34871E-007	0.00000E+000	3.60000E-001	1.01189E-003	5	..........a	-327.66
	319	64	3.69952E-001	1.36832E-007	0.00000E+000	3.70000E-001	1.00179E-003	5	..........a	-327.66
	320	64.2	3.79969E-001	1.38788E-007	0.00000E+000	3.80000E-001	9.78992E-004	5	..........a	-327.66
	321	64.4	3.89997E-001	1.40761E-007	0.00000E+000	3.90000E-001	9.98692E-004	5	..........a	-327.66
	322	64.6	3.99936E-001	1.42758E-007	0.00000E+000	4.00000E-001	9.81292E-004	5	..........a	-327.66
	323	64.8	4.09911E-001	1.44680E-007	0.00000E+000	4.10000E-001	1.02449E-003	5	..........a	-327.66
	324	65	4.19931E-001	1.46817E-007	0.00000E+000	4.20000E-001	9.96992E-004	5	..........a	-327.66
	325	65.2	4.29969E-001	1.48901E-007	0.00000E+000	4.30000E-001	9.91592E-004	5	..........a	-327.66
	326	65.4	4.39905E-001	1.50866E-007	0.00000E+000	4.40000E-001	1.00219E-003	5	..........a	-327.66
	327	65.6	4.49969E-001	1.52813E-007	0.00000E+000	4.50000E-001	1.00009E-003	5	..........a	-327.66
	328	65.8	4.59913E-001	1.54657E-007	0.00000E+000	4.60000E-001	1.00099E-003	5	..........a	-327.66
	329	66	4.69969E-001	1.56778E-007	0.00000E+000	4.70000E-001	9.95092E-004	5	..........a	-327.66
	330	66.2	4.79897E-001	1.58842E-007	0.00000E+000	4.80000E-001	9.87092E-004	5	..........a	-327.66
	331	66.4	4.89902E-001	1.60888E-007	0.00000E+000	4.90000E-001	1.00839E-003	5	..........a	-327.66
	332	66.6	4.99958E-001	1.63075E-007	0.00000E+000	5.00000E-001	9.93592E-004	5	..........a	-327.66
	333	66.8	5.09944E-001	1.65314E-007	0.00000E+000	5.10000E-001	1.00999E-003	5	..........a	-327.66
	334	67	5.19902E-001	1.67633E-007	0.00000E+000	5.20000E-001	9.94092E-004	5	..........a	-327.66
	335	67.2	5.29890E-001	1.69952E-007	0.00000E+000	5.30000E-001	9.95392E-004	5	..........a	-327.66
	336	67.4	5.39904E-001	1.72342E-007	0.00000E+000	5.40000E-001	9.77692E-004	5	..........a	-327.66
	337	67.6	5.49964E-001	1.74785E-007	0.00000E+000	5.50000E-001	1.01979E-003	5	..........a	-327.66
	338	67.8	5.59898E-001	1.77288E-007	0.00000E+000	5.60000E-001	1.00229E-003	5	..........a	-327.66
	339	68	5.69902E-001	1.79777E-007	0.00000E+000	5.70000E-001	9.92292E-004	5	..........a	-327.66
	340	68.2	5.79907E-001	1.82113E-007	0.00000E+000	5.80000E-001	9.95592E-004	5	..........a	-327.66
	341	68.4	5.89968E-001	1.84315E-007	0.00000E+000	5.90000E-001	1.01679E-003	5	..........a	-327.66
	342	68.6	5.99898E-001	1.86828E-007	0.00000E+000	6.00000E-001	1.00709E-003	5	..........a	-327.66
	343	68.8	6.09899E-001	1.89546E-007	0.00000E+000	6.10000E-001	1.01099E-003	5	..........a	-327.66
	344	69	6.19864E-001	1.92337E-007	0.00000E+000	6.20000E-001	9.89792E-004	5	..........a	-327.66
	345	69.2	6.29984E-001	1.95307E-007	0.00000E+000	6.30000E-001	9.93492E-004	5	..........a	-327.66
	346	69.4	6.39844E-001	1.98179E-007	0.00000E+000	6.40000E-001	1.00789E-003	5	..........a	-327.66
	347	69.6	6.49890E-001	2.01187E-007	0.00000E+000	6.50000E-001	1.00399E-003	5	..........a	-327.66
	348	69.8	6.59860E-001	2.03854E-007	0.00000E+000	6.60000E-001	9.96392E-004	5	..........a	-327.66
	349	70	6.69923E-001	2.06354E-007	0.00000E+000	6.70000E-001	1.01329E-003	5	..........a	-327.66
	350	70.2	6.79878E-001	2.09714E-007	0.00000E+000	6.80000E-001	9.93692E-004	5	..........a	-327.66
	351	70.4	6.89841E-001	2.12697E-007	0.00000E+000	6.90000E-001	9.89592E-004	5	..........a	-327.66
	352	70.6	6.99838E-001	2.15634E-007	0.00000E+000	7.00000E-001	9.75992E-004	5	..........a	-327.66
	353	70.8	7.09939E-001	2.18587E-007	0.00000E+000	7.10000E-001	1.00109E-003	5	..........a	-327.66
	354	71	7.19846E-001	2.21635E-007	0.00000E+000	7.20000E-001	1.00139E-003	5	..........a	-327.66
	355	71.2	7.29863E-001	2.24607E-007	0.00000E+000	7.30000E-001	9.98692E-004	5	..........a	-327.66
[...]
	922	184.6	7.99829E-001	2.33428E-007	0.00000E+000	8.00000E-001	9.78892E-004	5	..........a	-327.66
	923	184.8	7.89955E-001	2.03786E-007	0.00000E+000	7.90000E-001	1.00359E-003	5	..........a	-327.66
	924	185	7.79867E-001	1.83845E-007	0.00000E+000	7.80000E-001	9.95092E-004	5	..........a	-327.66
	925	185.2	7.69871E-001	1.68448E-007	0.00000E+000	7.70000E-001	9.96592E-004	5	..........a	-327.66
	926	185.4	7.59883E-001	1.55884E-007	0.00000E+000	7.60000E-001	1.00229E-003	5	..........a	-327.66
	927	185.6	7.49957E-001	1.45177E-007	0.00000E+000	7.50000E-001	9.70792E-004	5	..........a	-327.66
	928	185.8	7.39903E-001	1.35999E-007	0.00000E+000	7.40000E-001	9.74892E-004	5	..........a	-327.66
	929	186	7.29932E-001	1.27932E-007	0.00000E+000	7.30000E-001	9.88592E-004	5	..........a	-327.66
	930	186.2	7.19883E-001	1.20769E-007	0.00000E+000	7.20000E-001	9.80992E-004	5	..........a	-327.66
	931	186.4	7.09969E-001	1.14380E-007	0.00000E+000	7.10000E-001	1.02019E-003	5	..........a	-327.66
	932	186.6	6.99902E-001	1.08596E-007	0.00000E+000	7.00000E-001	9.83092E-004	5	..........a	-327.66
	933	186.8	6.89891E-001	1.03301E-007	0.00000E+000	6.90000E-001	1.00999E-003	5	..........a	-327.66
	934	187	6.79954E-001	9.84342E-008	0.00000E+000	6.80000E-001	9.83292E-004	5	..........a	-327.66
	935	187.2	6.69955E-001	9.39346E-008	0.00000E+000	6.70000E-001	9.96492E-004	5	..........a	-327.66
	936	187.4	6.59922E-001	8.97363E-008	0.00000E+000	6.60000E-001	9.94292E-004	5	..........a	-327.66
	937	187.6	6.49913E-001	8.57958E-008	0.00000E+000	6.50000E-001	9.91292E-004	5	..........a	-327.66
	938	187.8	6.39888E-001	8.20855E-008	0.00000E+000	6.40000E-001	9.96792E-004	5	..........a	-327.66
	939	188	6.30009E-001	7.85770E-008	0.00000E+000	6.30000E-001	1.00639E-003	5	..........a	-327.66
	940	188.2	6.19918E-001	7.52420E-008	0.00000E+000	6.20000E-001	9.90292E-004	5	..........a	-327.66
	941	188.4	6.09961E-001	7.20623E-008	0.00000E+000	6.10000E-001	1.00989E-003	5	..........a	-327.66
	942	188.6	5.99962E-001	6.89813E-008	0.00000E+000	6.00000E-001	9.75892E-004	5	..........a	-327.66
	943	188.8	5.90012E-001	6.60830E-008	0.00000E+000	5.90000E-001	9.90292E-004	5	..........a	-327.66
	944	189	5.80001E-001	6.32287E-008	0.00000E+000	5.80000E-001	9.88292E-004	5	..........a	-327.66
	945	189.2	5.69956E-001	6.04633E-008	0.00000E+000	5.70000E-001	1.00279E-003	5	..........a	-327.66
	946	189.4	5.59938E-001	5.78101E-008	0.00000E+000	5.60000E-001	1.00099E-003	5	..........a	-327.66
	947	189.6	5.50025E-001	5.52046E-008	0.00000E+000	5.50000E-001	9.88792E-004	5	..........a	-327.66
	948	189.8	5.39986E-001	5.26854E-008	0.00000E+000	5.40000E-001	9.87492E-004	5	..........a	-327.66
	949	190	5.29946E-001	5.02030E-008	0.00000E+000	5.30000E-001	9.97292E-004	5	..........a	-327.66
	950	190.2	5.19971E-001	4.78062E-008	0.00000E+000	5.20000E-001	9.97692E-004	5	..........a	-327.66
	951	190.4	5.09981E-001	4.54094E-008	0.00000E+000	5.10000E-001	9.92592E-004	5	..........a	-327.66
	952	190.6	5.00050E-001	4.30820E-008	0.00000E+000	5.00000E-001	9.82992E-004	5	..........a	-327.66
	953	190.8	4.89950E-001	4.07521E-008	0.00000E+000	4.90000E-001	9.96192E-004	5	..........a	-327.66
	954	191	4.79926E-001	3.84445E-008	0.00000E+000	4.80000E-001	9.98592E-004	5	..........a	-327.66
	955	191.2	4.70036E-001	3.62149E-008	0.00000E+000	4.70000E-001	9.87192E-004	5	..........a	-327.66
	956	191.4	4.60009E-001	3.39968E-008	0.00000E+000	4.60000E-001	9.98792E-004	5	..........a	-327.66
	957	191.6	4.49876E-001	3.17946E-008	0.00000E+000	4.50000E-001	9.79392E-004	5	..........a	-327.66
	958	191.8	4.39951E-001	2.96278E-008	0.00000E+000	4.40000E-001	9.96092E-004	5	..........a	-327.66
	959	192	4.29983E-001	2.74760E-008	0.00000E+000	4.30000E-001	9.85992E-004	5	..........a	-327.66
	960	192.2	4.20017E-001	2.53371E-008	0.00000E+000	4.20000E-001	1.00699E-003	5	..........a	-327.66
	961	192.4	4.09964E-001	2.32354E-008	0.00000E+000	4.10000E-001	1.00759E-003	5	..........a	-327.66
	962	192.6	4.00004E-001	2.11381E-008	0.00000E+000	4.00000E-001	9.91392E-004	5	..........a	-327.66
	963	192.8	3.90032E-001	1.90350E-008	0.00000E+000	3.90000E-001	9.76392E-004	5	..........a	-327.66
	964	193	3.80068E-001	1.69662E-008	0.00000E+000	3.80000E-001	9.65592E-004	5	..........a	-327.66
	965	193.2	3.70037E-001	1.48820E-008	0.00000E+000	3.70000E-001	1.00019E-003	5	..........a	-327.66
	966	193.4	3.59974E-001	1.28539E-008	0.00000E+000	3.60000E-001	9.85292E-004	5	..........a	-327.66
	967	193.6	3.50013E-001	1.07737E-008	0.00000E+000	3.50000E-001	1.00239E-003	5	..........a	-327.66
	968	193.8	3.40051E-001	8.71215E-009	0.00000E+000	3.40000E-001	9.79792E-004	5	..........a	-327.66
	969	194	3.30008E-001	6.64277E-009	0.00000E+000	3.30000E-001	9.78792E-004	5	..........a	-327.66
	970	194.2	3.20023E-001	4.57022E-009	0.00000E+000	3.20000E-001	1.01309E-003	5	..........a	-327.66
	971	194.4	3.09987E-001	2.50853E-009	0.00000E+000	3.10000E-001	9.97992E-004	5	..........a	-327.66
	972	194.6	3.00078E-001	4.24042E-010	0.00000E+000	3.00000E-001	9.84292E-004	5	..........a	-327.66
	973	194.8	2.90020E-001	-1.68044E-009	0.00000E+000	2.90000E-001	9.97292E-004	5	..........a	-327.66
	974	195	2.80018E-001	-3.74362E-009	0.00000E+000	2.80000E-001	9.76392E-004	5	..........a	-327.66
	975	195.2	2.70116E-001	-5.82968E-009	0.00000E+000	2.70000E-001	9.73692E-004	5	..........a	-327.66
	976	195.4	2.60065E-001	-7.93231E-009	0.00000E+000	2.60000E-001	9.91192E-004	5	..........a	-327.66
	977	195.6	2.50044E-001	-1.00577E-008	0.00000E+000	2.50000E-001	9.86092E-004	5	..........a	-327.66
	978	195.8	2.40039E-001	-1.21643E-008	0.00000E+000	2.40000E-001	1.00809E-003	5	..........a	-327.66
	979	196	2.30029E-001	-1.42766E-008	0.00000E+000	2.30000E-001	1.00269E-003	5	..........a	-327.66
	980	196.2	2.20101E-001	-1.63976E-008	0.00000E+000	2.20000E-001	9.73192E-004	5	..........a	-327.66
	981	196.4	2.10022E-001	-1.85305E-008	0.00000E+000	2.10000E-001	1.00199E-003	5	..........a	-327.66
	982	196.6	2.00057E-001	-2.06564E-008	0.00000E+000	2.00000E-001	1.00259E-003	5	..........a	-327.66
	983	196.8	1.90112E-001	-2.27908E-008	0.00000E+000	1.90000E-001	9.85692E-004	5	..........a	-327.66
	984	197	1.80120E-001	-2.49121E-008	0.00000E+000	1.80000E-001	9.84492E-004	5	..........a	-327.66
	985	197.2	1.70073E-001	-2.70113E-008	0.00000E+000	1.70000E-001	9.80792E-004	5	..........a	-327.66
	986	197.4	1.60064E-001	-2.91153E-008	0.00000E+000	1.60000E-001	9.82092E-004	5	..........a	-327.66
	987	197.6	1.50082E-001	-3.11994E-008	0.00000E+000	1.50000E-001	9.97992E-004	5	..........a	-327.66
	988	197.8	1.40126E-001	-3.32827E-008	0.00000E+000	1.40000E-001	9.71092E-004	5	..........a	-327.66
	989	198	1.30091E-001	-3.53618E-008	0.00000E+000	1.30000E-001	9.76692E-004	5	..........a	-327.66
	990	198.2	1.20044E-001	-3.73700E-008	0.00000E+000	1.20000E-001	9.81892E-004	5	..........a	-327.66
	991	198.4	1.10112E-001	-3.93808E-008	0.00000E+000	1.10000E-001	9.81592E-004	5	..........a	-327.66
	992	198.6	1.00139E-001	-4.13982E-008	0.00000E+000	1.00000E-001	9.76692E-004	5	..........a	-327.66
	993	198.8	9.00999E-002	-4.34091E-008	0.00000E+000	9.00000E-002	9.71592E-004	5	..........a	-327.66
	994	199	8.00866E-002	-4.53876E-008	0.00000E+000	8.00000E-002	9.84692E-004	5	..........a	-327.66
	995	199.2	7.00325E-002	-4.73726E-008	0.00000E+000	7.00000E-002	9.77392E-004	5	..........a	-327.66
	996	199.4	6.01318E-002	-4.93359E-008	0.00000E+000	6.00000E-002	9.97692E-004	5	..........a	-327.66
	997	199.6	5.00725E-002	-5.12750E-008	0.00000E+000	5.00000E-002	9.86592E-004	5	..........a	-327.66
	998	199.8	4.01149E-002	-5.31546E-008	0.00000E+000	4.00000E-002	9.84592E-004	5	..........a	-327.66
	999	200	3.00763E-002	-5.50368E-008	0.00000E+000	3.00000E-002	1.00609E-003	5	..........a	-327.66
	1000	200.2	2.02084E-002	-5.70555E-008	0.00000E+000	2.00000E-002	9.83592E-004	5	..........a	-327.66
	1001	200.4	1.01201E-002	-5.94301E-008	0.00000E+000	1.00000E-002	9.84292E-004	5	..........a	-327.66
	1002	200.6	5.79417E-005	-6.21646E-008	0.00000E+000	7.45058E-009	9.89692E-004	5	..........a	-327.66
	1003	200.8	-9.87421E-003	-6.45511E-008	0.00000E+000	-1.00000E-002	9.97192E-004	5	..........a	-327.66
	1004	201	-1.98865E-002	-6.65738E-008	0.00000E+000	-2.00000E-002	9.70892E-004	5	..........a	-327.66
	1005	201.2	-2.99301E-002	-6.82569E-008	0.00000E+000	-3.00000E-002	9.78592E-004	5	..........a	-327.66
	1006	201.4	-3.98878E-002	-6.99602E-008	0.00000E+000	-4.00000E-002	9.81692E-004	5	..........a	-327.66
	1007	201.6	-4.98908E-002	-7.15346E-008	0.00000E+000	-5.00000E-002	9.90792E-004	5	..........a	-327.66
	1008	201.8	-5.98234E-002	-7.30246E-008	0.00000E+000	-6.00000E-002	9.66592E-004	5	..........a	-327.66
	1009	202	-6.98947E-002	-7.45097E-008	0.00000E+000	-7.00000E-002	9.86692E-004	5	..........a	-327.66
	1010	202.2	-7.99032E-002	-7.59886E-008	0.00000E+000	-8.00000E-002	9.89392E-004	5	..........a	-327.66
	1011	202.4	-8.98697E-002	-7.74191E-008	0.00000E+000	-9.00000E-002	9.84292E-004	5	..........a	-327.66
	1012	202.6	-9.98462E-002	-7.89364E-008	0.00000E+000	-1.00000E-001	9.84392E-004	5	..........a	-327.66
	1013	202.8	-1.09943E-001	-8.03967E-008	0.00000E+000	-1.10000E-001	9.97192E-004	5	..........a	-327.66
	1014	203	-1.19902E-001	-8.18149E-008	0.00000E+000	-1.20000E-001	9.76592E-004	5	..........a	-327.66
	1015	203.2	-1.29938E-001	-8.33136E-008	0.00000E+000	-1.30000E-001	1.00639E-003	5	..........a	-327.66
	1016	203.4	-1.39867E-001	-8.48006E-008	0.00000E+000	-1.40000E-001	9.72692E-004	5	..........a	-327.66
	1017	203.6	-1.49889E-001	-8.61990E-008	0.00000E+000	-1.50000E-001	9.93992E-004	5	..........a	-327.66
	1018	203.8	-1.59892E-001	-8.77181E-008	0.00000E+000	-1.60000E-001	9.92392E-004	5	..........a	-327.66
	1019	204	-1.69867E-001	-8.92639E-008	0.00000E+000	-1.70000E-001	1.00599E-003	5	..........a	-327.66
	1020	204.2	-1.79834E-001	-9.08887E-008	0.00000E+000	-1.80000E-001	9.78592E-004	5	..........a	-327.66
	1021	204.4	-1.89893E-001	-9.24563E-008	0.00000E+000	-1.90000E-001	9.89592E-004	5	..........a	-327.66
	1022	204.6	-1.99918E-001	-9.39968E-008	0.00000E+000	-2.00000E-001	9.81692E-004	5	..........a	-327.66
	1023	204.8	-2.09866E-001	-9.55834E-008	0.00000E+000	-2.10000E-001	9.74392E-004	5	..........a	-327.66
	1024	205	-2.19833E-001	-9.71481E-008	0.00000E+000	-2.20000E-001	9.71392E-004	5	..........a	-327.66
	1025	205.2	-2.29899E-001	-9.87839E-008	0.00000E+000	-2.30000E-001	9.78592E-004	5	..........a	-327.66
	1026	205.4	-2.39864E-001	-1.00451E-007	0.00000E+000	-2.40000E-001	9.92192E-004	5	..........a	-327.66
	1027	205.6	-2.49848E-001	-1.02243E-007	0.00000E+000	-2.50000E-001	9.92692E-004	5	..........a	-327.66
	1028	205.8	-2.59766E-001	-1.04063E-007	0.00000E+000	-2.60000E-001	9.76592E-004	5	..........a	-327.66
	1029	206	-2.69839E-001	-1.05981E-007	0.00000E+000	-2.70000E-001	9.94992E-004	5	..........a	-327.66
	1030	206.2	-2.79849E-001	-1.07974E-007	0.00000E+000	-2.80000E-001	9.93892E-004	5	..........a	-327.66
	1031	206.4	-2.89875E-001	-1.10081E-007	0.00000E+000	-2.90000E-001	1.00099E-003	5	..........a	-327.66
	1032	206.6	-2.99809E-001	-1.12241E-007	0.00000E+000	-3.00000E-001	9.89292E-004	5	..........a	-327.66
	1033	206.8	-3.09870E-001	-1.14480E-007	0.00000E+000	-3.10000E-001	9.97692E-004	5	..........a	-327.66
	1034	207	-3.19813E-001	-1.17002E-007	0.00000E+000	-3.20000E-001	9.71992E-004	5	..........a	-327.66
	1035	207.2	-3.29876E-001	-1.19834E-007	0.00000E+000	-3.30000E-001	9.86392E-004	5	..........a	-327.66
	1036	207.4	-3.39756E-001	-1.22699E-007	0.00000E+000	-3.40000E-001	9.90592E-004	5	..........a	-327.66
	1037	207.6	-3.49838E-001	-1.25459E-007	0.00000E+000	-3.50000E-001	9.90292E-004	5	..........a	-327.66
	1038	207.8	-3.59833E-001	-1.28069E-007	0.00000E+000	-3.60000E-001	1.00729E-003	5	..........a	-327.66
	1039	208	-3.69830E-001	-1.30542E-007	0.00000E+000	-3.70000E-001	9.78292E-004	5	..........a	-327.66
	1040	208.2	-3.79777E-001	-1.33180E-007	0.00000E+000	-3.80000E-001	9.69092E-004	5	..........a	-327.66
	1041	208.4	-3.89861E-001	-1.35941E-007	0.00000E+000	-3.90000E-001	9.89492E-004	5	..........a	-327.66
	1042	208.6	-3.99824E-001	-1.38909E-007	0.00000E+000	-4.00000E-001	9.71892E-004	5	..........a	-327.66
	1043	208.8	-4.09829E-001	-1.41937E-007	0.00000E+000	-4.10000E-001	9.99392E-004	5	..........a	-327.66
	1044	209	-4.19732E-001	-1.45099E-007	0.00000E+000	-4.20000E-001	9.76592E-004	5	..........a	-327.66
	1045	209.2	-4.29817E-001	-1.48295E-007	0.00000E+000	-4.30000E-001	9.79192E-004	5	..........a	-327.66
	1046	209.4	-4.39827E-001	-1.51536E-007	0.00000E+000	-4.40000E-001	9.87492E-004	5	..........a	-327.66
	1047	209.6	-4.49810E-001	-1.54884E-007	0.00000E+000	-4.50000E-001	9.77492E-004	5	..........a	-327.66
	1048	209.8	-4.59736E-001	-1.58242E-007	0.00000E+000	-4.60000E-001	9.70492E-004	5	..........a	-327.66
	1049	210	-4.69797E-001	-1.61689E-007	0.00000E+000	-4.70000E-001	9.89492E-004	5	..........a	-327.66
	1050	210.2	-4.79811E-001	-1.65160E-007	0.00000E+000	-4.80000E-001	9.85792E-004	5	..........a	-327.66
	1051	210.4	-4.89805E-001	-1.68646E-007	0.00000E+000	-4.90000E-001	9.80392E-004	5	..........a	-327.66
	1052	210.6	-4.99773E-001	-1.72105E-007	0.00000E+000	-5.00000E-001	9.69292E-004	5	..........a	-327.66
	1053	210.8	-5.09814E-001	-1.75566E-007	0.00000E+000	-5.10000E-001	9.89692E-004	5	..........a	-327.66
	1054	211	-5.19793E-001	-1.79003E-007	0.00000E+000	-5.20000E-001	9.93992E-004	5	..........a	-327.66
	1055	211.2	-5.29808E-001	-1.82389E-007	0.00000E+000	-5.30000E-001	9.84092E-004	5	..........a	-327.66
	1056	211.4	-5.39714E-001	-1.85780E-007	0.00000E+000	-5.40000E-001	9.89192E-004	5	..........a	-327.66
	1057	211.6	-5.49821E-001	-1.89124E-007	0.00000E+000	-5.50000E-001	9.89692E-004	5	..........a	-327.66
	1058	211.8	-5.59828E-001	-1.92393E-007	0.00000E+000	-5.60000E-001	9.99692E-004	5	..........a	-327.66
	1059	212	-5.69818E-001	-1.95680E-007	0.00000E+000	-5.70000E-001	9.89992E-004	5	..........a	-327.66
	1060	212.2	-5.79749E-001	-1.98907E-007	0.00000E+000	-5.80000E-001	9.85392E-004	5	..........a	-327.66
	1061	212.4	-5.89810E-001	-2.02132E-007	0.00000E+000	-5.90000E-001	9.85892E-004	5	..........a	-327.66
	1062	212.6	-5.99755E-001	-2.05301E-007	0.00000E+000	-6.00000E-001	9.93892E-004	5	..........a	-327.66
CURVE5	TABLE
	Pt	T	Vf	Im	Vu	Sig	Ach	IERange	Over	Temp
	#	s	V vs. Ref.	A	V	V	V	#	bits	deg C
	1063	212.8	-5.89803E-001	-1.77261E-007	0.00000E+000	-5.90000E-001	9.74392E-004	5	..........a	-327.66
	1064	213	-5.79771E-001	-1.58519E-007	0.00000E+000	-5.80000E-001	9.82992E-004	5	..........a	-327.66
	1065	213.2	-5.69841E-001	-1.43955E-007	0.00000E+000	-5.70000E-001	9.94592E-004	5	..........a	-327.66
	1066	213.4	-5.59829E-001	-1.31660E-007	0.00000E+000	-5.60000E-001	9.79192E-004	5	..........a	-327.66
	1067	213.6	-5.49834E-001	-1.21104E-007	0.00000E+000	-5.50000E-001	9.76492E-004	5	..........a	-327.66
	1068	213.8	-5.39753E-001	-1.11794E-007	0.00000E+000	-5.40000E-001	9.72292E-004	5	..........a	-327.66
	1069	214	-5.29835E-001	-1.03469E-007	0.00000E+000	-5.30000E-001	9.65492E-004	5	..........a	-327.66
	1070	214.2	-5.19829E-001	-9.59236E-008	0.00000E+000	-5.20000E-001	9.87592E-004	5	..........a	-327.66
	1071	214.4	-5.09850E-001	-8.90055E-008	0.00000E+000	-5.10000E-001	9.94892E-004	5	..........a	-327.66
	1072	214.6	-4.99816E-001	-8.26485E-008	0.00000E+000	-5.00000E-001	9.68192E-004	5	..........a	-327.66
	1073	214.8	-4.89844E-001	-7.67428E-008	0.00000E+000	-4.90000E-001	9.92892E-004	5	..........a	-327.66
	1074	215	-4.79835E-001	-7.12829E-008	0.00000E+000	-4.80000E-001	9.96192E-004	5	..........a	-327.66
	1075	215.2	-4.69842E-001	-6.62152E-008	0.00000E+000	-4.70000E-001	9.69492E-004	5	..........a	-327.66
	1076	215.4	-4.59808E-001	-6.14562E-008	0.00000E+000	-4.60000E-001	9.81792E-004	5	..........a	-327.66
	1077	215.6	-4.49839E-001	-5.69904E-008	0.00000E+000	-4.50000E-001	9.71992E-004	5	..........a	-327.66
	1078	215.8	-4.39875E-001	-5.28180E-008	0.00000E+000	-4.40000E-001	9.87192E-004	5	..........a	-327.66
	1079	216	-4.29863E-001	-4.88588E-008	0.00000E+000	-4.30000E-001	9.80992E-004	5	..........a	-327.66
	1080	216.2	-4.19813E-001	-4.51295E-008	0.00000E+000	-4.20000E-001	9.67792E-004	5	..........a	-327.66
	1081	216.4	-4.09879E-001	-4.15810E-008	0.00000E+000	-4.10000E-001	9.74092E-004	5	..........a	-327.66
	1082	216.6	-3.99885E-001	-3.81262E-008	0.00000E+000	-4.00000E-001	1.00479E-003	5	..........a	-327.66
	1083	216.8	-3.89912E-001	-3.49406E-008	0.00000E+000	-3.90000E-001	9.90792E-004	5	..........a	-327.66
	1084	217	-3.79851E-001	-3.18114E-008	0.00000E+000	-3.80000E-001	9.82792E-004	5	..........a	-327.66
	1085	217.2	-3.69872E-001	-2.88281E-008	0.00000E+000	-3.70000E-001	9.61392E-004	5	..........a	-327.66
	1086	217.4	-3.59903E-001	-2.59275E-008	0.00000E+000	-3.60000E-001	9.73592E-004	5	..........a	-327.66
	1087	217.6	-3.49886E-001	-2.31673E-008	0.00000E+000	-3.50000E-001	9.98092E-004	5	..........a	-327.66
	1088	217.8	-3.39843E-001	-2.05012E-008	0.00000E+000	-3.40000E-001	9.73892E-004	5	..........a	-327.66
	1089	218	-3.29917E-001	-1.78815E-008	0.00000E+000	-3.30000E-001	9.85992E-004	5	..........a	-327.66
	1090	218.2	-3.19864E-001	-1.53349E-008	0.00000E+000	-3.20000E-001	9.75092E-004	5	..........a	-327.66
	1091	218.4	-3.09917E-001	-1.28722E-008	0.00000E+000	-3.10000E-001	9.74092E-004	5	..........a	-327.66
	1092	218.6	-2.99856E-001	-1.04905E-008	0.00000E+000	-3.00000E-001	9.77792E-004	5	..........a	-327.66
	1093	218.8	-2.89906E-001	-8.12498E-009	0.00000E+000	-2.90000E-001	9.71492E-004	5	..........a	-327.66
	1094	219	-2.79898E-001	-5.82256E-009	0.00000E+000	-2.80000E-001	9.95192E-004	5	..........a	-327.66
	1095	219.2	-2.69876E-001	-3.58009E-009	0.00000E+000	-2.70000E-001	9.80492E-004	5	..........a	-327.66
	1096	219.4	-2.59842E-001	-1.35427E-009	0.00000E+000	-2.60000E-001	9.80492E-004	5	..........a	-327.66
	1097	219.6	-2.49899E-001	8.31588E-010	0.00000E+000	-2.50000E-001	9.76892E-004	5	..........a	-327.66
	1098	219.8	-2.39975E-001	3.02190E-009	0.00000E+000	-2.40000E-001	9.86592E-004	5	..........a	-327.66
	1099	220	-2.29959E-001	5.13560E-009	0.00000E+000	-2.30000E-001	9.96192E-004	5	..........a	-327.66
	1100	220.2	-2.19897E-001	7.25334E-009	0.00000E+000	-2.20000E-001	9.82292E-004	5	..........a	-327.66
	1101	220.4	-2.09945E-001	9.34281E-009	0.00000E+000	-2.10000E-001	1.00939E-003	5	..........a	-327.66
	1102	220.6	-1.99981E-001	1.14224E-008	0.00000E+000	-2.00000E-001	1.00259E-003	5	..........a	-327.66
	1103	220.8	-1.90006E-001	1.35220E-008	0.00000E+000	-1.90000E-001	9.86392E-004	5	..........a	-327.66
	1104	221	-1.79930E-001	1.56099E-008	0.00000E+000	-1.80000E-001	9.74592E-004	5	..........a	-327.66
	1105	221.2	-1.69913E-001	1.77306E-008	0.00000E+000	-1.70000E-001	9.93792E-004	5	..........a	-327.66
	1106	221.4	-1.59996E-001	1.98524E-008	0.00000E+000	-1.60000E-001	9.87892E-004	5	..........a	-327.66
	1107	221.6	-1.49988E-001	2.20370E-008	0.00000E+000	-1.50000E-001	9.92492E-004	5	..........a	-327.66
	1108	221.8	-1.39899E-001	2.43362E-008	0.00000E+000	-1.40000E-001	9.80992E-004	5	..........a	-327.66
	1109	222	-1.29963E-001	2.66590E-008	0.00000E+000	-1.30000E-001	1.00429E-003	5	..........a	-327.66
	1110	222.2	-1.19978E-001	2.90238E-008	0.00000E+000	-1.20000E-001	9.94292E-004	5	..........a	-327.66
	1111	222.4	-1.09969E-001	3.12065E-008	0.00000E+000	-1.10000E-001	9.80992E-004	5	..........a	-327.66
	1112	222.6	-9.99192E-002	3.33560E-008	0.00000E+000	-1.00000E-001	9.75892E-004	5	..........a	-327.66
	1113	222.8	-8.99206E-002	3.53820E-008	0.00000E+000	-9.00000E-002	9.91092E-004	5	..........a	-327.66
	1114	223	-7.99791E-002	3.73823E-008	0.00000E+000	-8.00000E-002	9.85092E-004	5	..........a	-327.66
	1115	223.2	-6.99477E-002	3.96596E-008	0.00000E+000	-7.00000E-002	9.77692E-004	5	..........a	-327.66
	1116	223.4	-5.99064E-002	4.19854E-008	0.00000E+000	-6.00000E-002	9.79492E-004	5	..........a	-327.66
	1117	223.6	-4.99601E-002	4.43583E-008	0.00000E+000	-5.00000E-002	9.86692E-004	5	..........a	-327.66
	1118	223.8	-3.99471E-002	4.66523E-008	0.00000E+000	-4.00000E-002	9.93292E-004	5	..........a	-327.66
	1119	224	-3.00071E-002	4.91650E-008	0.00000E+000	-3.00000E-002	9.98392E-004	5	..........a	-327.66
	1120	224.2	-1.99543E-002	5.16824E-008	0.00000E+000	-2.00000E-002	9.80692E-004	5	..........a	-327.66