File: data/raw/batch_data/20240424_ZU_GM0016_HL03_E12_CV50.DTA
EXPLAIN
TAG	CV
TITLE	LABEL	Cyclic Voltammetry	Test &Identifier
DATE	LABEL	4/24/2024	Date
TIME	LABEL	19:18:16	Time
NOTES	NOTES	1	&Notes...

PSTAT	PSTAT	REF600P-43058	Potentiostat
VINIT	POTEN	0.00000E+000	T	Initial &E (V)
VLIMIT1	POTEN	-6.00000E-001	F	Scan Limit &1 (V)
VLIMIT2	POTEN	8.00000E-001	F	Scan Limit &2 (V)
VFINAL	POTEN	0.00000E+000	T	Final &E (V)
SCANRATE	QUANT	4.99999E+001	&Scan Rate (mV/s)
STEPSIZE	QUANT	1.00000E+001	St&ep Size (mV)
CYCLES	IQUANT	4	C&ycles (#)
IMODE	SELECTOR	0	I/E Range &Mode
IRANGE	QUANT	1.00000E-005	&Max Current (mA)
AREA	QUANT	1.00000E+000	Electrode &Area (cm^2)
ELECTRODETYPE	SELECTOR	0	Electrode Type
STRIPPING	TOGGLE	F	Used for Stripping
POLARITY	TOGGLE	F	Signal Polarity
CONDIT	TWOPARAM	F	1.50000E+001	0.00000E+000	Conditionin&g	Time(s)	E(V)
DELAY	TWOPARAM	T	1.00000E+001	0.00000E+000	Init. De&lay	Time(s)	Stab.(mV/s)
EQDELAY	QUANT	1.00000E+001	Equil. &Time (s)
IRCOMP	SELECTOR	0	IRCom&p
PFCOR	QUANT	5.00000E+001	PF Corr. (ohm)
SAMPLINGMODE	SELECTOR	1	Sampling &Mode
OCVCURVE	TABLE	39
	Pt	T	Vf	Vm	Ach	Over	Temp
	#	s	V vs. Ref.	V	V	bits	deg C
	0	0.258333	-3.92755E-002	-3.92755E-002	2.52792E-004	..........a	-327.66
	1	0.516667	-3.92780E-002	-3.94050E-002	2.45859E-004	..........a	-327.66
	2	0.775	-3.92934E-002	-3.95393E-002	2.57592E-004	..........a	-327.66
	3	1.03333	-3.93381E-002	-3.96872E-002	2.53726E-004	..........a	-327.66
	4	1.29167	-3.94208E-002	-3.98134E-002	2.42259E-004	..........a	-327.66
	5	1.55	-3.95346E-002	-3.99424E-002	2.67726E-004	..........a	-327.66
	6	1.80833	-3.96647E-002	-4.00741E-002	2.52459E-004	..........a	-327.66
	7	2.06667	-3.97987E-002	-4.01978E-002	2.47792E-004	..........a	-327.66
	8	2.325	-3.99312E-002	-4.03293E-002	2.58659E-004	..........a	-327.66
	9	2.58333	-4.00614E-002	-4.04503E-002	2.44926E-004	..........a	-327.66
	10	2.84167	-4.01894E-002	-4.05717E-002	2.66392E-004	..........a	-327.66
	11	3.1	-4.03154E-002	-4.06885E-002	2.37326E-004	..........a	-327.66
	12	3.35833	-4.04391E-002	-4.08114E-002	2.66526E-004	..........a	-327.66
	13	3.61667	-4.05607E-002	-4.09256E-002	2.44992E-004	..........a	-327.66
	14	3.875	-4.06807E-002	-4.10452E-002	2.50726E-004	..........a	-327.66
	15	4.13333	-4.07992E-002	-4.11444E-002	2.58926E-004	..........a	-327.66
	16	4.39167	-4.09157E-002	-4.12655E-002	2.42592E-004	..........a	-327.66
	17	4.65	-4.10297E-002	-4.13715E-002	2.59592E-004	..........a	-327.66
	18	4.90833	-4.11416E-002	-4.14684E-002	2.58459E-004	..........a	-327.66
	19	5.16667	-4.12516E-002	-4.15899E-002	2.41992E-004	..........a	-327.66
	20	5.425	-4.13601E-002	-4.16914E-002	2.61192E-004	..........a	-327.66
	21	5.68333	-4.14678E-002	-4.17859E-002	2.57192E-004	..........a	-327.66
	22	5.94167	-4.15747E-002	-4.19041E-002	2.41326E-004	..........a	-327.66
	23	6.2	-4.16804E-002	-4.20040E-002	2.42192E-004	..........a	-327.66
	24	6.45833	-4.17853E-002	-4.20931E-002	2.63459E-004	..........a	-327.66
	25	6.71667	-4.18891E-002	-4.21992E-002	2.36859E-004	..........a	-327.66
	26	6.975	-4.19908E-002	-4.22957E-002	2.42726E-004	..........a	-327.66
	27	7.23333	-4.20905E-002	-4.23887E-002	2.42326E-004	..........a	-327.66
	28	7.49167	-4.21888E-002	-4.24823E-002	2.54392E-004	..........a	-327.66
	29	7.75	-4.22855E-002	-4.25697E-002	2.49659E-004	..........a	-327.66
	30	8.00833	-4.23802E-002	-4.26603E-002	2.64192E-004	..........a	-327.66
	31	8.26667	-4.24726E-002	-4.27474E-002	2.45259E-004	..........a	-327.66
	32	8.525	-4.25631E-002	-4.28385E-002	2.51392E-004	..........a	-327.66
	33	8.78333	-4.26526E-002	-4.29260E-002	2.58326E-004	..........a	-327.66
	34	9.04167	-4.27418E-002	-4.30195E-002	2.36526E-004	..........a	-327.66
	35	9.3	-4.28310E-002	-4.31039E-002	2.36926E-004	..........a	-327.66
	36	9.5583	-4.29204E-002	-4.31930E-002	2.36192E-004	..........a	-327.66
	37	9.8167	-4.30093E-002	-4.32728E-002	2.46859E-004	..........a	-327.66
	38	10.075	-4.30969E-002	-4.33570E-002	2.62792E-004	..........a	-327.66
EOC	QUANT	-0.0430969	Open Circuit (V)
PSTATMODEL	IQUANT	7	Pstat Model
PSTATSECTION	LABEL	REF600P-43058	Pstat Section
PSTATSERIALNO	LABEL	43058	Pstat Serial Number
CTRLMODE	IQUANT	1	Control Mode
ELECTROMETER	IQUANT	0	RE=0 or CS=1
IESTAB	IQUANT	2	I/E Stability
CASPEED	IQUANT	4	Control Amp Speed
CONVENTION	IQUANT	1	Current Convention
ICHRANGE	IQUANT	2	Ich Range
ICHRANGEMODE	TOGGLE	F	Ich Auto Range
ICHOFFSETENABLE	TOGGLE	F	Ich Offset Enable
ICHOFFSET	QUANT	0	Ich Offset (V)
ICHFILTER	IQUANT	2	Ich Filter
VCHRANGE	IQUANT	2	Vch Range
VCHRANGEMODE	TOGGLE	F	Vch Auto Range
VCHOFFSETENABLE	TOGGLE	F	Vch Offset Enable
VCHOFFSET	QUANT	0	Vch Offset (V)
VCHFILTER	IQUANT	2	Vch Filter
ACHRANGE	IQUANT	2	Ach Range
ACHOFFSETENABLE	TOGGLE	F	Ach Offset Enable
ACHOFFSET	QUANT	0	Ach Offset (V)
ACHFILTER	IQUANT	1	Ach Filter
IERANGELOWERLIMIT	IQUANT	1	I/E Range Lower Limit
IERANGEMODE	TOGGLE	T	I/E AutoRange
IERANGE	IQUANT	4	I/E Range
POSFEEDENABLE	TOGGLE	F	Positive Feedback IR Comp
POSFEEDRESISTANCE	QUANT	0	Positive Feedback Resistance (ohm)
ACHSELECT	IQUANT	4	Ach Select
SENSECABLEID	IQUANT	7	Sense Cable ID
PWRCABLEID	IQUANT	7	Power Cable ID
DCCALDATE	LABEL	3/22/2024	DC Calibration Date
ACCALDATE	LABEL	3/22/2024	AC Calibration Date
THERMOSELECT	IQUANT	1	Thermo Select
FRAMEWORKVERSION	LABEL	7.8.4	Framework Version
INSTRUMENTVERSION	LABEL	4.42	Instrument Version
CURVE1	TABLE
	Pt	T	Vf	Im	Vu	Sig	Ach	IERange	Over	Temp
	#	s	V vs. Ref.	A	V	V	V	#	bits	deg C
	0	0.2	-4.30592E-002	6.26780E-010	0.00000E+000	-4.31000E-002	1.01799E-003	5	..........a	-327.66
	1	0.4	-5.30840E-002	-1.91553E-009	0.00000E+000	-5.31000E-002	1.02179E-003	5	..........a	-327.66
	2	0.6	-6.29748E-002	-3.78514E-009	0.00000E+000	-6.31000E-002	1.00159E-003	5	..........a	-327.66
	3	0.8	-7.30467E-002	-5.43527E-009	0.00000E+000	-7.31000E-002	1.01729E-003	5	..........a	-327.66
	4	1	-8.30485E-002	-6.90288E-009	0.00000E+000	-8.31000E-002	1.01199E-003	5	..........a	-327.66
	5	1.2	-9.30191E-002	-8.32320E-009	0.00000E+000	-9.31000E-002	9.93292E-004	5	..........a	-327.66
	6	1.4	-1.02987E-001	-9.76499E-009	0.00000E+000	-1.03100E-001	1.00409E-003	5	..........a	-327.66
	7	1.6	-1.13048E-001	-1.11874E-008	0.00000E+000	-1.13100E-001	1.01409E-003	5	..........a	-327.66
	8	1.8	-1.23096E-001	-1.25855E-008	0.00000E+000	-1.23100E-001	1.01289E-003	5	..........a	-327.66
	9	2	-1.33041E-001	-1.39562E-008	0.00000E+000	-1.33100E-001	1.02459E-003	5	..........a	-327.66
	10	2.2	-1.43022E-001	-1.53553E-008	0.00000E+000	-1.43100E-001	1.00629E-003	5	..........a	-327.66
	11	2.4	-1.53066E-001	-1.66829E-008	0.00000E+000	-1.53100E-001	1.02119E-003	5	..........a	-327.66
	12	2.6	-1.63064E-001	-1.80084E-008	0.00000E+000	-1.63100E-001	1.02959E-003	5	..........a	-327.66
	13	2.8	-1.73031E-001	-1.93001E-008	0.00000E+000	-1.73100E-001	9.94492E-004	5	..........a	-327.66
	14	3	-1.82946E-001	-2.05700E-008	0.00000E+000	-1.83100E-001	1.00679E-003	5	..........a	-327.66
	15	3.2	-1.93036E-001	-2.18132E-008	0.00000E+000	-1.93100E-001	1.00679E-003	5	..........a	-327.66
	16	3.4	-2.03064E-001	-2.30619E-008	0.00000E+000	-2.03100E-001	1.03599E-003	5	..........a	-327.66
	17	3.6	-2.13018E-001	-2.42944E-008	0.00000E+000	-2.13100E-001	1.02799E-003	5	..........a	-327.66
	18	3.8	-2.22976E-001	-2.55659E-008	0.00000E+000	-2.23100E-001	1.00239E-003	5	..........a	-327.66
	19	4	-2.33020E-001	-2.68341E-008	0.00000E+000	-2.33100E-001	1.00469E-003	5	..........a	-327.66
	20	4.2	-2.43015E-001	-2.81453E-008	0.00000E+000	-2.43100E-001	9.97892E-004	5	..........a	-327.66
	21	4.4	-2.53018E-001	-2.94457E-008	0.00000E+000	-2.53100E-001	1.03729E-003	5	..........a	-327.66
	22	4.6	-2.62910E-001	-3.07695E-008	0.00000E+000	-2.63100E-001	1.00749E-003	5	..........a	-327.66
	23	4.8	-2.73006E-001	-3.21164E-008	0.00000E+000	-2.73100E-001	1.03599E-003	5	..........a	-327.66
	24	5	-2.83037E-001	-3.35260E-008	0.00000E+000	-2.83100E-001	1.05399E-003	5	..........a	-327.66
	25	5.2	-2.93038E-001	-3.49565E-008	0.00000E+000	-2.93100E-001	1.01929E-003	5	..........a	-327.66
	26	5.4	-3.02930E-001	-3.64112E-008	0.00000E+000	-3.03100E-001	1.02839E-003	5	..........a	-327.66
	27	5.6	-3.13054E-001	-3.79028E-008	0.00000E+000	-3.13100E-001	1.00469E-003	5	..........a	-327.66
	28	5.8	-3.22990E-001	-3.94088E-008	0.00000E+000	-3.23100E-001	1.05009E-003	5	..........a	-327.66
	29	6	-3.33025E-001	-4.09872E-008	0.00000E+000	-3.33100E-001	1.01949E-003	5	..........a	-327.66
	30	6.2	-3.42907E-001	-4.25645E-008	0.00000E+000	-3.43100E-001	9.94892E-004	5	..........a	-327.66
	31	6.4	-3.53000E-001	-4.41450E-008	0.00000E+000	-3.53100E-001	1.02449E-003	5	..........a	-327.66
	32	6.6	-3.62978E-001	-4.57246E-008	0.00000E+000	-3.63100E-001	1.02979E-003	5	..........a	-327.66
	33	6.8	-3.72999E-001	-4.73534E-008	0.00000E+000	-3.73100E-001	1.00449E-003	5	..........a	-327.66
	34	7	-3.82919E-001	-4.90034E-008	0.00000E+000	-3.83100E-001	1.00869E-003	5	..........a	-327.66
	35	7.2	-3.92995E-001	-5.06405E-008	0.00000E+000	-3.93100E-001	1.01479E-003	5	..........a	-327.66
	36	7.4	-4.02992E-001	-5.22783E-008	0.00000E+000	-4.03100E-001	1.00309E-003	5	..........a	-327.66
	37	7.6	-4.12976E-001	-5.39569E-008	0.00000E+000	-4.13100E-001	1.00689E-003	5	..........a	-327.66
	38	7.8	-4.22942E-001	-5.56334E-008	0.00000E+000	-4.23100E-001	9.88292E-004	5	..........a	-327.66
	39	8	-4.32978E-001	-5.72991E-008	0.00000E+000	-4.33100E-001	1.01959E-003	5	..........a	-327.66
	40	8.2	-4.42996E-001	-5.89970E-008	0.00000E+000	-4.43100E-001	1.02349E-003	5	..........a	-327.66
	41	8.4	-4.52976E-001	-6.06908E-008	0.00000E+000	-4.53100E-001	1.04009E-003	5	..........a	-327.66
	42	8.6	-4.62868E-001	-6.24040E-008	0.00000E+000	-4.63100E-001	1.01849E-003	5	..........a	-327.66
	43	8.8	-4.72960E-001	-6.41415E-008	0.00000E+000	-4.73100E-001	1.01589E-003	5	..........a	-327.66
	44	9	-4.82957E-001	-6.58453E-008	0.00000E+000	-4.83100E-001	1.03009E-003	5	..........a	-327.66
	45	9.2	-4.92976E-001	-6.76025E-008	0.00000E+000	-4.93100E-001	1.01969E-003	5	..........a	-327.66
	46	9.4	-5.02897E-001	-6.93293E-008	0.00000E+000	-5.03100E-001	1.01679E-003	5	..........a	-327.66
	47	9.6	-5.12984E-001	-7.11096E-008	0.00000E+000	-5.13100E-001	1.01069E-003	5	..........a	-327.66
	48	9.8	-5.22884E-001	-7.29200E-008	0.00000E+000	-5.23100E-001	1.01159E-003	5	..........a	-327.66
	49	10	-5.32981E-001	-7.47166E-008	0.00000E+000	-5.33100E-001	1.01299E-003	5	..........a	-327.66
	50	10.2	-5.42860E-001	-7.65221E-008	0.00000E+000	-5.43100E-001	1.02719E-003	5	..........a	-327.66
	51	10.4	-5.52978E-001	-7.83314E-008	0.00000E+000	-5.53100E-001	1.03299E-003	5	..........a	-327.66
	52	10.6	-5.62972E-001	-8.01459E-008	0.00000E+000	-5.63100E-001	1.01529E-003	5	..........a	-327.66
	53	10.8	-5.72963E-001	-8.20475E-008	0.00000E+000	-5.73100E-001	1.01039E-003	5	..........a	-327.66
	54	11	-5.82884E-001	-8.38724E-008	0.00000E+000	-5.83100E-001	1.02029E-003	5	..........a	-327.66
	55	11.2	-5.92981E-001	-8.56714E-008	0.00000E+000	-5.93100E-001	1.00779E-003	5	..........a	-327.66
	56	11.4	-6.02939E-001	-8.75940E-008	0.00000E+000	-6.03100E-001	1.00729E-003	5	..........a	-327.66
	57	11.6	-5.92955E-001	-7.75702E-008	0.00000E+000	-5.93100E-001	1.03409E-003	5	..........a	-327.66
	58	11.8	-5.82896E-001	-7.09582E-008	0.00000E+000	-5.83100E-001	1.00119E-003	5	..........a	-327.66
	59	12	-5.72987E-001	-6.58010E-008	0.00000E+000	-5.73100E-001	9.93592E-004	5	..........a	-327.66
	60	12.2	-5.63024E-001	-6.15091E-008	0.00000E+000	-5.63100E-001	1.04049E-003	5	..........a	-327.66
	61	12.4	-5.52989E-001	-5.77078E-008	0.00000E+000	-5.53100E-001	1.01879E-003	5	..........a	-327.66
	62	12.6	-5.42856E-001	-5.43666E-008	0.00000E+000	-5.43100E-001	1.02439E-003	5	..........a	-327.66
	63	12.8	-5.32990E-001	-5.14301E-008	0.00000E+000	-5.33100E-001	1.04689E-003	5	..........a	-327.66
	64	13	-5.23024E-001	-4.86737E-008	0.00000E+000	-5.23100E-001	1.00339E-003	5	..........a	-327.66
	65	13.2	-5.13000E-001	-4.61109E-008	0.00000E+000	-5.13100E-001	1.00619E-003	5	..........a	-327.66
	66	13.4	-5.02928E-001	-4.37246E-008	0.00000E+000	-5.03100E-001	9.91692E-004	5	..........a	-327.66
	67	13.6	-4.92988E-001	-4.13957E-008	0.00000E+000	-4.93100E-001	1.01709E-003	5	..........a	-327.66
	68	13.8	-4.82994E-001	-3.92054E-008	0.00000E+000	-4.83100E-001	1.00919E-003	5	..........a	-327.66
	69	14	-4.72983E-001	-3.71617E-008	0.00000E+000	-4.73100E-001	1.01469E-003	5	..........a	-327.66
	70	14.2	-4.62882E-001	-3.52220E-008	0.00000E+000	-4.63100E-001	1.00249E-003	5	..........a	-327.66
	71	14.4	-4.52984E-001	-3.33194E-008	0.00000E+000	-4.53100E-001	1.03239E-003	5	..........a	-327.66
	72	14.6	-4.42985E-001	-3.14914E-008	0.00000E+000	-4.43100E-001	1.01339E-003	5	..........a	-327.66
	73	14.8	-4.32994E-001	-2.97838E-008	0.00000E+000	-4.33100E-001	1.00559E-003	5	..........a	-327.66
	74	15	-4.22948E-001	-2.80615E-008	0.00000E+000	-4.23100E-001	1.01269E-003	5	..........a	-327.66
	75	15.2	-4.13004E-001	-2.64105E-008	0.00000E+000	-4.13100E-001	1.00599E-003	5	..........a	-327.66
	76	15.4	-4.02990E-001	-2.48154E-008	0.00000E+000	-4.03100E-001	1.03539E-003	5	..........a	-327.66
	77	15.6	-3.92999E-001	-2.32781E-008	0.00000E+000	-3.93100E-001	1.02309E-003	5	..........a	-327.66
	78	15.8	-3.82933E-001	-2.17332E-008	0.00000E+000	-3.83100E-001	1.01819E-003	5	..........a	-327.66
	79	16	-3.73018E-001	-2.01795E-008	0.00000E+000	-3.73100E-001	1.00789E-003	5	..........a	-327.66
	80	16.2	-3.62990E-001	-1.87509E-008	0.00000E+000	-3.63100E-001	1.01189E-003	5	..........a	-327.66
	81	16.4	-3.53032E-001	-1.73218E-008	0.00000E+000	-3.53100E-001	1.03629E-003	5	..........a	-327.66
	82	16.6	-3.42901E-001	-1.59157E-008	0.00000E+000	-3.43100E-001	1.00279E-003	5	..........a	-327.66
	83	16.8	-3.33027E-001	-1.45572E-008	0.00000E+000	-3.33100E-001	1.03019E-003	5	..........a	-327.66
	84	17	-3.22978E-001	-1.32268E-008	0.00000E+000	-3.23100E-001	1.02989E-003	5	..........a	-327.66
	85	17.2	-3.13036E-001	-1.19124E-008	0.00000E+000	-3.13100E-001	9.92192E-004	5	..........a	-327.66
	86	17.4	-3.02971E-001	-1.06299E-008	0.00000E+000	-3.03100E-001	9.92192E-004	5	..........a	-327.66
	87	17.6	-2.93040E-001	-9.36279E-009	0.00000E+000	-2.93100E-001	1.03589E-003	5	..........a	-327.66
	88	17.8	-2.82972E-001	-8.11166E-009	0.00000E+000	-2.83100E-001	1.02659E-003	5	..........a	-327.66
	89	18	-2.73015E-001	-6.89328E-009	0.00000E+000	-2.73100E-001	1.02659E-003	5	..........a	-327.66
	90	18.2	-2.62908E-001	-5.72692E-009	0.00000E+000	-2.63100E-001	1.02719E-003	5	..........a	-327.66
	91	18.4	-2.53024E-001	-4.52063E-009	0.00000E+000	-2.53100E-001	1.03209E-003	5	..........a	-327.66
	92	18.6	-2.42959E-001	-3.39583E-009	0.00000E+000	-2.43100E-001	1.00839E-003	5	..........a	-327.66
	93	18.8	-2.33042E-001	-2.24020E-009	0.00000E+000	-2.33100E-001	1.02919E-003	5	..........a	-327.66
	94	19	-2.22976E-001	-1.13701E-009	0.00000E+000	-2.23100E-001	1.02789E-003	5	..........a	-327.66
	95	19.2	-2.13047E-001	-5.59956E-011	0.00000E+000	-2.13100E-001	1.01119E-003	5	..........a	-327.66
	96	19.4	-2.03108E-001	1.04988E-009	0.00000E+000	-2.03100E-001	1.03549E-003	5	..........a	-327.66
	97	19.6	-1.93035E-001	2.12523E-009	0.00000E+000	-1.93100E-001	1.00789E-003	5	..........a	-327.66
	98	19.8	-1.82968E-001	3.15821E-009	0.00000E+000	-1.83100E-001	1.01409E-003	5	..........a	-327.66
	99	20	-1.73072E-001	4.19002E-009	0.00000E+000	-1.73100E-001	1.00939E-003	5	..........a	-327.66
	100	20.2	-1.63085E-001	5.17126E-009	0.00000E+000	-1.63100E-001	1.00959E-003	5	..........a	-327.66
	101	20.4	-1.53135E-001	6.17871E-009	0.00000E+000	-1.53100E-001	1.03099E-003	5	..........a	-327.66
	102	20.6	-1.43027E-001	7.18352E-009	0.00000E+000	-1.43100E-001	1.00939E-003	5	..........a	-327.66
	103	20.8	-1.33095E-001	8.16616E-009	0.00000E+000	-1.33100E-001	1.03069E-003	5	..........a	-327.66
	104	21	-1.23084E-001	9.11797E-009	0.00000E+000	-1.23100E-001	1.03019E-003	5	..........a	-327.66
	105	21.2	-1.13204E-001	1.00748E-008	0.00000E+000	-1.13100E-001	1.03049E-003	5	..........a	-327.66
	106	21.4	-1.02988E-001	1.10069E-008	0.00000E+000	-1.03100E-001	1.00089E-003	5	..........a	-327.66
	107	21.6	-9.30337E-002	1.19710E-008	0.00000E+000	-9.31000E-002	1.02919E-003	5	..........a	-327.66
	108	21.8	-8.32096E-002	1.29021E-008	0.00000E+000	-8.31000E-002	1.02629E-003	5	..........a	-327.66
	109	22	-7.30740E-002	1.38614E-008	0.00000E+000	-7.31000E-002	9.98092E-004	5	..........a	-327.66
	110	22.2	-6.29438E-002	1.47994E-008	0.00000E+000	-6.31000E-002	1.01909E-003	5	..........a	-327.66
	111	22.4	-5.30433E-002	1.57525E-008	0.00000E+000	-5.31000E-002	1.03199E-003	5	..........a	-327.66
	112	22.6	-4.30586E-002	1.66875E-008	0.00000E+000	-4.31000E-002	1.02119E-003	5	..........a	-327.66
	113	22.8	-3.31020E-002	1.76396E-008	0.00000E+000	-3.31000E-002	1.02549E-003	5	..........a	-327.66
	114	23	-2.29814E-002	1.86091E-008	0.00000E+000	-2.31000E-002	1.03569E-003	5	..........a	-327.66
	115	23.2	-1.30422E-002	1.95356E-008	0.00000E+000	-1.31000E-002	1.04009E-003	5	..........a	-327.66
	116	23.4	-3.10716E-003	2.04394E-008	0.00000E+000	-3.09999E-003	1.01259E-003	5	..........a	-327.66
	117	23.6	6.96934E-003	2.13399E-008	0.00000E+000	6.90001E-003	1.02299E-003	5	..........a	-327.66
	118	23.8	1.70647E-002	2.22870E-008	0.00000E+000	1.69000E-002	1.01939E-003	5	..........a	-327.66
	119	24	2.68731E-002	2.31435E-008	0.00000E+000	2.69000E-002	1.01779E-003	5	..........a	-327.66
	120	24.2	3.69478E-002	2.41188E-008	0.00000E+000	3.69000E-002	9.95192E-004	5	..........a	-327.66
	121	24.4	4.69509E-002	2.51014E-008	0.00000E+000	4.69000E-002	1.02879E-003	5	..........a	-327.66
	122	24.6	5.70089E-002	2.61003E-008	0.00000E+000	5.69000E-002	1.02509E-003	5	..........a	-327.66
	123	24.8	6.69582E-002	2.71015E-008	0.00000E+000	6.69000E-002	1.00579E-003	5	..........a	-327.66
	124	25	7.68369E-002	2.81738E-008	0.00000E+000	7.69000E-002	1.02229E-003	5	..........a	-327.66
	125	25.2	8.69532E-002	2.93276E-008	0.00000E+000	8.69000E-002	1.02359E-003	5	..........a	-327.66
	126	25.4	9.70772E-002	3.04785E-008	0.00000E+000	9.69000E-002	1.02519E-003	5	..........a	-327.66
	127	25.6	1.06935E-001	3.16745E-008	0.00000E+000	1.06900E-001	1.01529E-003	5	..........a	-327.66
	128	25.8	1.16836E-001	3.29892E-008	0.00000E+000	1.16900E-001	1.02869E-003	5	..........a	-327.66
	129	26	1.26926E-001	3.47701E-008	0.00000E+000	1.26900E-001	1.02119E-003	5	..........a	-327.66
	130	26.2	1.37010E-001	3.81748E-008	0.00000E+000	1.36900E-001	1.00799E-003	5	..........a	-327.66
	131	26.4	1.46907E-001	4.27221E-008	0.00000E+000	1.46900E-001	1.04679E-003	5	..........a	-327.66
	132	26.6	1.56849E-001	4.36970E-008	0.00000E+000	1.56900E-001	1.02459E-003	5	..........a	-327.66
	133	26.8	1.66884E-001	4.35851E-008	0.00000E+000	1.66900E-001	1.01689E-003	5	..........a	-327.66
	134	27	1.77006E-001	4.39037E-008	0.00000E+000	1.76900E-001	1.01579E-003	5	..........a	-327.66
	135	27.2	1.86934E-001	4.47144E-008	0.00000E+000	1.86900E-001	1.02909E-003	5	..........a	-327.66
	136	27.4	1.96894E-001	4.58514E-008	0.00000E+000	1.96900E-001	1.01469E-003	5	..........a	-327.66
	137	27.6	2.06887E-001	4.70064E-008	0.00000E+000	2.06900E-001	1.02429E-003	5	..........a	-327.66
	138	27.8	2.16953E-001	4.82288E-008	0.00000E+000	2.16900E-001	1.00539E-003	5	..........a	-327.66
	139	28	2.26838E-001	4.95578E-008	0.00000E+000	2.26900E-001	1.03379E-003	5	..........a	-327.66
	140	28.2	2.36872E-001	5.10155E-008	0.00000E+000	2.36900E-001	1.03129E-003	5	..........a	-327.66
	141	28.4	2.46904E-001	5.24619E-008	0.00000E+000	2.46900E-001	1.00849E-003	5	..........a	-327.66
	142	28.6	2.56912E-001	5.40158E-008	0.00000E+000	2.56900E-001	1.02489E-003	5	..........a	-327.66
	143	28.8	2.66929E-001	5.55770E-008	0.00000E+000	2.66900E-001	1.02129E-003	5	..........a	-327.66
	144	29	2.76870E-001	5.71702E-008	0.00000E+000	2.76900E-001	1.04219E-003	5	..........a	-327.66
	145	29.2	2.86854E-001	5.87601E-008	0.00000E+000	2.86900E-001	1.00449E-003	5	..........a	-327.66
	146	29.4	2.96989E-001	6.03928E-008	0.00000E+000	2.96900E-001	1.01789E-003	5	..........a	-327.66
	147	29.6	3.06860E-001	6.20231E-008	0.00000E+000	3.06900E-001	1.01969E-003	5	..........a	-327.66
	148	29.8	3.16890E-001	6.37074E-008	0.00000E+000	3.16900E-001	1.03219E-003	5	..........a	-327.66
	149	30	3.26863E-001	6.54376E-008	0.00000E+000	3.26900E-001	1.02749E-003	5	..........a	-327.66
	150	30.2	3.36962E-001	6.71807E-008	0.00000E+000	3.36900E-001	1.01189E-003	5	..........a	-327.66
	151	30.4	3.46885E-001	6.90129E-008	0.00000E+000	3.46900E-001	1.02089E-003	5	..........a	-327.66
	152	30.6	3.56866E-001	7.09419E-008	0.00000E+000	3.56900E-001	1.03929E-003	5	..........a	-327.66
	153	30.8	3.66915E-001	7.29147E-008	0.00000E+000	3.66900E-001	1.03359E-003	5	..........a	-327.66
	154	31	3.76968E-001	7.49506E-008	0.00000E+000	3.76900E-001	1.02869E-003	5	..........a	-327.66
	155	31.2	3.86888E-001	7.70878E-008	0.00000E+000	3.86900E-001	1.00369E-003	5	..........a	-327.66
	156	31.4	3.96890E-001	7.93093E-008	0.00000E+000	3.96900E-001	1.04689E-003	5	..........a	-327.66
	157	31.6	4.06851E-001	8.16789E-008	0.00000E+000	4.06900E-001	1.01199E-003	5	..........a	-327.66
	158	31.8	4.16882E-001	8.43052E-008	0.00000E+000	4.16900E-001	1.01879E-003	5	..........a	-327.66
	159	32	4.26784E-001	8.70576E-008	0.00000E+000	4.26900E-001	1.02299E-003	5	..........a	-327.66
	160	32.2	4.36788E-001	8.95026E-008	0.00000E+000	4.36900E-001	1.04029E-003	5	..........a	-327.66
	161	32.4	4.46877E-001	9.18872E-008	0.00000E+000	4.46900E-001	1.02499E-003	5	..........a	-327.66
	162	32.6	4.56916E-001	9.42842E-008	0.00000E+000	4.56900E-001	9.99692E-004	5	..........a	-327.66
	163	32.8	4.66848E-001	9.66259E-008	0.00000E+000	4.66900E-001	1.01049E-003	5	..........a	-327.66
	164	33	4.76818E-001	9.89319E-008	0.00000E+000	4.76900E-001	1.01649E-003	5	..........a	-327.66
	165	33.2	4.86792E-001	1.01171E-007	0.00000E+000	4.86900E-001	1.03799E-003	5	..........a	-327.66
	166	33.4	4.96874E-001	1.03443E-007	0.00000E+000	4.96900E-001	1.01329E-003	5	..........a	-327.66
	167	33.6	5.06803E-001	1.05664E-007	0.00000E+000	5.06900E-001	1.01769E-003	5	..........a	-327.66
	168	33.8	5.16803E-001	1.07844E-007	0.00000E+000	5.16900E-001	1.03979E-003	5	..........a	-327.66
	169	34	5.26718E-001	1.10016E-007	0.00000E+000	5.26900E-001	1.02219E-003	5	..........a	-327.66
	170	34.2	5.36858E-001	1.12175E-007	0.00000E+000	5.36900E-001	1.00919E-003	5	..........a	-327.66
	171	34.4	5.46874E-001	1.14331E-007	0.00000E+000	5.46900E-001	9.97992E-004	5	..........a	-327.66
	172	34.6	5.56768E-001	1.16450E-007	0.00000E+000	5.56900E-001	1.00959E-003	5	..........a	-327.66
	173	34.8	5.66826E-001	1.18538E-007	0.00000E+000	5.66900E-001	1.01389E-003	5	..........a	-327.66
	174	35	5.76910E-001	1.20649E-007	0.00000E+000	5.76900E-001	1.00579E-003	5	..........a	-327.66
	175	35.2	5.86818E-001	1.22843E-007	0.00000E+000	5.86900E-001	1.02689E-003	5	..........a	-327.66
	176	35.4	5.96799E-001	1.25044E-007	0.00000E+000	5.96900E-001	1.02839E-003	5	..........a	-327.66
	177	35.6	6.06788E-001	1.27265E-007	0.00000E+000	6.06900E-001	1.02669E-003	5	..........a	-327.66
	178	35.8	6.16808E-001	1.29506E-007	0.00000E+000	6.16900E-001	1.02159E-003	5	..........a	-327.66
	179	36	6.26823E-001	1.31824E-007	0.00000E+000	6.26900E-001	9.97592E-004	5	..........a	-327.66
	180	36.2	6.36739E-001	1.34215E-007	0.00000E+000	6.36900E-001	1.02969E-003	5	..........a	-327.66
	181	36.4	6.46765E-001	1.36620E-007	0.00000E+000	6.46900E-001	1.01369E-003	5	..........a	-327.66
	182	36.6	6.56812E-001	1.39077E-007	0.00000E+000	6.56900E-001	1.02689E-003	5	..........a	-327.66
	183	36.8	6.66793E-001	1.41610E-007	0.00000E+000	6.66900E-001	1.02499E-003	5	..........a	-327.66
	184	37	6.76781E-001	1.44226E-007	0.00000E+000	6.76900E-001	9.92492E-004	5	..........a	-327.66
	185	37.2	6.86740E-001	1.46958E-007	0.00000E+000	6.86900E-001	1.01349E-003	5	..........a	-327.66
	186	37.4	6.96774E-001	1.49821E-007	0.00000E+000	6.96900E-001	1.01119E-003	5	..........a	-327.66
	187	37.6	7.06839E-001	1.52857E-007	0.00000E+000	7.06900E-001	1.03209E-003	5	..........a	-327.66
	188	37.8	7.16726E-001	1.56065E-007	0.00000E+000	7.16900E-001	1.01949E-003	5	..........a	-327.66
	189	38	7.26815E-001	1.59486E-007	0.00000E+000	7.26900E-001	1.01599E-003	5	..........a	-327.66
	190	38.2	7.36795E-001	1.63157E-007	0.00000E+000	7.36900E-001	1.01369E-003	5	..........a	-327.66
	191	38.4	7.46779E-001	1.67178E-007	0.00000E+000	7.46900E-001	1.02599E-003	5	..........a	-327.66
	192	38.6	7.56765E-001	1.71485E-007	0.00000E+000	7.56900E-001	1.01179E-003	5	..........a	-327.66
	193	38.8	7.66746E-001	1.76176E-007	0.00000E+000	7.66900E-001	1.03729E-003	5	..........a	-327.66
	194	39	7.76758E-001	1.81253E-007	0.00000E+000	7.76900E-001	1.01129E-003	5	..........a	-327.66
	195	39.2	7.86762E-001	1.86797E-007	0.00000E+000	7.86900E-001	1.04269E-003	5	..........a	-327.66
	196	39.4	7.96715E-001	1.92814E-007	0.00000E+000	7.96900E-001	1.01059E-003	5	..........a	-327.66
CURVE2	TABLE
	Pt	T	Vf	Im	Vu	Sig	Ach	IERange	Over	Temp
	#	s	V vs. Ref.	A	V	V	V	#	bits	deg C
	197	39.6	7.89950E-001	1.61989E-007	0.00000E+000	7.90000E-001	1.02729E-003	5	..........a	-327.66
	198	39.8	7.79877E-001	1.36995E-007	0.00000E+000	7.80000E-001	1.00629E-003	5	..........a	-327.66
	199	40	7.69925E-001	1.19670E-007	0.00000E+000	7.70000E-001	1.01809E-003	5	..........a	-327.66
	200	40.2	7.59870E-001	1.06708E-007	0.00000E+000	7.60000E-001	1.02279E-003	5	..........a	-327.66
	201	40.4	7.49976E-001	9.66071E-008	0.00000E+000	7.50000E-001	1.02289E-003	5	..........a	-327.66
	202	40.6	7.39916E-001	8.84285E-008	0.00000E+000	7.40000E-001	1.00029E-003	5	..........a	-327.66
	203	40.8	7.29906E-001	8.15051E-008	0.00000E+000	7.30000E-001	1.02479E-003	5	..........a	-327.66
	204	41	7.19910E-001	7.57179E-008	0.00000E+000	7.20000E-001	1.02799E-003	5	..........a	-327.66
	205	41.2	7.09974E-001	7.06123E-008	0.00000E+000	7.10000E-001	1.03419E-003	5	..........a	-327.66
	206	41.4	6.99912E-001	6.61371E-008	0.00000E+000	7.00000E-001	1.01259E-003	5	..........a	-327.66
	207	41.6	6.89921E-001	6.21085E-008	0.00000E+000	6.90000E-001	1.01379E-003	5	..........a	-327.66
	208	41.8	6.79936E-001	5.84539E-008	0.00000E+000	6.80000E-001	1.00179E-003	5	..........a	-327.66
	209	42	6.69976E-001	5.50889E-008	0.00000E+000	6.70000E-001	1.02879E-003	5	..........a	-327.66
	210	42.2	6.59941E-001	5.20180E-008	0.00000E+000	6.60000E-001	1.02559E-003	5	..........a	-327.66
	211	42.4	6.49914E-001	4.90785E-008	0.00000E+000	6.50000E-001	1.01749E-003	5	..........a	-327.66
	212	42.6	6.39904E-001	4.63865E-008	0.00000E+000	6.40000E-001	1.02989E-003	5	..........a	-327.66
	213	42.8	6.29970E-001	4.38353E-008	0.00000E+000	6.30000E-001	1.03289E-003	5	..........a	-327.66
	214	43	6.19938E-001	4.14128E-008	0.00000E+000	6.20000E-001	1.02789E-003	5	..........a	-327.66
	215	43.2	6.09942E-001	3.90966E-008	0.00000E+000	6.10000E-001	1.04839E-003	5	..........a	-327.66
	216	43.4	5.99982E-001	3.69653E-008	0.00000E+000	6.00000E-001	1.01389E-003	5	..........a	-327.66
	217	43.6	5.90012E-001	3.49021E-008	0.00000E+000	5.90000E-001	1.01899E-003	5	..........a	-327.66
	218	43.8	5.80010E-001	3.29446E-008	0.00000E+000	5.80000E-001	1.00159E-003	5	..........a	-327.66
	219	44	5.69956E-001	3.11219E-008	0.00000E+000	5.70000E-001	1.00339E-003	5	..........a	-327.66
	220	44.2	5.59948E-001	2.93551E-008	0.00000E+000	5.60000E-001	1.03389E-003	5	..........a	-327.66
	221	44.4	5.50024E-001	2.76362E-008	0.00000E+000	5.50000E-001	1.00489E-003	5	..........a	-327.66
	222	44.6	5.40017E-001	2.59268E-008	0.00000E+000	5.40000E-001	1.02079E-003	5	..........a	-327.66
	223	44.8	5.29950E-001	2.43006E-008	0.00000E+000	5.30000E-001	1.00939E-003	5	..........a	-327.66
	224	45	5.19960E-001	2.26775E-008	0.00000E+000	5.20000E-001	1.02989E-003	5	..........a	-327.66
	225	45.2	5.09971E-001	2.11734E-008	0.00000E+000	5.10000E-001	1.04189E-003	5	..........a	-327.66
	226	45.4	5.00030E-001	1.96819E-008	0.00000E+000	5.00000E-001	1.01929E-003	5	..........a	-327.66
	227	45.6	4.89932E-001	1.82929E-008	0.00000E+000	4.90000E-001	1.04119E-003	5	..........a	-327.66
	228	45.8	4.79935E-001	1.68783E-008	0.00000E+000	4.80000E-001	1.01159E-003	5	..........a	-327.66
	229	46	4.70029E-001	1.54932E-008	0.00000E+000	4.70000E-001	1.01689E-003	5	..........a	-327.66
	230	46.2	4.60005E-001	1.41016E-008	0.00000E+000	4.60000E-001	1.01009E-003	5	..........a	-327.66
	231	46.4	4.49868E-001	1.26676E-008	0.00000E+000	4.50000E-001	1.01979E-003	5	..........a	-327.66
	232	46.6	4.39950E-001	1.12691E-008	0.00000E+000	4.40000E-001	1.03459E-003	5	..........a	-327.66
	233	46.8	4.29993E-001	9.82163E-009	0.00000E+000	4.30000E-001	1.04069E-003	5	..........a	-327.66
	234	47	4.20007E-001	8.39006E-009	0.00000E+000	4.20000E-001	1.02149E-003	5	..........a	-327.66
	235	47.2	4.09965E-001	6.94089E-009	0.00000E+000	4.10000E-001	1.02019E-003	5	..........a	-327.66
	236	47.4	3.99993E-001	5.47982E-009	0.00000E+000	4.00000E-001	1.01119E-003	5	..........a	-327.66
	237	47.6	3.90028E-001	4.02790E-009	0.00000E+000	3.90000E-001	1.04269E-003	5	..........a	-327.66
	238	47.8	3.80077E-001	2.55222E-009	0.00000E+000	3.80000E-001	1.00849E-003	5	..........a	-327.66
	239	48	3.70045E-001	1.08975E-009	0.00000E+000	3.70000E-001	1.00409E-003	5	..........a	-327.66
	240	48.2	3.59989E-001	-4.90742E-010	0.00000E+000	3.60000E-001	1.01649E-003	5	..........a	-327.66
	241	48.4	3.49996E-001	-1.90598E-009	0.00000E+000	3.50000E-001	1.02329E-003	5	..........a	-327.66
	242	48.6	3.40090E-001	-3.45177E-009	0.00000E+000	3.40000E-001	9.87192E-004	5	..........a	-327.66
	243	48.8	3.30053E-001	-4.91549E-009	0.00000E+000	3.30000E-001	1.02049E-003	5	..........a	-327.66
	244	49	3.20047E-001	-6.48335E-009	0.00000E+000	3.20000E-001	1.01089E-003	5	..........a	-327.66
	245	49.2	3.10052E-001	-8.06969E-009	0.00000E+000	3.10000E-001	9.92592E-004	5	..........a	-327.66
	246	49.4	3.00063E-001	-9.70048E-009	0.00000E+000	3.00000E-001	1.01569E-003	5	..........a	-327.66
	247	49.6	2.90049E-001	-1.13995E-008	0.00000E+000	2.90000E-001	1.02059E-003	5	..........a	-327.66
	248	49.8	2.79978E-001	-1.31102E-008	0.00000E+000	2.80000E-001	1.03819E-003	5	..........a	-327.66
	249	50	2.70082E-001	-1.49261E-008	0.00000E+000	2.70000E-001	1.00559E-003	5	..........a	-327.66
	250	50.2	2.60060E-001	-1.67498E-008	0.00000E+000	2.60000E-001	1.00519E-003	5	..........a	-327.66
	251	50.4	2.50000E-001	-1.86176E-008	0.00000E+000	2.50000E-001	1.00679E-003	5	..........a	-327.66
	252	50.6	2.40057E-001	-2.04817E-008	0.00000E+000	2.40000E-001	1.01989E-003	5	..........a	-327.66
	253	50.8	2.29988E-001	-2.22584E-008	0.00000E+000	2.30000E-001	1.03719E-003	5	..........a	-327.66
	254	51	2.20024E-001	-2.38825E-008	0.00000E+000	2.20000E-001	9.97992E-004	5	..........a	-327.66
	255	51.2	2.10027E-001	-2.53085E-008	0.00000E+000	2.10000E-001	1.03959E-003	5	..........a	-327.66
	256	51.4	2.00050E-001	-2.64563E-008	0.00000E+000	2.00000E-001	1.01519E-003	5	..........a	-327.66
	257	51.6	1.90107E-001	-2.72795E-008	0.00000E+000	1.90000E-001	1.01269E-003	5	..........a	-327.66
	258	51.8	1.80102E-001	-2.78220E-008	0.00000E+000	1.80000E-001	9.95792E-004	5	..........a	-327.66
	259	52	1.70073E-001	-2.80913E-008	0.00000E+000	1.70000E-001	1.00639E-003	5	..........a	-327.66
	260	52.2	1.60048E-001	-2.80582E-008	0.00000E+000	1.60000E-001	1.04639E-003	5	..........a	-327.66
	261	52.4	1.50043E-001	-2.79480E-008	0.00000E+000	1.50000E-001	1.02899E-003	5	..........a	-327.66
	262	52.6	1.40114E-001	-2.77416E-008	0.00000E+000	1.40000E-001	1.02529E-003	5	..........a	-327.66
	263	52.8	1.30028E-001	-2.74385E-008	0.00000E+000	1.30000E-001	1.02399E-003	5	..........a	-327.66
	264	53	1.20019E-001	-2.71512E-008	0.00000E+000	1.20000E-001	1.00319E-003	5	..........a	-327.66
	265	53.2	1.10102E-001	-2.68949E-008	0.00000E+000	1.10000E-001	1.00959E-003	5	..........a	-327.66
	266	53.4	1.00115E-001	-2.67245E-008	0.00000E+000	1.00000E-001	1.00209E-003	5	..........a	-327.66
	267	53.6	9.00948E-002	-2.66105E-008	0.00000E+000	9.00000E-002	1.00059E-003	5	..........a	-327.66
	268	53.8	8.00551E-002	-2.66129E-008	0.00000E+000	8.00000E-002	1.01569E-003	5	..........a	-327.66
	269	54	7.00363E-002	-2.66973E-008	0.00000E+000	7.00000E-002	1.02169E-003	5	..........a	-327.66
	270	54.2	6.01096E-002	-2.68620E-008	0.00000E+000	6.00000E-002	9.98692E-004	5	..........a	-327.66
	271	54.4	5.00372E-002	-2.71817E-008	0.00000E+000	5.00000E-002	1.03129E-003	5	..........a	-327.66
	272	54.6	4.00556E-002	-2.75383E-008	0.00000E+000	4.00000E-002	1.01289E-003	5	..........a	-327.66
	273	54.8	3.00396E-002	-2.79673E-008	0.00000E+000	3.00000E-002	1.02699E-003	5	..........a	-327.66
	274	55	2.01344E-002	-2.84221E-008	0.00000E+000	2.00000E-002	1.01629E-003	5	..........a	-327.66
	275	55.2	1.01132E-002	-2.89346E-008	0.00000E+000	1.00000E-002	1.00129E-003	5	..........a	-327.66
	276	55.4	2.68416E-005	-2.94198E-008	0.00000E+000	7.45058E-009	1.04869E-003	5	..........a	-327.66
	277	55.6	-9.88156E-003	-3.03356E-008	0.00000E+000	-1.00000E-002	1.01309E-003	5	..........a	-327.66
	278	55.8	-1.99075E-002	-3.12182E-008	0.00000E+000	-2.00000E-002	1.00939E-003	5	..........a	-327.66
	279	56	-2.99470E-002	-3.15690E-008	0.00000E+000	-3.00000E-002	1.02619E-003	5	..........a	-327.66
	280	56.2	-3.99080E-002	-3.21480E-008	0.00000E+000	-4.00000E-002	9.90192E-004	5	..........a	-327.66
	281	56.4	-4.99313E-002	-3.24248E-008	0.00000E+000	-5.00000E-002	1.01699E-003	5	..........a	-327.66
	282	56.6	-5.98614E-002	-3.34986E-008	0.00000E+000	-6.00000E-002	1.01729E-003	5	..........a	-327.66
	283	56.8	-6.98835E-002	-3.42866E-008	0.00000E+000	-7.00000E-002	1.02509E-003	5	..........a	-327.66
	284	57	-7.99444E-002	-3.44993E-008	0.00000E+000	-8.00000E-002	9.99692E-004	5	..........a	-327.66
	285	57.2	-8.98901E-002	-3.54359E-008	0.00000E+000	-9.00000E-002	1.00989E-003	5	..........a	-327.66
	286	57.4	-9.98821E-002	-3.64680E-008	0.00000E+000	-1.00000E-001	9.92892E-004	5	..........a	-327.66
	287	57.6	-1.09943E-001	-3.78514E-008	0.00000E+000	-1.10000E-001	9.98292E-004	5	..........a	-327.66
	288	57.8	-1.19929E-001	-3.83834E-008	0.00000E+000	-1.20000E-001	1.01949E-003	5	..........a	-327.66
	289	58	-1.29933E-001	-3.89483E-008	0.00000E+000	-1.30000E-001	1.02269E-003	5	..........a	-327.66
	290	58.2	-1.39908E-001	-3.99374E-008	0.00000E+000	-1.40000E-001	9.83892E-004	5	..........a	-327.66
	291	58.4	-1.49959E-001	-4.15406E-008	0.00000E+000	-1.50000E-001	1.01679E-003	5	..........a	-327.66
	292	58.6	-1.59965E-001	-4.22401E-008	0.00000E+000	-1.60000E-001	1.02339E-003	5	..........a	-327.66
	293	58.8	-1.69900E-001	-4.33935E-008	0.00000E+000	-1.70000E-001	1.00429E-003	5	..........a	-327.66
	294	59	-1.79896E-001	-4.40578E-008	0.00000E+000	-1.80000E-001	1.00309E-003	5	..........a	-327.66
	295	59.2	-1.89889E-001	-4.49855E-008	0.00000E+000	-1.90000E-001	1.02189E-003	5	..........a	-327.66
	296	59.4	-1.99921E-001	-4.62085E-008	0.00000E+000	-2.00000E-001	1.01519E-003	5	..........a	-327.66
	297	59.6	-2.09906E-001	-4.75227E-008	0.00000E+000	-2.10000E-001	1.02519E-003	5	..........a	-327.66
	298	59.8	-2.19865E-001	-4.88740E-008	0.00000E+000	-2.20000E-001	9.87092E-004	5	..........a	-327.66
	299	60	-2.29892E-001	-4.99279E-008	0.00000E+000	-2.30000E-001	1.01399E-003	5	..........a	-327.66
	300	60.2	-2.39894E-001	-5.14782E-008	0.00000E+000	-2.40000E-001	1.01619E-003	5	..........a	-327.66
	301	60.4	-2.49875E-001	-5.23191E-008	0.00000E+000	-2.50000E-001	1.01729E-003	5	..........a	-327.66
	302	60.6	-2.59802E-001	-5.36674E-008	0.00000E+000	-2.60000E-001	1.01219E-003	5	..........a	-327.66
	303	60.8	-2.69859E-001	-5.52133E-008	0.00000E+000	-2.70000E-001	1.02919E-003	5	..........a	-327.66
	304	61	-2.79889E-001	-5.68657E-008	0.00000E+000	-2.80000E-001	1.04339E-003	5	..........a	-327.66
	305	61.2	-2.89932E-001	-5.83238E-008	0.00000E+000	-2.90000E-001	1.02179E-003	5	..........a	-327.66
	306	61.4	-2.99838E-001	-5.98225E-008	0.00000E+000	-3.00000E-001	9.92392E-004	5	..........a	-327.66
	307	61.6	-3.09894E-001	-6.14106E-008	0.00000E+000	-3.10000E-001	1.00139E-003	5	..........a	-327.66
	308	61.8	-3.19857E-001	-6.31609E-008	0.00000E+000	-3.20000E-001	1.00809E-003	5	..........a	-327.66
	309	62	-3.29897E-001	-6.43439E-008	0.00000E+000	-3.30000E-001	1.01159E-003	5	..........a	-327.66
	310	62.2	-3.39809E-001	-6.60856E-008	0.00000E+000	-3.40000E-001	1.00549E-003	5	..........a	-327.66
	311	62.4	-3.49869E-001	-6.75948E-008	0.00000E+000	-3.50000E-001	1.03559E-003	5	..........a	-327.66
	312	62.6	-3.59920E-001	-6.92852E-008	0.00000E+000	-3.60000E-001	1.01369E-003	5	..........a	-327.66
	313	62.8	-3.69870E-001	-7.13318E-008	0.00000E+000	-3.70000E-001	1.00949E-003	5	..........a	-327.66
	314	63	-3.79830E-001	-7.31366E-008	0.00000E+000	-3.80000E-001	9.84892E-004	5	..........a	-327.66
	315	63.2	-3.89927E-001	-7.42932E-008	0.00000E+000	-3.90000E-001	9.99192E-004	5	..........a	-327.66
	316	63.4	-3.99860E-001	-7.60466E-008	0.00000E+000	-4.00000E-001	1.02779E-003	5	..........a	-327.66
	317	63.6	-4.09876E-001	-7.75749E-008	0.00000E+000	-4.10000E-001	1.01549E-003	5	..........a	-327.66
	318	63.8	-4.19783E-001	-7.90917E-008	0.00000E+000	-4.20000E-001	1.00689E-003	5	..........a	-327.66
	319	64	-4.29842E-001	-8.02742E-008	0.00000E+000	-4.30000E-001	1.04219E-003	5	..........a	-327.66
	320	64.2	-4.39859E-001	-8.18597E-008	0.00000E+000	-4.40000E-001	1.02319E-003	5	..........a	-327.66
	321	64.4	-4.49835E-001	-8.34789E-008	0.00000E+000	-4.50000E-001	1.01699E-003	5	..........a	-327.66
	322	64.6	-4.59806E-001	-8.48270E-008	0.00000E+000	-4.60000E-001	1.01369E-003	5	..........a	-327.66
	323	64.8	-4.69840E-001	-8.63760E-008	0.00000E+000	-4.70000E-001	9.99692E-004	5	..........a	-327.66
	324	65	-4.79822E-001	-8.78755E-008	0.00000E+000	-4.80000E-001	1.00009E-003	5	..........a	-327.66
	325	65.2	-4.89856E-001	-8.94262E-008	0.00000E+000	-4.90000E-001	1.04709E-003	5	..........a	-327.66
	326	65.4	-4.99815E-001	-9.06597E-008	0.00000E+000	-5.00000E-001	1.00229E-003	5	..........a	-327.66
	327	65.6	-5.09853E-001	-9.21047E-008	0.00000E+000	-5.10000E-001	1.00919E-003	5	..........a	-327.66
	328	65.8	-5.19859E-001	-9.35655E-008	0.00000E+000	-5.20000E-001	1.02999E-003	5	..........a	-327.66
	329	66	-5.29838E-001	-9.51005E-008	0.00000E+000	-5.30000E-001	1.02539E-003	5	..........a	-327.66
	330	66.2	-5.39775E-001	-9.64381E-008	0.00000E+000	-5.40000E-001	1.01369E-003	5	..........a	-327.66
	331	66.4	-5.49861E-001	-9.81244E-008	0.00000E+000	-5.50000E-001	1.03009E-003	5	..........a	-327.66
	332	66.6	-5.59875E-001	-9.97886E-008	0.00000E+000	-5.60000E-001	1.02559E-003	5	..........a	-327.66
	333	66.8	-5.69864E-001	-1.01520E-007	0.00000E+000	-5.70000E-001	1.02079E-003	5	..........a	-327.66
	334	67	-5.79803E-001	-1.03629E-007	0.00000E+000	-5.80000E-001	1.00139E-003	5	..........a	-327.66
	335	67.2	-5.89857E-001	-1.05390E-007	0.00000E+000	-5.90000E-001	1.02109E-003	5	..........a	-327.66
	336	67.4	-5.99882E-001	-1.06835E-007	0.00000E+000	-6.00000E-001	9.97892E-004	5	..........a	-327.66
	337	67.6	-5.89872E-001	-9.50047E-008	0.00000E+000	-5.90000E-001	1.03229E-003	5	..........a	-327.66
	338	67.8	-5.79803E-001	-8.60157E-008	0.00000E+000	-5.80000E-001	9.90192E-004	5	..........a	-327.66
	339	68	-5.69906E-001	-7.96351E-008	0.00000E+000	-5.70000E-001	1.01929E-003	5	..........a	-327.66
	340	68.2	-5.59911E-001	-7.44403E-008	0.00000E+000	-5.60000E-001	1.03309E-003	5	..........a	-327.66
	341	68.4	-5.49846E-001	-7.01008E-008	0.00000E+000	-5.50000E-001	1.00809E-003	5	..........a	-327.66
	342	68.6	-5.39797E-001	-6.60427E-008	0.00000E+000	-5.40000E-001	1.00889E-003	5	..........a	-327.66
	343	68.8	-5.29851E-001	-6.26610E-008	0.00000E+000	-5.30000E-001	1.00959E-003	5	..........a	-327.66
	344	69	-5.19897E-001	-5.92014E-008	0.00000E+000	-5.20000E-001	1.02489E-003	5	..........a	-327.66
	345	69.2	-5.09854E-001	-5.60509E-008	0.00000E+000	-5.10000E-001	1.00739E-003	5	..........a	-327.66
	346	69.4	-4.99833E-001	-5.32024E-008	0.00000E+000	-5.00000E-001	1.00689E-003	5	..........a	-327.66
	347	69.6	-4.89852E-001	-5.05292E-008	0.00000E+000	-4.90000E-001	1.02709E-003	5	..........a	-327.66
	348	69.8	-4.79859E-001	-4.75461E-008	0.00000E+000	-4.80000E-001	1.00579E-003	5	..........a	-327.66
	349	70	-4.69855E-001	-4.52547E-008	0.00000E+000	-4.70000E-001	1.01319E-003	5	..........a	-327.66
	350	70.2	-4.59803E-001	-4.28468E-008	0.00000E+000	-4.60000E-001	1.00319E-003	5	..........a	-327.66
	351	70.4	-4.49843E-001	-4.05064E-008	0.00000E+000	-4.50000E-001	1.01069E-003	5	..........a	-327.66
	352	70.6	-4.39939E-001	-3.82017E-008	0.00000E+000	-4.40000E-001	1.02949E-003	5	..........a	-327.66
[...]
	920	184.2	-3.59915E-001	-2.44188E-008	0.00000E+000	-3.60000E-001	1.00689E-003	5	..........a	-327.66
	921	184.4	-3.49902E-001	-2.26841E-008	0.00000E+000	-3.50000E-001	1.01339E-003	5	..........a	-327.66
	922	184.6	-3.39860E-001	-2.11333E-008	0.00000E+000	-3.40000E-001	1.01189E-003	5	..........a	-327.66
	923	184.8	-3.29896E-001	-1.93045E-008	0.00000E+000	-3.30000E-001	1.01379E-003	5	..........a	-327.66
	924	185	-3.19912E-001	-1.77388E-008	0.00000E+000	-3.20000E-001	9.99992E-004	5	..........a	-327.66
	925	185.2	-3.09893E-001	-1.61606E-008	0.00000E+000	-3.10000E-001	1.02559E-003	5	..........a	-327.66
	926	185.4	-2.99852E-001	-1.46107E-008	0.00000E+000	-3.00000E-001	1.00429E-003	5	..........a	-327.66
	927	185.6	-2.89916E-001	-1.31201E-008	0.00000E+000	-2.90000E-001	1.00189E-003	5	..........a	-327.66
	928	185.8	-2.79932E-001	-1.15857E-008	0.00000E+000	-2.80000E-001	1.03739E-003	5	..........a	-327.66
	929	186	-2.69876E-001	-1.01574E-008	0.00000E+000	-2.70000E-001	9.90192E-004	5	..........a	-327.66
	930	186.2	-2.59861E-001	-8.63763E-009	0.00000E+000	-2.60000E-001	9.88992E-004	5	..........a	-327.66
	931	186.4	-2.49923E-001	-7.24868E-009	0.00000E+000	-2.50000E-001	1.00799E-003	5	..........a	-327.66
	932	186.6	-2.39881E-001	-5.86828E-009	0.00000E+000	-2.40000E-001	1.00439E-003	5	..........a	-327.66
	933	186.8	-2.29910E-001	-4.52511E-009	0.00000E+000	-2.30000E-001	9.87792E-004	5	..........a	-327.66
	934	187	-2.19872E-001	-3.19971E-009	0.00000E+000	-2.20000E-001	1.00089E-003	5	..........a	-327.66
	935	187.2	-2.09957E-001	-1.87371E-009	0.00000E+000	-2.10000E-001	1.01659E-003	5	..........a	-327.66
	936	187.4	-1.99978E-001	-5.89615E-010	0.00000E+000	-2.00000E-001	1.01609E-003	5	..........a	-327.66
	937	187.6	-1.90205E-001	6.71172E-010	0.00000E+000	-1.90000E-001	1.02139E-003	5	..........a	-327.66
	938	187.8	-1.79921E-001	1.94856E-009	0.00000E+000	-1.80000E-001	1.02019E-003	5	..........a	-327.66
	939	188	-1.69927E-001	3.13385E-009	0.00000E+000	-1.70000E-001	1.01469E-003	5	..........a	-327.66
	940	188.2	-1.60029E-001	4.34040E-009	0.00000E+000	-1.60000E-001	1.03989E-003	5	..........a	-327.66
	941	188.4	-1.49977E-001	5.50115E-009	0.00000E+000	-1.50000E-001	1.02189E-003	5	..........a	-327.66
	942	188.6	-1.39930E-001	6.70597E-009	0.00000E+000	-1.40000E-001	1.03249E-003	5	..........a	-327.66
	943	188.8	-1.30036E-001	7.82172E-009	0.00000E+000	-1.30000E-001	1.04979E-003	5	..........a	-327.66
	944	189	-1.19987E-001	8.95181E-009	0.00000E+000	-1.20000E-001	9.99292E-004	5	..........a	-327.66
	945	189.2	-1.10092E-001	1.00788E-008	0.00000E+000	-1.10000E-001	9.91992E-004	5	..........a	-327.66
	946	189.4	-9.99212E-002	1.12070E-008	0.00000E+000	-1.00000E-001	1.00829E-003	5	..........a	-327.66
	947	189.6	-8.99064E-002	1.23033E-008	0.00000E+000	-9.00000E-002	1.01009E-003	5	..........a	-327.66
	948	189.8	-8.00083E-002	1.34409E-008	0.00000E+000	-8.00000E-002	1.04249E-003	5	..........a	-327.66
	949	190	-6.99325E-002	1.44620E-008	0.00000E+000	-7.00000E-002	1.02049E-003	5	..........a	-327.66
	950	190.2	-5.99083E-002	1.55931E-008	0.00000E+000	-6.00000E-002	9.95892E-004	5	..........a	-327.66
	951	190.4	-4.99235E-002	1.67190E-008	0.00000E+000	-5.00000E-002	1.00499E-003	5	..........a	-327.66
	952	190.6	-3.99554E-002	1.77660E-008	0.00000E+000	-4.00000E-002	1.02349E-003	5	..........a	-327.66
	953	190.8	-2.99724E-002	1.88523E-008	0.00000E+000	-3.00000E-002	9.99392E-004	5	..........a	-327.66
	954	191	-1.99379E-002	1.99284E-008	0.00000E+000	-2.00000E-002	1.01109E-003	5	..........a	-327.66
	955	191.2	-9.88586E-003	2.09856E-008	0.00000E+000	-1.00000E-002	1.00419E-003	5	..........a	-327.66
	956	191.4	-2.52583E-005	2.20555E-008	0.00000E+000	7.45058E-009	1.00859E-003	5	..........a	-327.66
	957	191.6	1.00257E-002	2.31275E-008	0.00000E+000	1.00000E-002	1.00389E-003	5	..........a	-327.66
	958	191.8	2.00797E-002	2.42144E-008	0.00000E+000	2.00000E-002	1.01339E-003	5	..........a	-327.66
	959	192	3.00369E-002	2.52666E-008	0.00000E+000	3.00000E-002	1.00189E-003	5	..........a	-327.66
	960	192.2	3.99693E-002	2.63343E-008	0.00000E+000	4.00000E-002	9.97992E-004	5	..........a	-327.66
	961	192.4	5.00393E-002	2.74473E-008	0.00000E+000	5.00000E-002	1.02179E-003	5	..........a	-327.66
	962	192.6	6.00550E-002	2.85053E-008	0.00000E+000	6.00000E-002	1.01769E-003	5	..........a	-327.66
	963	192.8	6.99995E-002	2.96325E-008	0.00000E+000	7.00000E-002	1.03339E-003	5	..........a	-327.66
	964	193	7.99985E-002	3.06938E-008	0.00000E+000	8.00000E-002	1.00019E-003	5	..........a	-327.66
	965	193.2	9.00577E-002	3.18207E-008	0.00000E+000	9.00000E-002	1.01079E-003	5	..........a	-327.66
	966	193.4	1.00076E-001	3.29230E-008	0.00000E+000	1.00000E-001	1.00809E-003	5	..........a	-327.66
	967	193.6	1.10060E-001	3.47947E-008	0.00000E+000	1.10000E-001	1.01269E-003	5	..........a	-327.66
	968	193.8	1.20015E-001	3.55256E-008	0.00000E+000	1.20000E-001	1.02959E-003	5	..........a	-327.66
	969	194	1.30048E-001	3.66938E-008	0.00000E+000	1.30000E-001	1.00169E-003	5	..........a	-327.66
	970	194.2	1.40097E-001	3.77879E-008	0.00000E+000	1.40000E-001	1.01909E-003	5	..........a	-327.66
	971	194.4	1.49989E-001	3.87431E-008	0.00000E+000	1.50000E-001	1.01279E-003	5	..........a	-327.66
	972	194.6	1.60017E-001	3.98688E-008	0.00000E+000	1.60000E-001	1.00819E-003	5	..........a	-327.66
	973	194.8	1.70029E-001	4.10025E-008	0.00000E+000	1.70000E-001	1.01139E-003	5	..........a	-327.66
	974	195	1.80043E-001	4.22225E-008	0.00000E+000	1.80000E-001	9.98792E-004	5	..........a	-327.66
	975	195.2	1.90052E-001	4.34585E-008	0.00000E+000	1.90000E-001	1.00859E-003	5	..........a	-327.66
	976	195.4	1.99987E-001	4.46403E-008	0.00000E+000	2.00000E-001	1.01589E-003	5	..........a	-327.66
	977	195.6	2.09965E-001	4.58119E-008	0.00000E+000	2.10000E-001	1.02979E-003	5	..........a	-327.66
	978	195.8	2.19752E-001	4.68903E-008	0.00000E+000	2.20000E-001	1.00999E-003	5	..........a	-327.66
	979	196	2.29987E-001	4.78802E-008	0.00000E+000	2.30000E-001	1.02219E-003	5	..........a	-327.66
	980	196.2	2.39973E-001	4.87688E-008	0.00000E+000	2.40000E-001	1.00999E-003	5	..........a	-327.66
	981	196.4	2.49949E-001	4.96815E-008	0.00000E+000	2.50000E-001	1.00739E-003	5	..........a	-327.66
	982	196.6	2.59999E-001	5.05667E-008	0.00000E+000	2.60000E-001	1.00609E-003	5	..........a	-327.66
	983	196.8	2.70037E-001	5.14018E-008	0.00000E+000	2.70000E-001	1.02449E-003	5	..........a	-327.66
	984	197	2.79929E-001	5.23611E-008	0.00000E+000	2.80000E-001	1.01369E-003	5	..........a	-327.66
	985	197.2	2.89999E-001	5.33580E-008	0.00000E+000	2.90000E-001	1.00249E-003	5	..........a	-327.66
	986	197.4	3.00030E-001	5.42795E-008	0.00000E+000	3.00000E-001	9.94392E-004	5	..........a	-327.66
	987	197.6	3.09999E-001	5.52635E-008	0.00000E+000	3.10000E-001	1.02659E-003	5	..........a	-327.66
	988	197.8	3.19997E-001	5.62751E-008	0.00000E+000	3.20000E-001	9.90292E-004	5	..........a	-327.66
	989	198	3.29981E-001	5.73822E-008	0.00000E+000	3.30000E-001	1.02419E-003	5	..........a	-327.66
	990	198.2	3.40021E-001	5.84837E-008	0.00000E+000	3.40000E-001	1.00259E-003	5	..........a	-327.66
	991	198.4	3.50000E-001	5.96685E-008	0.00000E+000	3.50000E-001	1.02309E-003	5	..........a	-327.66
	992	198.6	3.59960E-001	6.08077E-008	0.00000E+000	3.60000E-001	1.00899E-003	5	..........a	-327.66
	993	198.8	3.70011E-001	6.18929E-008	0.00000E+000	3.70000E-001	1.00039E-003	5	..........a	-327.66
	994	199	3.80005E-001	6.31624E-008	0.00000E+000	3.80000E-001	1.00019E-003	5	..........a	-327.66
	995	199.2	3.89987E-001	6.43880E-008	0.00000E+000	3.90000E-001	1.00989E-003	5	..........a	-327.66
	996	199.4	3.99958E-001	6.56956E-008	0.00000E+000	4.00000E-001	1.01739E-003	5	..........a	-327.66
	997	199.6	4.09979E-001	6.70807E-008	0.00000E+000	4.10000E-001	1.01879E-003	5	..........a	-327.66
	998	199.8	4.19975E-001	6.84434E-008	0.00000E+000	4.20000E-001	1.00079E-003	5	..........a	-327.66
	999	200	4.29976E-001	6.98419E-008	0.00000E+000	4.30000E-001	1.01349E-003	5	..........a	-327.66
	1000	200.2	4.39935E-001	7.13639E-008	0.00000E+000	4.40000E-001	1.02949E-003	5	..........a	-327.66
	1001	200.4	4.49824E-001	7.28151E-008	0.00000E+000	4.50000E-001	1.01019E-003	5	..........a	-327.66
	1002	200.6	4.59959E-001	7.43435E-008	0.00000E+000	4.60000E-001	9.96692E-004	5	..........a	-327.66
	1003	200.8	4.70004E-001	7.59371E-008	0.00000E+000	4.70000E-001	1.01899E-003	5	..........a	-327.66
	1004	201	4.79923E-001	7.75356E-008	0.00000E+000	4.80000E-001	1.01869E-003	5	..........a	-327.66
	1005	201.2	4.89915E-001	7.92941E-008	0.00000E+000	4.90000E-001	1.02999E-003	5	..........a	-327.66
	1006	201.4	4.99965E-001	8.10047E-008	0.00000E+000	5.00000E-001	1.00539E-003	5	..........a	-327.66
	1007	201.6	5.09969E-001	8.27420E-008	0.00000E+000	5.10000E-001	1.00039E-003	5	..........a	-327.66
	1008	201.8	5.19930E-001	8.45297E-008	0.00000E+000	5.20000E-001	1.00469E-003	5	..........a	-327.66
	1009	202	5.29934E-001	8.62447E-008	0.00000E+000	5.30000E-001	1.00319E-003	5	..........a	-327.66
	1010	202.2	5.39944E-001	8.80121E-008	0.00000E+000	5.40000E-001	1.02829E-003	5	..........a	-327.66
	1011	202.4	5.49986E-001	8.97082E-008	0.00000E+000	5.50000E-001	9.80492E-004	5	..........a	-327.66
	1012	202.6	5.59915E-001	9.13920E-008	0.00000E+000	5.60000E-001	1.01369E-003	5	..........a	-327.66
	1013	202.8	5.69923E-001	9.29209E-008	0.00000E+000	5.70000E-001	1.02939E-003	5	..........a	-327.66
	1014	203	5.79950E-001	9.45500E-008	0.00000E+000	5.80000E-001	1.01409E-003	5	..........a	-327.66
	1015	203.2	5.89987E-001	9.61303E-008	0.00000E+000	5.90000E-001	1.02319E-003	5	..........a	-327.66
	1016	203.4	5.99921E-001	9.78391E-008	0.00000E+000	6.00000E-001	1.00259E-003	5	..........a	-327.66
	1017	203.6	6.09924E-001	9.95381E-008	0.00000E+000	6.10000E-001	1.02289E-003	5	..........a	-327.66
	1018	203.8	6.19895E-001	1.01331E-007	0.00000E+000	6.20000E-001	1.01079E-003	5	..........a	-327.66
	1019	204	6.30010E-001	1.03176E-007	0.00000E+000	6.30000E-001	1.01769E-003	5	..........a	-327.66
	1020	204.2	6.39866E-001	1.05277E-007	0.00000E+000	6.40000E-001	1.00709E-003	5	..........a	-327.66
	1021	204.4	6.49910E-001	1.07313E-007	0.00000E+000	6.50000E-001	1.02189E-003	5	..........a	-327.66
	1022	204.6	6.59902E-001	1.09437E-007	0.00000E+000	6.60000E-001	1.01829E-003	5	..........a	-327.66
	1023	204.8	6.69957E-001	1.11666E-007	0.00000E+000	6.70000E-001	1.01519E-003	5	..........a	-327.66
	1024	205	6.79876E-001	1.14264E-007	0.00000E+000	6.80000E-001	9.95792E-004	5	..........a	-327.66
	1025	205.2	6.89911E-001	1.16964E-007	0.00000E+000	6.90000E-001	1.01529E-003	5	..........a	-327.66
	1026	205.4	6.99884E-001	1.19670E-007	0.00000E+000	7.00000E-001	1.01189E-003	5	..........a	-327.66
	1027	205.6	7.09965E-001	1.22746E-007	0.00000E+000	7.10000E-001	1.03969E-003	5	..........a	-327.66
	1028	205.8	7.19875E-001	1.26293E-007	0.00000E+000	7.20000E-001	1.01049E-003	5	..........a	-327.66
	1029	206	7.29888E-001	1.30133E-007	0.00000E+000	7.30000E-001	1.00249E-003	5	..........a	-327.66
	1030	206.2	7.39874E-001	1.34186E-007	0.00000E+000	7.40000E-001	9.92392E-004	5	..........a	-327.66
	1031	206.4	7.49959E-001	1.38812E-007	0.00000E+000	7.50000E-001	9.90392E-004	5	..........a	-327.66
	1032	206.6	7.59875E-001	1.43779E-007	0.00000E+000	7.60000E-001	1.00289E-003	5	..........a	-327.66
	1033	206.8	7.69897E-001	1.49120E-007	0.00000E+000	7.70000E-001	9.95692E-004	5	..........a	-327.66
	1034	207	7.79864E-001	1.55001E-007	0.00000E+000	7.80000E-001	1.00979E-003	5	..........a	-327.66
	1035	207.2	7.89959E-001	1.61403E-007	0.00000E+000	7.90000E-001	1.00259E-003	5	..........a	-327.66
	1036	207.4	7.99856E-001	1.68160E-007	0.00000E+000	8.00000E-001	1.01869E-003	5	..........a	-327.66
CURVE5	TABLE
	Pt	T	Vf	Im	Vu	Sig	Ach	IERange	Over	Temp
	#	s	V vs. Ref.	A	V	V	V	#	bits	deg C
	1037	207.6	7.89931E-001	1.35846E-007	0.00000E+000	7.90000E-001	1.00209E-003	5	..........a	-327.66
	1038	207.8	7.79880E-001	1.15687E-007	0.00000E+000	7.80000E-001	9.95792E-004	5	..........a	-327.66
	1039	208	7.69892E-001	1.01357E-007	0.00000E+000	7.70000E-001	1.00749E-003	5	..........a	-327.66
	1040	208.2	7.59863E-001	9.06085E-008	0.00000E+000	7.60000E-001	9.90392E-004	5	..........a	-327.66
	1041	208.4	7.49975E-001	8.20367E-008	0.00000E+000	7.50000E-001	1.00159E-003	5	..........a	-327.66
	1042	208.6	7.39899E-001	7.51841E-008	0.00000E+000	7.40000E-001	1.01509E-003	5	..........a	-327.66
	1043	208.8	7.29860E-001	6.93802E-008	0.00000E+000	7.30000E-001	1.02479E-003	5	..........a	-327.66
	1044	209	7.19882E-001	6.43844E-008	0.00000E+000	7.20000E-001	1.01309E-003	5	..........a	-327.66
	1045	209.2	7.09976E-001	6.00143E-008	0.00000E+000	7.10000E-001	1.00609E-003	5	..........a	-327.66
	1046	209.4	6.99920E-001	5.61312E-008	0.00000E+000	7.00000E-001	9.90092E-004	5	..........a	-327.66
	1047	209.6	6.89923E-001	5.25682E-008	0.00000E+000	6.90000E-001	1.01179E-003	5	..........a	-327.66
	1048	209.8	6.79930E-001	4.93937E-008	0.00000E+000	6.80000E-001	1.00039E-003	5	..........a	-327.66
	1049	210	6.69971E-001	4.63869E-008	0.00000E+000	6.70000E-001	1.03159E-003	5	..........a	-327.66
	1050	210.2	6.59915E-001	4.36090E-008	0.00000E+000	6.60000E-001	9.97892E-004	5	..........a	-327.66
	1051	210.4	6.49925E-001	4.09879E-008	0.00000E+000	6.50000E-001	1.00279E-003	5	..........a	-327.66
	1052	210.6	6.39893E-001	3.85114E-008	0.00000E+000	6.40000E-001	1.02199E-003	5	..........a	-327.66
	1053	210.8	6.30029E-001	3.62133E-008	0.00000E+000	6.30000E-001	9.96292E-004	5	..........a	-327.66
	1054	211	6.19913E-001	3.39937E-008	0.00000E+000	6.20000E-001	9.91692E-004	5	..........a	-327.66
	1055	211.2	6.09975E-001	3.19284E-008	0.00000E+000	6.10000E-001	9.87792E-004	5	..........a	-327.66
	1056	211.4	5.99975E-001	2.99415E-008	0.00000E+000	6.00000E-001	1.01589E-003	5	..........a	-327.66
	1057	211.6	5.89977E-001	2.81783E-008	0.00000E+000	5.90000E-001	1.02949E-003	5	..........a	-327.66
	1058	211.8	5.79994E-001	2.64192E-008	0.00000E+000	5.80000E-001	9.99492E-004	5	..........a	-327.66
	1059	212	5.69959E-001	2.47509E-008	0.00000E+000	5.70000E-001	1.01599E-003	5	..........a	-327.66
	1060	212.2	5.59927E-001	2.31566E-008	0.00000E+000	5.60000E-001	1.00399E-003	5	..........a	-327.66
	1061	212.4	5.50022E-001	2.15029E-008	0.00000E+000	5.50000E-001	9.80992E-004	5	..........a	-327.66
	1062	212.6	5.39998E-001	1.99128E-008	0.00000E+000	5.40000E-001	9.92092E-004	5	..........a	-327.66
	1063	212.8	5.29941E-001	1.83718E-008	0.00000E+000	5.30000E-001	1.01099E-003	5	..........a	-327.66
	1064	213	5.19965E-001	1.69044E-008	0.00000E+000	5.20000E-001	1.01109E-003	5	..........a	-327.66
	1065	213.2	5.09987E-001	1.55062E-008	0.00000E+000	5.10000E-001	1.02979E-003	5	..........a	-327.66
	1066	213.4	5.00023E-001	1.42277E-008	0.00000E+000	5.00000E-001	9.94292E-004	5	..........a	-327.66
	1067	213.6	4.89923E-001	1.29964E-008	0.00000E+000	4.90000E-001	1.01809E-003	5	..........a	-327.66
	1068	213.8	4.79918E-001	1.17481E-008	0.00000E+000	4.80000E-001	1.02059E-003	5	..........a	-327.66
	1069	214	4.70020E-001	1.04572E-008	0.00000E+000	4.70000E-001	9.93092E-004	5	..........a	-327.66
	1070	214.2	4.59988E-001	9.14372E-009	0.00000E+000	4.60000E-001	1.00809E-003	5	..........a	-327.66
	1071	214.4	4.49914E-001	7.79740E-009	0.00000E+000	4.50000E-001	1.00929E-003	5	..........a	-327.66
	1072	214.6	4.39952E-001	6.49497E-009	0.00000E+000	4.40000E-001	1.02729E-003	5	..........a	-327.66
	1073	214.8	4.29989E-001	5.15207E-009	0.00000E+000	4.30000E-001	1.00329E-003	5	..........a	-327.66
	1074	215	4.20004E-001	3.80493E-009	0.00000E+000	4.20000E-001	1.00709E-003	5	..........a	-327.66
	1075	215.2	4.09939E-001	2.39556E-009	0.00000E+000	4.10000E-001	1.03219E-003	5	..........a	-327.66
	1076	215.4	3.99996E-001	1.03106E-009	0.00000E+000	4.00000E-001	9.99492E-004	5	..........a	-327.66
	1077	215.6	3.90036E-001	-4.00768E-010	0.00000E+000	3.90000E-001	1.02179E-003	5	..........a	-327.66
	1078	215.8	3.80048E-001	-1.82375E-009	0.00000E+000	3.80000E-001	9.86792E-004	5	..........a	-327.66
	1079	216	3.70060E-001	-3.27043E-009	0.00000E+000	3.70000E-001	9.86792E-004	5	..........a	-327.66
	1080	216.2	3.60031E-001	-4.67861E-009	0.00000E+000	3.60000E-001	1.01159E-003	5	..........a	-327.66
	1081	216.4	3.50054E-001	-6.13101E-009	0.00000E+000	3.50000E-001	1.00099E-003	5	..........a	-327.66
	1082	216.6	3.40071E-001	-7.61282E-009	0.00000E+000	3.40000E-001	9.98792E-004	5	..........a	-327.66
	1083	216.8	3.30054E-001	-9.12257E-009	0.00000E+000	3.30000E-001	1.02229E-003	5	..........a	-327.66
	1084	217	3.20060E-001	-1.07743E-008	0.00000E+000	3.20000E-001	1.03189E-003	5	..........a	-327.66
	1085	217.2	3.10031E-001	-1.23668E-008	0.00000E+000	3.10000E-001	1.00389E-003	5	..........a	-327.66
	1086	217.4	3.00035E-001	-1.41021E-008	0.00000E+000	3.00000E-001	9.91292E-004	5	..........a	-327.66
	1087	217.6	2.90056E-001	-1.58856E-008	0.00000E+000	2.90000E-001	1.01069E-003	5	..........a	-327.66
	1088	217.8	2.79984E-001	-1.77554E-008	0.00000E+000	2.80000E-001	1.04689E-003	5	..........a	-327.66
	1089	218	2.70081E-001	-1.97302E-008	0.00000E+000	2.70000E-001	1.00289E-003	5	..........a	-327.66
	1090	218.2	2.60045E-001	-2.17692E-008	0.00000E+000	2.60000E-001	1.00029E-003	5	..........a	-327.66
	1091	218.4	2.50012E-001	-2.38699E-008	0.00000E+000	2.50000E-001	1.01079E-003	5	..........a	-327.66
	1092	218.6	2.40068E-001	-2.59111E-008	0.00000E+000	2.40000E-001	9.86492E-004	5	..........a	-327.66
	1093	218.8	2.30003E-001	-2.79001E-008	0.00000E+000	2.30000E-001	1.00759E-003	5	..........a	-327.66
	1094	219	2.20040E-001	-2.96766E-008	0.00000E+000	2.20000E-001	9.91992E-004	5	..........a	-327.66
	1095	219.2	2.10031E-001	-3.12759E-008	0.00000E+000	2.10000E-001	1.01339E-003	5	..........a	-327.66
	1096	219.4	2.00034E-001	-3.24650E-008	0.00000E+000	2.00000E-001	1.01039E-003	5	..........a	-327.66
	1097	219.6	1.90120E-001	-3.32688E-008	0.00000E+000	1.90000E-001	9.93692E-004	5	..........a	-327.66
	1098	219.8	1.80097E-001	-3.36973E-008	0.00000E+000	1.80000E-001	1.01209E-003	5	..........a	-327.66
	1099	220	1.70073E-001	-3.38132E-008	0.00000E+000	1.70000E-001	1.00459E-003	5	..........a	-327.66
	1100	220.2	1.60061E-001	-3.36314E-008	0.00000E+000	1.60000E-001	1.01339E-003	5	..........a	-327.66
	1101	220.4	1.50054E-001	-3.32219E-008	0.00000E+000	1.50000E-001	1.03019E-003	5	..........a	-327.66
	1102	220.6	1.40116E-001	-3.26311E-008	0.00000E+000	1.40000E-001	1.00539E-003	5	..........a	-327.66
	1103	220.8	1.30073E-001	-3.19591E-008	0.00000E+000	1.30000E-001	1.00939E-003	5	..........a	-327.66
	1104	221	1.20066E-001	-3.13113E-008	0.00000E+000	1.20000E-001	1.00899E-003	5	..........a	-327.66
	1105	221.2	1.10118E-001	-3.06735E-008	0.00000E+000	1.10000E-001	1.01829E-003	5	..........a	-327.66
	1106	221.4	1.00126E-001	-3.01499E-008	0.00000E+000	1.00000E-001	9.94592E-004	5	..........a	-327.66
	1107	221.6	9.01075E-002	-2.96135E-008	0.00000E+000	9.00000E-002	1.01199E-003	5	..........a	-327.66
	1108	221.8	8.00729E-002	-2.93296E-008	0.00000E+000	8.00000E-002	9.98592E-004	5	..........a	-327.66
	1109	222	7.00617E-002	-2.92031E-008	0.00000E+000	7.00000E-002	9.97792E-004	5	..........a	-327.66
	1110	222.2	6.01205E-002	-2.92277E-008	0.00000E+000	6.00000E-002	9.88592E-004	5	..........a	-327.66
	1111	222.4	5.00670E-002	-2.93485E-008	0.00000E+000	5.00000E-002	1.01189E-003	5	..........a	-327.66
	1112	222.6	4.00236E-002	-2.95599E-008	0.00000E+000	4.00000E-002	9.89392E-004	5	..........a	-327.66
	1113	222.8	3.00845E-002	-2.98545E-008	0.00000E+000	3.00000E-002	1.03029E-003	5	..........a	-327.66
	1114	223	2.01525E-002	-3.02605E-008	0.00000E+000	2.00000E-002	9.86492E-004	5	..........a	-327.66
	1115	223.2	1.01107E-002	-3.08525E-008	0.00000E+000	1.00000E-002	1.00639E-003	5	..........a	-327.66
	1116	223.4	3.05917E-005	-3.15226E-008	0.00000E+000	7.45058E-009	1.01629E-003	5	..........a	-327.66
	1117	223.6	-9.89051E-003	-3.18018E-008	0.00000E+000	-1.00000E-002	1.00319E-003	5	..........a	-327.66
	1118	223.8	-1.99172E-002	-3.24387E-008	0.00000E+000	-2.00000E-002	9.80592E-004	5	..........a	-327.66
	1119	224	-2.99566E-002	-3.32583E-008	0.00000E+000	-3.00000E-002	9.97792E-004	5	..........a	-327.66
	1120	224.2	-3.99224E-002	-3.36581E-008	0.00000E+000	-4.00000E-002	9.96492E-004	5	..........a	-327.66