File: data/raw/batch_data/20240321_ZN_GM0016_HL03_E10_CV50k.DTA
EXPLAIN
TAG	CV
TITLE	LABEL	Cyclic Voltammetry	Test &Identifier
DATE	LABEL	3/21/2024	Date
TIME	LABEL	18:46:02	Time
NOTES	NOTES	1	&Notes...

PSTAT	PSTAT	REF600P-43058	Potentiostat
VINIT	POTEN	0.00000E+000	T	Initial &E (V)
VLIMIT1	POTEN	-6.00000E-001	F	Scan Limit &1 (V)
VLIMIT2	POTEN	8.00000E-001	F	Scan Limit &2 (V)
VFINAL	POTEN	0.00000E+000	T	Final &E (V)
SCANRATE	QUANT	4.99999E+004	&Scan Rate (mV/s)
STEPSIZE	QUANT	1.00000E+001	St&ep Size (mV)
CYCLES	IQUANT	10	C&ycles (#)
IMODE	SELECTOR	1	I/E Range &Mode
IRANGE	QUANT	1.00000E-005	&Max Current (mA)
AREA	QUANT	1.00000E+000	Electrode &Area (cm^2)
ELECTRODETYPE	SELECTOR	0	Electrode Type
STRIPPING	TOGGLE	F	Used for Stripping
POLARITY	TOGGLE	F	Signal Polarity
CONDIT	TWOPARAM	F	1.50000E+001	0.00000E+000	Conditionin&g	Time(s)	E(V)
DELAY	TWOPARAM	T	1.00000E+001	0.00000E+000	Init. De&lay	Time(s)	Stab.(mV/s)
EQDELAY	QUANT	1.00000E+001	Equil. &Time (s)
IRCOMP	SELECTOR	0	IRCom&p
PFCOR	QUANT	5.00000E+001	PF Corr. (ohm)
SAMPLINGMODE	SELECTOR	1	Sampling &Mode
OCVCURVE	TABLE	39
	Pt	T	Vf	Vm	Ach	Over	Temp
	#	s	V vs. Ref.	V	V	bits	deg C
	0	0.258333	4.55194E-001	4.55194E-001	2.76622E-004	..........a	-327.66
	1	0.516667	4.55196E-001	4.55266E-001	2.66956E-004	..........a	-327.66
	2	0.775	4.55207E-001	4.55461E-001	2.62422E-004	..........a	-327.66
	3	1.03333	4.55246E-001	4.55683E-001	2.50356E-004	..........a	-327.66
	4	1.29167	4.55336E-001	4.55954E-001	2.69289E-004	..........a	-327.66
	5	1.55	4.55486E-001	4.56160E-001	2.53222E-004	..........a	-327.66
	6	1.80833	4.55686E-001	4.56432E-001	2.42822E-004	..........a	-327.66
	7	2.06667	4.55917E-001	4.56790E-001	2.70022E-004	..........a	-327.66
	8	2.325	4.56167E-001	4.56844E-001	2.69822E-004	..........a	-327.66
	9	2.58333	4.56420E-001	4.57047E-001	2.60422E-004	..........a	-327.66
	10	2.84167	4.56654E-001	4.57283E-001	2.63622E-004	..........a	-327.66
	11	3.1	4.56864E-001	4.57552E-001	2.71156E-004	..........a	-327.66
	12	3.35833	4.57069E-001	4.57765E-001	2.69289E-004	..........a	-327.66
	13	3.61667	4.57286E-001	4.58014E-001	2.63956E-004	..........a	-327.66
	14	3.875	4.57519E-001	4.58385E-001	2.65756E-004	..........a	-327.66
	15	4.13333	4.57766E-001	4.58433E-001	2.79756E-004	..........a	-327.66
	16	4.39167	4.58015E-001	4.58637E-001	2.67889E-004	..........a	-327.66
	17	4.65	4.58246E-001	4.58873E-001	2.53556E-004	..........a	-327.66
	18	4.90833	4.58454E-001	4.59142E-001	2.66022E-004	..........a	-327.66
	19	5.16667	4.58659E-001	4.59348E-001	2.67956E-004	..........a	-327.66
	20	5.425	4.58875E-001	4.59548E-001	2.48022E-004	..........a	-327.66
	21	5.68333	4.59101E-001	4.59943E-001	2.56089E-004	..........a	-327.66
	22	5.94167	4.59339E-001	4.60053E-001	2.64022E-004	..........a	-327.66
	23	6.2	4.59583E-001	4.60211E-001	2.64756E-004	..........a	-327.66
	24	6.45833	4.59817E-001	4.60403E-001	2.70956E-004	..........a	-327.66
	25	6.71667	4.60028E-001	4.60690E-001	2.61289E-004	..........a	-327.66
	26	6.975	4.60227E-001	4.60884E-001	2.54489E-004	..........a	-327.66
	27	7.23333	4.60431E-001	4.61071E-001	2.49889E-004	..........a	-327.66
	28	7.49167	4.60646E-001	4.61449E-001	2.62622E-004	..........a	-327.66
	29	7.75	4.60874E-001	4.61631E-001	2.68889E-004	..........a	-327.66
	30	8.00833	4.61115E-001	4.61779E-001	2.47489E-004	..........a	-327.66
	31	8.26667	4.61355E-001	4.61959E-001	2.58822E-004	..........a	-327.66
	32	8.525	4.61576E-001	4.62208E-001	2.51489E-004	..........a	-327.66
	33	8.78333	4.61779E-001	4.62424E-001	2.66556E-004	..........a	-327.66
	34	9.04167	4.61980E-001	4.62639E-001	2.51689E-004	..........a	-327.66
	35	9.3	4.62189E-001	4.62905E-001	2.57356E-004	..........a	-327.66
	36	9.5583	4.62411E-001	4.63204E-001	2.58956E-004	..........a	-327.66
	37	9.8167	4.62645E-001	4.63302E-001	2.67622E-004	..........a	-327.66
	38	10.075	4.62882E-001	4.63475E-001	2.62022E-004	..........a	-327.66
EOC	QUANT	0.4628818	Open Circuit (V)
PSTATMODEL	IQUANT	7	Pstat Model
PSTATSECTION	LABEL	REF600P-43058	Pstat Section
PSTATSERIALNO	LABEL	43058	Pstat Serial Number
CTRLMODE	IQUANT	1	Control Mode
ELECTROMETER	IQUANT	0	RE=0 or CS=1
IESTAB	IQUANT	2	I/E Stability
CASPEED	IQUANT	4	Control Amp Speed
CONVENTION	IQUANT	1	Current Convention
ICHRANGE	IQUANT	2	Ich Range
ICHRANGEMODE	TOGGLE	F	Ich Auto Range
ICHOFFSETENABLE	TOGGLE	F	Ich Offset Enable
ICHOFFSET	QUANT	0	Ich Offset (V)
ICHFILTER	IQUANT	1	Ich Filter
VCHRANGE	IQUANT	2	Vch Range
VCHRANGEMODE	TOGGLE	F	Vch Auto Range
VCHOFFSETENABLE	TOGGLE	F	Vch Offset Enable
VCHOFFSET	QUANT	0	Vch Offset (V)
VCHFILTER	IQUANT	1	Vch Filter
ACHRANGE	IQUANT	2	Ach Range
ACHOFFSETENABLE	TOGGLE	F	Ach Offset Enable
ACHOFFSET	QUANT	0	Ach Offset (V)
ACHFILTER	IQUANT	1	Ach Filter
IERANGELOWERLIMIT	IQUANT	1	I/E Range Lower Limit
IERANGEMODE	TOGGLE	F	I/E AutoRange
IERANGE	IQUANT	4	I/E Range
POSFEEDENABLE	TOGGLE	F	Positive Feedback IR Comp
POSFEEDRESISTANCE	QUANT	0	Positive Feedback Resistance (ohm)
ACHSELECT	IQUANT	4	Ach Select
SENSECABLEID	IQUANT	7	Sense Cable ID
PWRCABLEID	IQUANT	7	Power Cable ID
DCCALDATE	LABEL	12/18/2023	DC Calibration Date
ACCALDATE	LABEL	12/18/2023	AC Calibration Date
THERMOSELECT	IQUANT	1	Thermo Select
FRAMEWORKVERSION	LABEL	7.8.4	Framework Version
INSTRUMENTVERSION	LABEL	4.42	Instrument Version
CURVE1	TABLE
	Pt	T	Vf	Im	Vu	Sig	Ach	IERange	Over	Temp
	#	s	V vs. Ref.	A	V	V	V	#	bits	deg C
	0	0.0002	4.62870E-001	1.77883E-011	0.00000E+000	4.62900E-001	8.00223E-005	4	..........a	-327.66
	1	0.0004	4.52970E-001	-2.12132E-011	0.00000E+000	4.52900E-001	8.00223E-005	4	..........a	-327.66
	2	0.0006	4.42770E-001	-6.82150E-011	0.00000E+000	4.42900E-001	8.00223E-005	4	..........a	-327.66
	3	0.0008	4.32970E-001	-1.13217E-010	0.00000E+000	4.32900E-001	8.00223E-005	4	..........a	-327.66
	4	0.001	4.22870E-001	-1.62219E-010	0.00000E+000	4.22900E-001	8.00223E-005	4	..........a	-327.66
	5	0.0012	4.12870E-001	-2.14221E-010	0.00000E+000	4.12900E-001	8.00223E-005	4	..........a	-327.66
	6	0.0014	4.02870E-001	-2.63222E-010	0.00000E+000	4.02900E-001	8.00223E-005	4	..........a	-327.66
	7	0.0016	3.92970E-001	-3.18225E-010	0.00000E+000	3.92900E-001	8.00223E-005	4	..........a	-327.66
	8	0.0018	3.82870E-001	-3.76227E-010	0.00000E+000	3.82900E-001	8.00223E-005	4	..........a	-327.66
	9	0.002	3.72820E-001	-4.35229E-010	0.00000E+000	3.72900E-001	8.00223E-005	4	..........a	-327.66
	10	0.0022	3.62770E-001	-4.97231E-010	0.00000E+000	3.62900E-001	8.00223E-005	4	..........a	-327.66
	11	0.0024	3.53270E-001	-5.55234E-010	0.00000E+000	3.52900E-001	8.00223E-005	4	..........a	-327.66
	12	0.0026	3.42870E-001	-6.23236E-010	0.00000E+000	3.42900E-001	-3.19978E-004	4	..........a	-327.66
	13	0.0028	3.32970E-001	-6.87239E-010	0.00000E+000	3.32900E-001	8.00223E-005	4	..........a	-327.66
	14	0.003	3.22970E-001	-7.58241E-010	0.00000E+000	3.22900E-001	-2.19978E-004	4	..........a	-327.66
	15	0.0032	3.13020E-001	-8.26244E-010	0.00000E+000	3.12900E-001	8.00223E-005	4	..........a	-327.66
	16	0.0034	3.02570E-001	-9.00247E-010	0.00000E+000	3.02900E-001	8.00223E-005	4	..........a	-327.66
	17	0.0036	2.92870E-001	-9.74250E-010	0.00000E+000	2.92900E-001	8.00223E-005	4	..........a	-327.66
	18	0.0038	2.82870E-001	-1.05825E-009	0.00000E+000	2.82900E-001	8.00223E-005	4	..........a	-327.66
	19	0.004	2.73070E-001	-1.13426E-009	0.00000E+000	2.72900E-001	8.00223E-005	4	..........a	-327.66
	20	0.0042	2.62870E-001	-1.21826E-009	0.00000E+000	2.62900E-001	8.00223E-005	4	..........a	-327.66
	21	0.0044	2.52970E-001	-1.31426E-009	0.00000E+000	2.52900E-001	8.00223E-005	4	..........a	-327.66
	22	0.0046	2.42870E-001	-1.39827E-009	0.00000E+000	2.42900E-001	8.00223E-005	4	..........a	-327.66
	23	0.0048	2.32970E-001	-1.49027E-009	0.00000E+000	2.32900E-001	8.00223E-005	4	..........a	-327.66
	24	0.005	2.22870E-001	-1.58627E-009	0.00000E+000	2.22900E-001	8.00223E-005	4	..........a	-327.66
	25	0.0052	2.12970E-001	-1.68328E-009	0.00000E+000	2.12900E-001	8.00223E-005	4	..........a	-327.66
	26	0.0054	2.02770E-001	-1.79228E-009	0.00000E+000	2.02900E-001	8.00223E-005	4	..........a	-327.66
	27	0.0056	1.93170E-001	-1.88828E-009	0.00000E+000	1.92900E-001	8.00223E-005	4	..........a	-327.66
	28	0.0058	1.82770E-001	-2.01029E-009	0.00000E+000	1.82900E-001	8.00223E-005	4	..........a	-327.66
	29	0.006	1.72970E-001	-2.13029E-009	0.00000E+000	1.72900E-001	8.00223E-005	4	..........a	-327.66
	30	0.0062	1.62870E-001	-2.25030E-009	0.00000E+000	1.62900E-001	8.00223E-005	4	..........a	-327.66
	31	0.0064	1.53070E-001	-2.37430E-009	0.00000E+000	1.52900E-001	8.00223E-005	4	..........a	-327.66
	32	0.0066	1.42870E-001	-2.50431E-009	0.00000E+000	1.42900E-001	8.00223E-005	4	..........a	-327.66
	33	0.0068	1.32970E-001	-2.63731E-009	0.00000E+000	1.32900E-001	8.00223E-005	4	..........a	-327.66
	34	0.007	1.22870E-001	-2.78232E-009	0.00000E+000	1.22900E-001	8.00223E-005	4	..........a	-327.66
	35	0.0072	1.13020E-001	-2.91232E-009	0.00000E+000	1.12900E-001	8.00223E-005	4	..........a	-327.66
	36	0.0074	1.02970E-001	-3.07633E-009	0.00000E+000	1.02900E-001	8.00223E-005	4	..........a	-327.66
	37	0.0076	9.30695E-002	-3.23434E-009	0.00000E+000	9.29000E-002	8.00223E-005	4	..........a	-327.66
	38	0.0078	8.28695E-002	-3.39134E-009	0.00000E+000	8.29000E-002	8.00223E-005	4	..........a	-327.66
	39	0.008	7.30695E-002	-3.55835E-009	0.00000E+000	7.29000E-002	8.00223E-005	4	..........a	-327.66
	40	0.0082	6.28695E-002	-3.73036E-009	0.00000E+000	6.29000E-002	8.00223E-005	4	..........a	-327.66
	41	0.0084	5.28695E-002	-3.90436E-009	0.00000E+000	5.29000E-002	8.00223E-005	4	..........a	-327.66
	42	0.0086	4.28695E-002	-4.09037E-009	0.00000E+000	4.29000E-002	8.00223E-005	4	..........a	-327.66
	43	0.0088	3.30695E-002	-4.28238E-009	0.00000E+000	3.29000E-002	8.00223E-005	4	..........a	-327.66
	44	0.009	2.30695E-002	-4.46838E-009	0.00000E+000	2.29000E-002	8.00223E-005	4	..........a	-327.66
	45	0.0092	1.30695E-002	-4.66639E-009	0.00000E+000	1.29000E-002	8.00223E-005	4	..........a	-327.66
	46	0.0094	2.96952E-003	-4.87040E-009	0.00000E+000	2.90000E-003	8.00223E-005	4	..........a	-327.66
	47	0.0096	-6.93048E-003	-5.07341E-009	0.00000E+000	-7.09999E-003	8.00223E-005	4	..........a	-327.66
	48	0.0098	-1.71305E-002	-5.27842E-009	0.00000E+000	-1.71000E-002	8.00223E-005	4	..........a	-327.66
	49	0.01	-2.70305E-002	-5.49842E-009	0.00000E+000	-2.71000E-002	8.00223E-005	4	..........a	-327.66
	50	0.0102	-3.71305E-002	-5.71243E-009	0.00000E+000	-3.71000E-002	8.00223E-005	4	..........a	-327.66
	51	0.0104	-4.70305E-002	-5.93244E-009	0.00000E+000	-4.71000E-002	8.00223E-005	4	..........a	-327.66
	52	0.0106	-5.73305E-002	-6.15745E-009	0.00000E+000	-5.71000E-002	8.00223E-005	4	..........a	-327.66
	53	0.0108	-6.70305E-002	-6.38246E-009	0.00000E+000	-6.71000E-002	8.00223E-005	4	..........a	-327.66
	54	0.011	-7.69305E-002	-6.61147E-009	0.00000E+000	-7.71000E-002	8.00223E-005	4	..........a	-327.66
	55	0.0112	-8.69305E-002	-6.83948E-009	0.00000E+000	-8.71000E-002	8.00223E-005	4	..........a	-327.66
	56	0.0114	-9.71305E-002	-7.07648E-009	0.00000E+000	-9.71000E-002	8.00223E-005	4	..........a	-327.66
	57	0.0116	-1.07130E-001	-7.30749E-009	0.00000E+000	-1.07100E-001	8.00223E-005	4	..........a	-327.66
	58	0.0118	-1.17030E-001	-7.54650E-009	0.00000E+000	-1.17100E-001	8.00223E-005	4	..........a	-327.66
	59	0.012	-1.26980E-001	-7.77851E-009	0.00000E+000	-1.27100E-001	8.00223E-005	4	..........a	-327.66
	60	0.0122	-1.37130E-001	-8.01852E-009	0.00000E+000	-1.37100E-001	8.00223E-005	4	..........a	-327.66
	61	0.0124	-1.46930E-001	-8.25653E-009	0.00000E+000	-1.47100E-001	8.00223E-005	4	..........a	-327.66
	62	0.0126	-1.56930E-001	-8.49854E-009	0.00000E+000	-1.57100E-001	8.00223E-005	4	..........a	-327.66
	63	0.0128	-1.66930E-001	-8.73555E-009	0.00000E+000	-1.67100E-001	8.00223E-005	4	..........a	-327.66
	64	0.013	-1.77030E-001	-8.97556E-009	0.00000E+000	-1.77100E-001	8.00223E-005	4	..........a	-327.66
	65	0.0132	-1.87030E-001	-9.21757E-009	0.00000E+000	-1.87100E-001	8.00223E-005	4	..........a	-327.66
	66	0.0134	-1.96930E-001	-9.45958E-009	0.00000E+000	-1.97100E-001	8.00223E-005	4	..........a	-327.66
	67	0.0136	-2.07030E-001	-9.69358E-009	0.00000E+000	-2.07100E-001	8.00223E-005	4	..........a	-327.66
	68	0.0138	-2.16930E-001	-9.93559E-009	0.00000E+000	-2.17100E-001	8.00223E-005	4	..........a	-327.66
	69	0.014	-2.27030E-001	-1.01746E-008	0.00000E+000	-2.27100E-001	8.00223E-005	4	..........a	-327.66
	70	0.0142	-2.36930E-001	-1.04126E-008	0.00000E+000	-2.37100E-001	8.00223E-005	4	..........a	-327.66
	71	0.0144	-2.47030E-001	-1.06486E-008	0.00000E+000	-2.47100E-001	8.00223E-005	4	..........a	-327.66
	72	0.0146	-2.56930E-001	-1.08836E-008	0.00000E+000	-2.57100E-001	8.00223E-005	4	..........a	-327.66
	73	0.0148	-2.67030E-001	-1.11136E-008	0.00000E+000	-2.67100E-001	8.00223E-005	4	..........a	-327.66
	74	0.015	-2.76880E-001	-1.13516E-008	0.00000E+000	-2.77100E-001	8.00223E-005	4	..........a	-327.66
	75	0.0152	-2.86730E-001	-1.15827E-008	0.00000E+000	-2.87100E-001	8.00223E-005	4	..........a	-327.66
	76	0.0154	-2.97030E-001	-1.18167E-008	0.00000E+000	-2.97100E-001	8.00223E-005	4	..........a	-327.66
	77	0.0156	-3.07030E-001	-1.20467E-008	0.00000E+000	-3.07100E-001	8.00223E-005	4	..........a	-327.66
	78	0.0158	-3.16830E-001	-1.22697E-008	0.00000E+000	-3.17100E-001	8.00223E-005	4	..........a	-327.66
	79	0.016	-3.26930E-001	-1.24977E-008	0.00000E+000	-3.27100E-001	8.00223E-005	4	..........a	-327.66
	80	0.0162	-3.37130E-001	-1.27277E-008	0.00000E+000	-3.37100E-001	8.00223E-005	4	..........a	-327.66
	81	0.0164	-3.47030E-001	-1.29527E-008	0.00000E+000	-3.47100E-001	8.00223E-005	4	..........a	-327.66
	82	0.0166	-3.57130E-001	-1.31737E-008	0.00000E+000	-3.57100E-001	8.00223E-005	4	..........a	-327.66
	83	0.0168	-3.67030E-001	-1.33937E-008	0.00000E+000	-3.67100E-001	8.00223E-005	4	..........a	-327.66
	84	0.017	-3.77030E-001	-1.36147E-008	0.00000E+000	-3.77100E-001	8.00223E-005	4	..........a	-327.66
	85	0.0172	-3.86930E-001	-1.38327E-008	0.00000E+000	-3.87100E-001	8.00223E-005	4	..........a	-327.66
	86	0.0174	-3.97030E-001	-1.40498E-008	0.00000E+000	-3.97100E-001	8.00223E-005	4	..........a	-327.66
	87	0.0176	-4.07030E-001	-1.42668E-008	0.00000E+000	-4.07100E-001	8.00223E-005	4	..........a	-327.66
	88	0.0178	-4.17030E-001	-1.44818E-008	0.00000E+000	-4.17100E-001	8.00223E-005	4	..........a	-327.66
	89	0.018	-4.27030E-001	-1.46888E-008	0.00000E+000	-4.27100E-001	8.00223E-005	4	..........a	-327.66
	90	0.0182	-4.36930E-001	-1.49128E-008	0.00000E+000	-4.37100E-001	8.00223E-005	4	..........a	-327.66
	91	0.0184	-4.46930E-001	-1.51258E-008	0.00000E+000	-4.47100E-001	8.00223E-005	4	..........a	-327.66
	92	0.0186	-4.56930E-001	-1.53378E-008	0.00000E+000	-4.57100E-001	8.00223E-005	4	..........a	-327.66
	93	0.0188	-4.66930E-001	-1.55498E-008	0.00000E+000	-4.67100E-001	1.80022E-004	4	..........a	-327.66
	94	0.019	-4.76930E-001	-1.57688E-008	0.00000E+000	-4.77100E-001	8.00223E-005	4	..........a	-327.66
	95	0.0192	-4.86930E-001	-1.59718E-008	0.00000E+000	-4.87100E-001	8.00223E-005	4	..........a	-327.66
	96	0.0194	-4.97530E-001	-1.61878E-008	0.00000E+000	-4.97100E-001	8.00223E-005	4	..........a	-327.66
	97	0.0196	-5.06930E-001	-1.63978E-008	0.00000E+000	-5.07100E-001	8.00223E-005	4	..........a	-327.66
	98	0.0198	-5.17030E-001	-1.66118E-008	0.00000E+000	-5.17100E-001	8.00223E-005	4	..........a	-327.66
	99	0.02	-5.26931E-001	-1.68269E-008	0.00000E+000	-5.27100E-001	8.00223E-005	4	..........a	-327.66
	100	0.0202	-5.36730E-001	-1.70409E-008	0.00000E+000	-5.37100E-001	8.00223E-005	4	..........a	-327.66
	101	0.0204	-5.46830E-001	-1.72589E-008	0.00000E+000	-5.47100E-001	8.00223E-005	4	..........a	-327.66
	102	0.0206	-5.56930E-001	-1.74809E-008	0.00000E+000	-5.57100E-001	8.00223E-005	4	..........a	-327.66
	103	0.0208	-5.66831E-001	-1.77069E-008	0.00000E+000	-5.67100E-001	8.00223E-005	4	..........a	-327.66
	104	0.021	-5.76831E-001	-1.79249E-008	0.00000E+000	-5.77100E-001	8.00223E-005	4	..........a	-327.66
	105	0.0212	-5.86830E-001	-1.81529E-008	0.00000E+000	-5.87100E-001	8.00223E-005	4	..........a	-327.66
	106	0.0214	-5.96830E-001	-1.83829E-008	0.00000E+000	-5.97100E-001	8.00223E-005	4	..........a	-327.66
	107	0.0216	-5.86931E-001	-1.84749E-008	0.00000E+000	-5.87100E-001	8.00223E-005	4	..........a	-327.66
	108	0.0218	-5.76930E-001	-1.85269E-008	0.00000E+000	-5.77100E-001	8.00223E-005	4	..........a	-327.66
	109	0.022	-5.66930E-001	-1.85629E-008	0.00000E+000	-5.67100E-001	8.00223E-005	4	..........a	-327.66
	110	0.0222	-5.56930E-001	-1.85809E-008	0.00000E+000	-5.57100E-001	8.00223E-005	4	..........a	-327.66
	111	0.0224	-5.46930E-001	-1.85839E-008	0.00000E+000	-5.47100E-001	8.00223E-005	4	..........a	-327.66
	112	0.0226	-5.37130E-001	-1.85789E-008	0.00000E+000	-5.37100E-001	8.00223E-005	4	..........a	-327.66
	113	0.0228	-5.26931E-001	-1.85649E-008	0.00000E+000	-5.27100E-001	8.00223E-005	4	..........a	-327.66
	114	0.023	-5.17030E-001	-1.85369E-008	0.00000E+000	-5.17100E-001	8.00223E-005	4	..........a	-327.66
	115	0.0232	-5.06831E-001	-1.85059E-008	0.00000E+000	-5.07100E-001	8.00223E-005	4	..........a	-327.66
	116	0.0234	-4.97130E-001	-1.84749E-008	0.00000E+000	-4.97100E-001	8.00223E-005	4	..........a	-327.66
	117	0.0236	-4.86830E-001	-1.84319E-008	0.00000E+000	-4.87100E-001	8.00223E-005	4	..........a	-327.66
	118	0.0238	-4.76830E-001	-1.83889E-008	0.00000E+000	-4.77100E-001	8.00223E-005	4	..........a	-327.66
	119	0.024	-4.67030E-001	-1.83409E-008	0.00000E+000	-4.67100E-001	8.00223E-005	4	..........a	-327.66
	120	0.0242	-4.57130E-001	-1.82839E-008	0.00000E+000	-4.57100E-001	2.80022E-004	4	..........a	-327.66
	121	0.0244	-4.46930E-001	-1.82289E-008	0.00000E+000	-4.47100E-001	8.00223E-005	4	..........a	-327.66
	122	0.0246	-4.36980E-001	-1.81669E-008	0.00000E+000	-4.37100E-001	8.00223E-005	4	..........a	-327.66
	123	0.0248	-4.26930E-001	-1.80999E-008	0.00000E+000	-4.27100E-001	8.00223E-005	4	..........a	-327.66
	124	0.025	-4.16830E-001	-1.80389E-008	0.00000E+000	-4.17100E-001	8.00223E-005	4	..........a	-327.66
	125	0.0252	-4.06930E-001	-1.79729E-008	0.00000E+000	-4.07100E-001	8.00223E-005	4	..........a	-327.66
	126	0.0254	-3.96880E-001	-1.78929E-008	0.00000E+000	-3.97100E-001	8.00223E-005	4	..........a	-327.66
	127	0.0256	-3.86930E-001	-1.78269E-008	0.00000E+000	-3.87100E-001	8.00223E-005	4	..........a	-327.66
	128	0.0258	-3.76930E-001	-1.77509E-008	0.00000E+000	-3.77100E-001	8.00223E-005	4	..........a	-327.66
	129	0.026	-3.66930E-001	-1.76709E-008	0.00000E+000	-3.67100E-001	8.00223E-005	4	..........a	-327.66
	130	0.0262	-3.57030E-001	-1.75959E-008	0.00000E+000	-3.57100E-001	8.00223E-005	4	..........a	-327.66
	131	0.0264	-3.46830E-001	-1.75159E-008	0.00000E+000	-3.47100E-001	8.00223E-005	4	..........a	-327.66
	132	0.0266	-3.36830E-001	-1.74319E-008	0.00000E+000	-3.37100E-001	8.00223E-005	4	..........a	-327.66
	133	0.0268	-3.26930E-001	-1.73449E-008	0.00000E+000	-3.27100E-001	8.00223E-005	4	..........a	-327.66
	134	0.027	-3.16830E-001	-1.72539E-008	0.00000E+000	-3.17100E-001	8.00223E-005	4	..........a	-327.66
	135	0.0272	-3.06930E-001	-1.71789E-008	0.00000E+000	-3.07100E-001	8.00223E-005	4	..........a	-327.66
	136	0.0274	-2.96930E-001	-1.70839E-008	0.00000E+000	-2.97100E-001	8.00223E-005	4	..........a	-327.66
	137	0.0276	-2.86930E-001	-1.69949E-008	0.00000E+000	-2.87100E-001	8.00223E-005	4	..........a	-327.66
	138	0.0278	-2.76830E-001	-1.69009E-008	0.00000E+000	-2.77100E-001	8.00223E-005	4	..........a	-327.66
	139	0.028	-2.66730E-001	-1.68079E-008	0.00000E+000	-2.67100E-001	8.00223E-005	4	..........a	-327.66
	140	0.0282	-2.56930E-001	-1.67149E-008	0.00000E+000	-2.57100E-001	8.00223E-005	4	..........a	-327.66
	141	0.0284	-2.46930E-001	-1.66189E-008	0.00000E+000	-2.47100E-001	8.00223E-005	4	..........a	-327.66
	142	0.0286	-2.37030E-001	-1.65198E-008	0.00000E+000	-2.37100E-001	8.00223E-005	4	..........a	-327.66
	143	0.0288	-2.26830E-001	-1.64238E-008	0.00000E+000	-2.27100E-001	-2.19978E-004	4	..........a	-327.66
	144	0.029	-2.16830E-001	-1.63268E-008	0.00000E+000	-2.17100E-001	8.00223E-005	4	..........a	-327.66
	145	0.0292	-2.06830E-001	-1.62188E-008	0.00000E+000	-2.07100E-001	8.00223E-005	4	..........a	-327.66
	146	0.0294	-1.97080E-001	-1.61208E-008	0.00000E+000	-1.97100E-001	8.00223E-005	4	..........a	-327.66
	147	0.0296	-1.87030E-001	-1.60178E-008	0.00000E+000	-1.87100E-001	8.00223E-005	4	..........a	-327.66
	148	0.0298	-1.76830E-001	-1.59118E-008	0.00000E+000	-1.77100E-001	8.00223E-005	4	..........a	-327.66
	149	0.03	-1.66930E-001	-1.58058E-008	0.00000E+000	-1.67100E-001	8.00223E-005	4	..........a	-327.66
	150	0.0302	-1.57030E-001	-1.57028E-008	0.00000E+000	-1.57100E-001	8.00223E-005	4	..........a	-327.66
	151	0.0304	-1.47030E-001	-1.55928E-008	0.00000E+000	-1.47100E-001	8.00223E-005	4	..........a	-327.66
	152	0.0306	-1.37030E-001	-1.54858E-008	0.00000E+000	-1.37100E-001	8.00223E-005	4	..........a	-327.66
	153	0.0308	-1.26930E-001	-1.53718E-008	0.00000E+000	-1.27100E-001	8.00223E-005	4	..........a	-327.66
	154	0.031	-1.17130E-001	-1.52628E-008	0.00000E+000	-1.17100E-001	8.00223E-005	4	..........a	-327.66
	155	0.0312	-1.06930E-001	-1.51508E-008	0.00000E+000	-1.07100E-001	8.00223E-005	4	..........a	-327.66
	156	0.0314	-9.71305E-002	-1.50368E-008	0.00000E+000	-9.71000E-002	8.00223E-005	4	..........a	-327.66
	157	0.0316	-8.69305E-002	-1.49198E-008	0.00000E+000	-8.71000E-002	8.00223E-005	4	..........a	-327.66
	158	0.0318	-7.69305E-002	-1.48068E-008	0.00000E+000	-7.71000E-002	8.00223E-005	4	..........a	-327.66
	159	0.032	-6.69305E-002	-1.46878E-008	0.00000E+000	-6.71000E-002	8.00223E-005	4	..........a	-327.66
	160	0.0322	-5.71305E-002	-1.45718E-008	0.00000E+000	-5.71000E-002	8.00223E-005	4	..........a	-327.66
	161	0.0324	-4.70305E-002	-1.44528E-008	0.00000E+000	-4.71000E-002	8.00223E-005	4	..........a	-327.66
	162	0.0326	-3.71305E-002	-1.43308E-008	0.00000E+000	-3.71000E-002	8.00223E-005	4	..........a	-327.66
	163	0.0328	-2.70305E-002	-1.42088E-008	0.00000E+000	-2.71000E-002	8.00223E-005	4	..........a	-327.66
	164	0.033	-1.69305E-002	-1.40908E-008	0.00000E+000	-1.71000E-002	8.00223E-005	4	..........a	-327.66
	165	0.0332	-6.93048E-003	-1.39657E-008	0.00000E+000	-7.09999E-003	8.00223E-005	4	..........a	-327.66
	166	0.0334	3.06952E-003	-1.38407E-008	0.00000E+000	2.90000E-003	8.00223E-005	4	..........a	-327.66
	167	0.0336	1.30695E-002	-1.37147E-008	0.00000E+000	1.29000E-002	8.00223E-005	4	..........a	-327.66
	168	0.0338	2.32695E-002	-1.35967E-008	0.00000E+000	2.29000E-002	8.00223E-005	4	..........a	-327.66
	169	0.034	3.30195E-002	-1.34637E-008	0.00000E+000	3.29000E-002	8.00223E-005	4	..........a	-327.66
	170	0.0342	4.31695E-002	-1.33357E-008	0.00000E+000	4.29000E-002	8.00223E-005	4	..........a	-327.66
	171	0.0344	5.29195E-002	-1.32047E-008	0.00000E+000	5.29000E-002	8.00223E-005	4	..........a	-327.66
	172	0.0346	6.28695E-002	-1.30727E-008	0.00000E+000	6.29000E-002	8.00223E-005	4	..........a	-327.66
	173	0.0348	7.30195E-002	-1.29377E-008	0.00000E+000	7.29000E-002	8.00223E-005	4	..........a	-327.66
	174	0.035	8.29695E-002	-1.28027E-008	0.00000E+000	8.29000E-002	8.00223E-005	4	..........a	-327.66
	175	0.0352	9.31695E-002	-1.26667E-008	0.00000E+000	9.29000E-002	8.00223E-005	4	..........a	-327.66
	176	0.0354	1.02870E-001	-1.25307E-008	0.00000E+000	1.02900E-001	8.00223E-005	4	..........a	-327.66
	177	0.0356	1.12970E-001	-1.23897E-008	0.00000E+000	1.12900E-001	8.00223E-005	4	..........a	-327.66
	178	0.0358	1.23070E-001	-1.22507E-008	0.00000E+000	1.22900E-001	8.00223E-005	4	..........a	-327.66
	179	0.036	1.32870E-001	-1.21057E-008	0.00000E+000	1.32900E-001	8.00223E-005	4	..........a	-327.66
	180	0.0362	1.43370E-001	-1.19677E-008	0.00000E+000	1.42900E-001	8.00223E-005	4	..........a	-327.66
	181	0.0364	1.53070E-001	-1.18197E-008	0.00000E+000	1.52900E-001	8.00223E-005	4	..........a	-327.66
	182	0.0366	1.63170E-001	-1.16767E-008	0.00000E+000	1.62900E-001	8.00223E-005	4	..........a	-327.66
	183	0.0368	1.72820E-001	-1.15257E-008	0.00000E+000	1.72900E-001	8.00223E-005	4	..........a	-327.66
	184	0.037	1.82970E-001	-1.13736E-008	0.00000E+000	1.82900E-001	8.00223E-005	4	..........a	-327.66
	185	0.0372	1.92970E-001	-1.12206E-008	0.00000E+000	1.92900E-001	8.00223E-005	4	..........a	-327.66
	186	0.0374	2.02970E-001	-1.10676E-008	0.00000E+000	2.02900E-001	8.00223E-005	4	..........a	-327.66
	187	0.0376	2.12870E-001	-1.09136E-008	0.00000E+000	2.12900E-001	8.00223E-005	4	..........a	-327.66
	188	0.0378	2.22870E-001	-1.07546E-008	0.00000E+000	2.22900E-001	8.00223E-005	4	..........a	-327.66
	189	0.038	2.33070E-001	-1.05986E-008	0.00000E+000	2.32900E-001	8.00223E-005	4	..........a	-327.66
	190	0.0382	2.42870E-001	-1.04346E-008	0.00000E+000	2.42900E-001	8.00223E-005	4	..........a	-327.66
	191	0.0384	2.52970E-001	-1.02766E-008	0.00000E+000	2.52900E-001	8.00223E-005	4	..........a	-327.66
	192	0.0386	2.63070E-001	-1.01086E-008	0.00000E+000	2.62900E-001	8.00223E-005	4	..........a	-327.66
	193	0.0388	2.72720E-001	-9.94159E-009	0.00000E+000	2.72900E-001	-3.19978E-004	4	..........a	-327.66
	194	0.039	2.82870E-001	-9.77159E-009	0.00000E+000	2.82900E-001	8.00223E-005	4	..........a	-327.66
	195	0.0392	2.92870E-001	-9.59858E-009	0.00000E+000	2.92900E-001	8.00223E-005	4	..........a	-327.66
	196	0.0394	3.02870E-001	-9.42557E-009	0.00000E+000	3.02900E-001	8.00223E-005	4	..........a	-327.66
	197	0.0396	3.13070E-001	-9.25057E-009	0.00000E+000	3.12900E-001	8.00223E-005	4	..........a	-327.66
	198	0.0398	3.22870E-001	-9.07256E-009	0.00000E+000	3.22900E-001	8.00223E-005	4	..........a	-327.66
	199	0.04	3.32870E-001	-8.89355E-009	0.00000E+000	3.32900E-001	8.00223E-005	4	..........a	-327.66
	200	0.0402	3.42970E-001	-8.71255E-009	0.00000E+000	3.42900E-001	8.00223E-005	4	..........a	-327.66
	201	0.0404	3.52970E-001	-8.52654E-009	0.00000E+000	3.52900E-001	8.00223E-005	4	..........a	-327.66
	202	0.0406	3.62720E-001	-8.34153E-009	0.00000E+000	3.62900E-001	8.00223E-005	4	..........a	-327.66
	203	0.0408	3.72870E-001	-8.15253E-009	0.00000E+000	3.72900E-001	8.00223E-005	4	..........a	-327.66
	204	0.041	3.82970E-001	-7.96452E-009	0.00000E+000	3.82900E-001	8.00223E-005	4	..........a	-327.66
	205	0.0412	3.93070E-001	-7.77151E-009	0.00000E+000	3.92900E-001	8.00223E-005	4	..........a	-327.66
	206	0.0414	4.02970E-001	-7.58050E-009	0.00000E+000	4.02900E-001	8.00223E-005	4	..........a	-327.66
	207	0.0416	4.12970E-001	-7.38350E-009	0.00000E+000	4.12900E-001	8.00223E-005	4	..........a	-327.66
	208	0.0418	4.22970E-001	-7.18349E-009	0.00000E+000	4.22900E-001	-3.19978E-004	4	..........a	-327.66
	209	0.042	4.32970E-001	-6.98648E-009	0.00000E+000	4.32900E-001	8.00223E-005	4	..........a	-327.66
	210	0.0422	4.42870E-001	-6.78347E-009	0.00000E+000	4.42900E-001	8.00223E-005	4	..........a	-327.66
	211	0.0424	4.52970E-001	-6.57547E-009	0.00000E+000	4.52900E-001	8.00223E-005	4	..........a	-327.66
	212	0.0426	4.62970E-001	-6.37546E-009	0.00000E+000	4.62900E-001	8.00223E-005	4	..........a	-327.66
	213	0.0428	4.72970E-001	-6.16245E-009	0.00000E+000	4.72900E-001	8.00223E-005	4	..........a	-327.66
	214	0.043	4.82870E-001	-5.95444E-009	0.00000E+000	4.82900E-001	8.00223E-005	4	..........a	-327.66
	215	0.0432	4.92870E-001	-5.74143E-009	0.00000E+000	4.92900E-001	8.00223E-005	4	..........a	-327.66
	216	0.0434	5.02869E-001	-5.52642E-009	0.00000E+000	5.02900E-001	8.00223E-005	4	..........a	-327.66
	217	0.0436	5.13070E-001	-5.30242E-009	0.00000E+000	5.12900E-001	8.00223E-005	4	..........a	-327.66
	218	0.0438	5.22869E-001	-5.08341E-009	0.00000E+000	5.22900E-001	8.00223E-005	4	..........a	-327.66
	219	0.044	5.32719E-001	-4.86140E-009	0.00000E+000	5.32900E-001	8.00223E-005	4	..........a	-327.66
	220	0.0442	5.42870E-001	-4.63339E-009	0.00000E+000	5.42900E-001	8.00223E-005	4	..........a	-327.66
	221	0.0444	5.52969E-001	-4.40438E-009	0.00000E+000	5.52900E-001	8.00223E-005	4	..........a	-327.66
	222	0.0446	5.63069E-001	-4.17437E-009	0.00000E+000	5.62900E-001	8.00223E-005	4	..........a	-327.66
	223	0.0448	5.72869E-001	-3.93236E-009	0.00000E+000	5.72900E-001	8.00223E-005	4	..........a	-327.66
	224	0.045	5.82869E-001	-3.69435E-009	0.00000E+000	5.82900E-001	8.00223E-005	4	..........a	-327.66
	225	0.0452	5.93069E-001	-3.45735E-009	0.00000E+000	5.92900E-001	8.00223E-005	4	..........a	-327.66
	226	0.0454	6.02769E-001	-3.21034E-009	0.00000E+000	6.02900E-001	8.00223E-005	4	..........a	-327.66
	227	0.0456	6.12870E-001	-2.96733E-009	0.00000E+000	6.12900E-001	8.00223E-005	4	..........a	-327.66
	228	0.0458	6.22869E-001	-2.71532E-009	0.00000E+000	6.22900E-001	8.00223E-005	4	..........a	-327.66
	229	0.046	6.33069E-001	-2.46231E-009	0.00000E+000	6.32900E-001	8.00223E-005	4	..........a	-327.66
	230	0.0462	6.42869E-001	-2.20230E-009	0.00000E+000	6.42900E-001	8.00223E-005	4	..........a	-327.66
	231	0.0464	6.52869E-001	-1.94029E-009	0.00000E+000	6.52900E-001	8.00223E-005	4	..........a	-327.66
	232	0.0466	6.62669E-001	-1.67628E-009	0.00000E+000	6.62900E-001	8.00223E-005	4	..........a	-327.66
	233	0.0468	6.72870E-001	-1.40827E-009	0.00000E+000	6.72900E-001	8.00223E-005	4	..........a	-327.66
	234	0.047	6.82869E-001	-1.13226E-009	0.00000E+000	6.82900E-001	8.00223E-005	4	..........a	-327.66
	235	0.0472	6.92569E-001	-8.59245E-010	0.00000E+000	6.92900E-001	8.00223E-005	4	..........a	-327.66
	236	0.0474	7.02769E-001	-5.74234E-010	0.00000E+000	7.02900E-001	8.00223E-005	4	..........a	-327.66
	237	0.0476	7.12819E-001	-2.96224E-010	0.00000E+000	7.12900E-001	8.00223E-005	4	..........a	-327.66
	238	0.0478	7.22969E-001	1.78770E-012	0.00000E+000	7.22900E-001	8.00223E-005	4	..........a	-327.66
	239	0.048	7.32870E-001	2.92799E-010	0.00000E+000	7.32900E-001	8.00223E-005	4	..........a	-327.66
	240	0.0482	7.42869E-001	5.86810E-010	0.00000E+000	7.42900E-001	8.00223E-005	4	..........a	-327.66
	241	0.0484	7.52869E-001	8.88822E-010	0.00000E+000	7.52900E-001	8.00223E-005	4	..........a	-327.66
	242	0.0486	7.62769E-001	1.19683E-009	0.00000E+000	7.62900E-001	8.00223E-005	4	..........a	-327.66
	243	0.0488	7.72869E-001	1.50585E-009	0.00000E+000	7.72900E-001	8.00223E-005	4	..........a	-327.66
	244	0.049	7.82869E-001	1.82586E-009	0.00000E+000	7.82900E-001	8.00223E-005	4	..........a	-327.66
	245	0.0492	7.92769E-001	2.14387E-009	0.00000E+000	7.92900E-001	8.00223E-005	4	..........a	-327.66
	246	0.0494	8.02869E-001	2.47588E-009	0.00000E+000	8.02900E-001	8.00223E-005	4	..........a	-327.66
CURVE2	TABLE
	Pt	T	Vf	Im	Vu	Sig	Ach	IERange	Over	Temp
	#	s	V vs. Ref.	A	V	V	V	#	bits	deg C
	247	0.0496	7.89869E-001	2.64089E-009	0.00000E+000	7.90000E-001	8.00223E-005	4	..........a	-327.66
	248	0.0498	7.79869E-001	2.76989E-009	0.00000E+000	7.80000E-001	8.00223E-005	4	..........a	-327.66
	249	0.05	7.69969E-001	2.87590E-009	0.00000E+000	7.70000E-001	8.00223E-005	4	..........a	-327.66
	250	0.0502	7.59869E-001	2.95090E-009	0.00000E+000	7.60000E-001	8.00223E-005	4	..........a	-327.66
	251	0.0504	7.49969E-001	3.00390E-009	0.00000E+000	7.50000E-001	8.00223E-005	4	..........a	-327.66
	252	0.0506	7.39969E-001	3.04790E-009	0.00000E+000	7.40000E-001	8.00223E-005	4	..........a	-327.66
	253	0.0508	7.29970E-001	3.07091E-009	0.00000E+000	7.30000E-001	8.00223E-005	4	..........a	-327.66
	254	0.051	7.19769E-001	3.08191E-009	0.00000E+000	7.20000E-001	8.00223E-005	4	..........a	-327.66
	255	0.0512	7.09870E-001	3.08991E-009	0.00000E+000	7.10000E-001	8.00223E-005	4	..........a	-327.66
	256	0.0514	6.99769E-001	3.08891E-009	0.00000E+000	7.00000E-001	8.00223E-005	4	..........a	-327.66
	257	0.0516	6.89969E-001	3.07491E-009	0.00000E+000	6.90000E-001	8.00223E-005	4	..........a	-327.66
	258	0.0518	6.79869E-001	3.05791E-009	0.00000E+000	6.80000E-001	8.00223E-005	4	..........a	-327.66
	259	0.052	6.69969E-001	3.03390E-009	0.00000E+000	6.70000E-001	8.00223E-005	4	..........a	-327.66
	260	0.0522	6.59869E-001	3.00590E-009	0.00000E+000	6.60000E-001	8.00223E-005	4	..........a	-327.66
	261	0.0524	6.49870E-001	2.97890E-009	0.00000E+000	6.50000E-001	-4.19978E-004	4	..........a	-327.66
	262	0.0526	6.39820E-001	2.93790E-009	0.00000E+000	6.40000E-001	-2.19978E-004	4	..........a	-327.66
	263	0.0528	6.29869E-001	2.89790E-009	0.00000E+000	6.30000E-001	8.00223E-005	4	..........a	-327.66
	264	0.053	6.19969E-001	2.85190E-009	0.00000E+000	6.20000E-001	8.00223E-005	4	..........a	-327.66
	265	0.0532	6.09769E-001	2.80390E-009	0.00000E+000	6.10000E-001	8.00223E-005	4	..........a	-327.66
	266	0.0534	6.00069E-001	2.74789E-009	0.00000E+000	6.00000E-001	8.00223E-005	4	..........a	-327.66
	267	0.0536	5.89869E-001	2.69489E-009	0.00000E+000	5.90000E-001	8.00223E-005	4	..........a	-327.66
	268	0.0538	5.79969E-001	2.64089E-009	0.00000E+000	5.80000E-001	8.00223E-005	4	..........a	-327.66
	269	0.054	5.69969E-001	2.57789E-009	0.00000E+000	5.70000E-001	8.00223E-005	4	..........a	-327.66
	270	0.0542	5.60070E-001	2.52088E-009	0.00000E+000	5.60000E-001	8.00223E-005	4	..........a	-327.66
	271	0.0544	5.49919E-001	2.45588E-009	0.00000E+000	5.50000E-001	-3.19978E-004	4	..........a	-327.66
	272	0.0546	5.39970E-001	2.38688E-009	0.00000E+000	5.40000E-001	8.00223E-005	4	..........a	-327.66
	273	0.0548	5.29869E-001	2.31788E-009	0.00000E+000	5.30000E-001	8.00223E-005	4	..........a	-327.66
	274	0.055	5.19969E-001	2.25087E-009	0.00000E+000	5.20000E-001	8.00223E-005	4	..........a	-327.66
	275	0.0552	5.09969E-001	2.17587E-009	0.00000E+000	5.10000E-001	8.00223E-005	4	..........a	-327.66
	276	0.0554	4.99870E-001	2.10087E-009	0.00000E+000	5.00000E-001	8.00223E-005	4	..........a	-327.66
	277	0.0556	4.90070E-001	2.02387E-009	0.00000E+000	4.90000E-001	8.00223E-005	4	..........a	-327.66
	278	0.0558	4.79870E-001	1.93686E-009	0.00000E+000	4.80000E-001	8.00223E-005	4	..........a	-327.66
	279	0.056	4.69970E-001	1.85586E-009	0.00000E+000	4.70000E-001	-1.19978E-004	4	..........a	-327.66
	280	0.0562	4.60170E-001	1.76786E-009	0.00000E+000	4.60000E-001	8.00223E-005	4	..........a	-327.66
	281	0.0564	4.49620E-001	1.67885E-009	0.00000E+000	4.50000E-001	8.00223E-005	4	..........a	-327.66
	282	0.0566	4.39970E-001	1.59285E-009	0.00000E+000	4.40000E-001	8.00223E-005	4	..........a	-327.66
	283	0.0568	4.29970E-001	1.49985E-009	0.00000E+000	4.30000E-001	-2.19978E-004	4	..........a	-327.66
	284	0.057	4.20070E-001	1.40584E-009	0.00000E+000	4.20000E-001	8.00223E-005	4	..........a	-327.66
	285	0.0572	4.09870E-001	1.30484E-009	0.00000E+000	4.10000E-001	8.00223E-005	4	..........a	-327.66
	286	0.0574	3.99970E-001	1.20583E-009	0.00000E+000	4.00000E-001	8.00223E-005	4	..........a	-327.66
	287	0.0576	3.90070E-001	1.10183E-009	0.00000E+000	3.90000E-001	8.00223E-005	4	..........a	-327.66
	288	0.0578	3.80170E-001	9.95826E-010	0.00000E+000	3.80000E-001	8.00223E-005	4	..........a	-327.66
	289	0.058	3.69970E-001	8.84822E-010	0.00000E+000	3.70000E-001	8.00223E-005	4	..........a	-327.66
	290	0.0582	3.59870E-001	7.74817E-010	0.00000E+000	3.60000E-001	-3.19978E-004	4	..........a	-327.66
	291	0.0584	3.49870E-001	6.61813E-010	0.00000E+000	3.50000E-001	8.00223E-005	4	..........a	-327.66
	292	0.0586	3.40070E-001	5.45809E-010	0.00000E+000	3.40000E-001	-3.19978E-004	4	..........a	-327.66
	293	0.0588	3.29870E-001	4.22804E-010	0.00000E+000	3.30000E-001	8.00223E-005	4	..........a	-327.66
	294	0.059	3.19870E-001	3.03799E-010	0.00000E+000	3.20000E-001	8.00223E-005	4	..........a	-327.66
	295	0.0592	3.09970E-001	1.74794E-010	0.00000E+000	3.10000E-001	8.00223E-005	4	..........a	-327.66
	296	0.0594	3.00070E-001	4.37893E-011	0.00000E+000	3.00000E-001	8.00223E-005	4	..........a	-327.66
	297	0.0596	2.90070E-001	-8.72157E-011	0.00000E+000	2.90000E-001	8.00223E-005	4	..........a	-327.66
	298	0.0598	2.79870E-001	-2.23221E-010	0.00000E+000	2.80000E-001	8.00223E-005	4	..........a	-327.66
	299	0.06	2.69970E-001	-3.63226E-010	0.00000E+000	2.70000E-001	8.00223E-005	4	..........a	-327.66
	300	0.0602	2.60070E-001	-5.06232E-010	0.00000E+000	2.60000E-001	8.00223E-005	4	..........a	-327.66
	301	0.0604	2.49770E-001	-6.52237E-010	0.00000E+000	2.50000E-001	8.00223E-005	4	..........a	-327.66
	302	0.0606	2.39970E-001	-8.04243E-010	0.00000E+000	2.40000E-001	8.00223E-005	4	..........a	-327.66
	303	0.0608	2.29970E-001	-9.54249E-010	0.00000E+000	2.30000E-001	8.00223E-005	4	..........a	-327.66
	304	0.061	2.20270E-001	-1.11025E-009	0.00000E+000	2.20000E-001	-1.19978E-004	4	..........a	-327.66
	305	0.0612	2.10070E-001	-1.27026E-009	0.00000E+000	2.10000E-001	8.00223E-005	4	..........a	-327.66
	306	0.0614	2.00070E-001	-1.43227E-009	0.00000E+000	2.00000E-001	8.00223E-005	4	..........a	-327.66
	307	0.0616	1.90070E-001	-1.60427E-009	0.00000E+000	1.90000E-001	8.00223E-005	4	..........a	-327.66
	308	0.0618	1.80170E-001	-1.76928E-009	0.00000E+000	1.80000E-001	8.00223E-005	4	..........a	-327.66
	309	0.062	1.70370E-001	-1.93829E-009	0.00000E+000	1.70000E-001	8.00223E-005	4	..........a	-327.66
	310	0.0622	1.60070E-001	-2.11629E-009	0.00000E+000	1.60000E-001	-2.19978E-004	4	..........a	-327.66
	311	0.0624	1.50070E-001	-2.28830E-009	0.00000E+000	1.50000E-001	8.00223E-005	4	..........a	-327.66
	312	0.0626	1.40070E-001	-2.47231E-009	0.00000E+000	1.40000E-001	8.00223E-005	4	..........a	-327.66
	313	0.0628	1.29870E-001	-2.65031E-009	0.00000E+000	1.30000E-001	8.00223E-005	4	..........a	-327.66
	314	0.063	1.20070E-001	-2.83732E-009	0.00000E+000	1.20000E-001	8.00223E-005	4	..........a	-327.66
	315	0.0632	1.10070E-001	-3.02133E-009	0.00000E+000	1.10000E-001	8.00223E-005	4	..........a	-327.66
	316	0.0634	1.00170E-001	-3.20834E-009	0.00000E+000	1.00000E-001	8.00223E-005	4	..........a	-327.66
	317	0.0636	9.00695E-002	-3.40234E-009	0.00000E+000	9.00000E-002	8.00223E-005	4	..........a	-327.66
	318	0.0638	8.00695E-002	-3.58335E-009	0.00000E+000	8.00000E-002	8.00223E-005	4	..........a	-327.66
	319	0.064	7.01695E-002	-3.77336E-009	0.00000E+000	7.00000E-002	8.00223E-005	4	..........a	-327.66
	320	0.0642	6.03695E-002	-3.96236E-009	0.00000E+000	6.00000E-002	8.00223E-005	4	..........a	-327.66
	321	0.0644	5.00695E-002	-4.15537E-009	0.00000E+000	5.00000E-002	8.00223E-005	4	..........a	-327.66
	322	0.0646	3.98695E-002	-4.34438E-009	0.00000E+000	4.00000E-002	8.00223E-005	4	..........a	-327.66
	323	0.0648	3.00695E-002	-4.53939E-009	0.00000E+000	3.00000E-002	8.00223E-005	4	..........a	-327.66
	324	0.065	2.02695E-002	-4.72039E-009	0.00000E+000	2.00000E-002	8.00223E-005	4	..........a	-327.66
	325	0.0652	1.00695E-002	-4.90940E-009	0.00000E+000	1.00000E-002	8.00223E-005	4	..........a	-327.66
	326	0.0654	6.95192E-005	-5.09541E-009	0.00000E+000	7.45058E-009	8.00223E-005	4	..........a	-327.66
	327	0.0656	-9.93048E-003	-5.28242E-009	0.00000E+000	-1.00000E-002	8.00223E-005	4	..........a	-327.66
	328	0.0658	-1.99305E-002	-5.47042E-009	0.00000E+000	-2.00000E-002	8.00223E-005	4	..........a	-327.66
	329	0.066	-2.99305E-002	-5.65143E-009	0.00000E+000	-3.00000E-002	8.00223E-005	4	..........a	-327.66
	330	0.0662	-3.99305E-002	-5.83544E-009	0.00000E+000	-4.00000E-002	8.00223E-005	4	..........a	-327.66
	331	0.0664	-4.99305E-002	-6.01144E-009	0.00000E+000	-5.00000E-002	8.00223E-005	4	..........a	-327.66
	332	0.0666	-5.98305E-002	-6.19145E-009	0.00000E+000	-6.00000E-002	1.80022E-004	4	..........a	-327.66
	333	0.0668	-6.99305E-002	-6.36846E-009	0.00000E+000	-7.00000E-002	8.00223E-005	4	..........a	-327.66
	334	0.067	-7.99305E-002	-6.54446E-009	0.00000E+000	-8.00000E-002	8.00223E-005	4	..........a	-327.66
	335	0.0672	-9.00305E-002	-6.71847E-009	0.00000E+000	-9.00000E-002	8.00223E-005	4	..........a	-327.66
	336	0.0674	-1.00030E-001	-6.88948E-009	0.00000E+000	-1.00000E-001	8.00223E-005	4	..........a	-327.66
	337	0.0676	-1.09930E-001	-7.06348E-009	0.00000E+000	-1.10000E-001	8.00223E-005	4	..........a	-327.66
	338	0.0678	-1.20030E-001	-7.22949E-009	0.00000E+000	-1.20000E-001	8.00223E-005	4	..........a	-327.66
	339	0.068	-1.29830E-001	-7.39750E-009	0.00000E+000	-1.30000E-001	8.00223E-005	4	..........a	-327.66
	340	0.0682	-1.39730E-001	-7.56450E-009	0.00000E+000	-1.40000E-001	8.00223E-005	4	..........a	-327.66
	341	0.0684	-1.49930E-001	-7.72451E-009	0.00000E+000	-1.50000E-001	8.00223E-005	4	..........a	-327.66
	342	0.0686	-1.59930E-001	-7.89152E-009	0.00000E+000	-1.60000E-001	8.00223E-005	4	..........a	-327.66
	343	0.0688	-1.70030E-001	-8.05152E-009	0.00000E+000	-1.70000E-001	8.00223E-005	4	..........a	-327.66
	344	0.069	-1.79830E-001	-8.20953E-009	0.00000E+000	-1.80000E-001	8.00223E-005	4	..........a	-327.66
	345	0.0692	-1.89930E-001	-8.36853E-009	0.00000E+000	-1.90000E-001	8.00223E-005	4	..........a	-327.66
[...]
	2605	0.5212	-3.89930E-001	-5.51442E-009	0.00000E+000	-3.90000E-001	8.00223E-005	4	..........a	-327.66
	2606	0.5214	-3.99930E-001	-5.66143E-009	0.00000E+000	-4.00000E-001	8.00223E-005	4	..........a	-327.66
	2607	0.5216	-4.09830E-001	-5.81044E-009	0.00000E+000	-4.10000E-001	8.00223E-005	4	..........a	-327.66
	2608	0.5218	-4.19830E-001	-5.95444E-009	0.00000E+000	-4.20000E-001	8.00223E-005	4	..........a	-327.66
	2609	0.522	-4.29930E-001	-6.10045E-009	0.00000E+000	-4.30000E-001	8.00223E-005	4	..........a	-327.66
	2610	0.5222	-4.39930E-001	-6.25345E-009	0.00000E+000	-4.40000E-001	8.00223E-005	4	..........a	-327.66
	2611	0.5224	-4.49930E-001	-6.39846E-009	0.00000E+000	-4.50000E-001	8.00223E-005	4	..........a	-327.66
	2612	0.5226	-4.59730E-001	-6.55446E-009	0.00000E+000	-4.60000E-001	8.00223E-005	4	..........a	-327.66
	2613	0.5228	-4.69930E-001	-6.69847E-009	0.00000E+000	-4.70000E-001	8.00223E-005	4	..........a	-327.66
	2614	0.523	-4.79930E-001	-6.85148E-009	0.00000E+000	-4.80000E-001	8.00223E-005	4	..........a	-327.66
	2615	0.5232	-4.89930E-001	-7.00248E-009	0.00000E+000	-4.90000E-001	-3.19978E-004	4	..........a	-327.66
	2616	0.5234	-4.99830E-001	-7.16549E-009	0.00000E+000	-5.00000E-001	8.00223E-005	4	..........a	-327.66
	2617	0.5236	-5.09830E-001	-7.31549E-009	0.00000E+000	-5.10000E-001	8.00223E-005	4	..........a	-327.66
	2618	0.5238	-5.19830E-001	-7.47550E-009	0.00000E+000	-5.20000E-001	8.00223E-005	4	..........a	-327.66
	2619	0.524	-5.29930E-001	-7.63451E-009	0.00000E+000	-5.30000E-001	8.00223E-005	4	..........a	-327.66
	2620	0.5242	-5.39780E-001	-7.79851E-009	0.00000E+000	-5.40000E-001	8.00223E-005	4	..........a	-327.66
	2621	0.5244	-5.49931E-001	-7.96352E-009	0.00000E+000	-5.50000E-001	8.00223E-005	4	..........a	-327.66
	2622	0.5246	-5.59931E-001	-8.13453E-009	0.00000E+000	-5.60000E-001	8.00223E-005	4	..........a	-327.66
	2623	0.5248	-5.69830E-001	-8.30553E-009	0.00000E+000	-5.70000E-001	8.00223E-005	4	..........a	-327.66
	2624	0.525	-5.79830E-001	-8.48554E-009	0.00000E+000	-5.80000E-001	8.00223E-005	4	..........a	-327.66
	2625	0.5252	-5.89830E-001	-8.65854E-009	0.00000E+000	-5.90000E-001	8.00223E-005	4	..........a	-327.66
	2626	0.5254	-5.99730E-001	-8.84255E-009	0.00000E+000	-6.00000E-001	8.00223E-005	4	..........a	-327.66
	2627	0.5256	-5.89930E-001	-8.89455E-009	0.00000E+000	-5.90000E-001	8.00223E-005	4	..........a	-327.66
	2628	0.5258	-5.79731E-001	-8.92055E-009	0.00000E+000	-5.80000E-001	8.00223E-005	4	..........a	-327.66
	2629	0.526	-5.69930E-001	-8.93956E-009	0.00000E+000	-5.70000E-001	8.00223E-005	4	..........a	-327.66
	2630	0.5262	-5.59931E-001	-8.93856E-009	0.00000E+000	-5.60000E-001	8.00223E-005	4	..........a	-327.66
	2631	0.5264	-5.49830E-001	-8.93056E-009	0.00000E+000	-5.50000E-001	8.00223E-005	4	..........a	-327.66
	2632	0.5266	-5.39730E-001	-8.91855E-009	0.00000E+000	-5.40000E-001	8.00223E-005	4	..........a	-327.66
	2633	0.5268	-5.29831E-001	-8.90255E-009	0.00000E+000	-5.30000E-001	8.00223E-005	4	..........a	-327.66
	2634	0.527	-5.19930E-001	-8.87855E-009	0.00000E+000	-5.20000E-001	8.00223E-005	4	..........a	-327.66
	2635	0.5272	-5.09930E-001	-8.84555E-009	0.00000E+000	-5.10000E-001	8.00223E-005	4	..........a	-327.66
	2636	0.5274	-4.99830E-001	-8.81155E-009	0.00000E+000	-5.00000E-001	8.00223E-005	4	..........a	-327.66
	2637	0.5276	-4.89730E-001	-8.77055E-009	0.00000E+000	-4.90000E-001	8.00223E-005	4	..........a	-327.66
	2638	0.5278	-4.79730E-001	-8.73355E-009	0.00000E+000	-4.80000E-001	8.00223E-005	4	..........a	-327.66
	2639	0.528	-4.69830E-001	-8.69055E-009	0.00000E+000	-4.70000E-001	8.00223E-005	4	..........a	-327.66
	2640	0.5282	-4.59830E-001	-8.64654E-009	0.00000E+000	-4.60000E-001	8.00223E-005	4	..........a	-327.66
	2641	0.5284	-4.49930E-001	-8.59354E-009	0.00000E+000	-4.50000E-001	8.00223E-005	4	..........a	-327.66
	2642	0.5286	-4.39830E-001	-8.53854E-009	0.00000E+000	-4.40000E-001	8.00223E-005	4	..........a	-327.66
	2643	0.5288	-4.29830E-001	-8.48654E-009	0.00000E+000	-4.30000E-001	8.00223E-005	4	..........a	-327.66
	2644	0.529	-4.19830E-001	-8.43054E-009	0.00000E+000	-4.20000E-001	8.00223E-005	4	..........a	-327.66
	2645	0.5292	-4.09830E-001	-8.37353E-009	0.00000E+000	-4.10000E-001	8.00223E-005	4	..........a	-327.66
	2646	0.5294	-3.99930E-001	-8.31953E-009	0.00000E+000	-4.00000E-001	8.00223E-005	4	..........a	-327.66
	2647	0.5296	-3.89930E-001	-8.25153E-009	0.00000E+000	-3.90000E-001	8.00223E-005	4	..........a	-327.66
	2648	0.5298	-3.79730E-001	-8.19653E-009	0.00000E+000	-3.80000E-001	8.00223E-005	4	..........a	-327.66
	2649	0.53	-3.69930E-001	-8.13052E-009	0.00000E+000	-3.70000E-001	8.00223E-005	4	..........a	-327.66
	2650	0.5302	-3.59830E-001	-8.05652E-009	0.00000E+000	-3.60000E-001	8.00223E-005	4	..........a	-327.66
	2651	0.5304	-3.49930E-001	-7.99152E-009	0.00000E+000	-3.50000E-001	8.00223E-005	4	..........a	-327.66
	2652	0.5306	-3.39880E-001	-7.92152E-009	0.00000E+000	-3.40000E-001	8.00223E-005	4	..........a	-327.66
	2653	0.5308	-3.29930E-001	-7.85151E-009	0.00000E+000	-3.30000E-001	8.00223E-005	4	..........a	-327.66
	2654	0.531	-3.19930E-001	-7.77951E-009	0.00000E+000	-3.20000E-001	8.00223E-005	4	..........a	-327.66
	2655	0.5312	-3.09830E-001	-7.71451E-009	0.00000E+000	-3.10000E-001	8.00223E-005	4	..........a	-327.66
	2656	0.5314	-2.99830E-001	-7.63251E-009	0.00000E+000	-3.00000E-001	8.00223E-005	4	..........a	-327.66
	2657	0.5316	-2.89730E-001	-7.55850E-009	0.00000E+000	-2.90000E-001	8.00223E-005	4	..........a	-327.66
	2658	0.5318	-2.79930E-001	-7.48150E-009	0.00000E+000	-2.80000E-001	8.00223E-005	4	..........a	-327.66
	2659	0.532	-2.69830E-001	-7.40750E-009	0.00000E+000	-2.70000E-001	8.00223E-005	4	..........a	-327.66
	2660	0.5322	-2.59830E-001	-7.32849E-009	0.00000E+000	-2.60000E-001	8.00223E-005	4	..........a	-327.66
	2661	0.5324	-2.49930E-001	-7.24749E-009	0.00000E+000	-2.50000E-001	8.00223E-005	4	..........a	-327.66
	2662	0.5326	-2.39830E-001	-7.16349E-009	0.00000E+000	-2.40000E-001	-2.19978E-004	4	..........a	-327.66
	2663	0.5328	-2.29930E-001	-7.08648E-009	0.00000E+000	-2.30000E-001	8.00223E-005	4	..........a	-327.66
	2664	0.533	-2.19930E-001	-7.00248E-009	0.00000E+000	-2.20000E-001	8.00223E-005	4	..........a	-327.66
	2665	0.5332	-2.09930E-001	-6.91848E-009	0.00000E+000	-2.10000E-001	-3.19978E-004	4	..........a	-327.66
	2666	0.5334	-1.99730E-001	-6.83147E-009	0.00000E+000	-2.00000E-001	8.00223E-005	4	..........a	-327.66
	2667	0.5336	-1.89930E-001	-6.74947E-009	0.00000E+000	-1.90000E-001	8.00223E-005	4	..........a	-327.66
	2668	0.5338	-1.79830E-001	-6.66247E-009	0.00000E+000	-1.80000E-001	8.00223E-005	4	..........a	-327.66
	2669	0.534	-1.69930E-001	-6.57246E-009	0.00000E+000	-1.70000E-001	8.00223E-005	4	..........a	-327.66
	2670	0.5342	-1.60030E-001	-6.48446E-009	0.00000E+000	-1.60000E-001	8.00223E-005	4	..........a	-327.66
	2671	0.5344	-1.49830E-001	-6.39546E-009	0.00000E+000	-1.50000E-001	8.00223E-005	4	..........a	-327.66
	2672	0.5346	-1.39730E-001	-6.30645E-009	0.00000E+000	-1.40000E-001	8.00223E-005	4	..........a	-327.66
	2673	0.5348	-1.29930E-001	-6.21545E-009	0.00000E+000	-1.30000E-001	8.00223E-005	4	..........a	-327.66
	2674	0.535	-1.19830E-001	-6.11845E-009	0.00000E+000	-1.20000E-001	8.00223E-005	4	..........a	-327.66
	2675	0.5352	-1.09830E-001	-6.02844E-009	0.00000E+000	-1.10000E-001	8.00223E-005	4	..........a	-327.66
	2676	0.5354	-9.98305E-002	-5.93244E-009	0.00000E+000	-1.00000E-001	8.00223E-005	4	..........a	-327.66
	2677	0.5356	-8.98305E-002	-5.83944E-009	0.00000E+000	-9.00000E-002	8.00223E-005	4	..........a	-327.66
	2678	0.5358	-7.98305E-002	-5.74143E-009	0.00000E+000	-8.00000E-002	8.00223E-005	4	..........a	-327.66
	2679	0.536	-6.97305E-002	-5.64543E-009	0.00000E+000	-7.00000E-002	8.00223E-005	4	..........a	-327.66
	2680	0.5362	-5.98305E-002	-5.54643E-009	0.00000E+000	-6.00000E-002	8.00223E-005	4	..........a	-327.66
	2681	0.5364	-4.99305E-002	-5.44842E-009	0.00000E+000	-5.00000E-002	8.00223E-005	4	..........a	-327.66
	2682	0.5366	-3.99305E-002	-5.35142E-009	0.00000E+000	-4.00000E-002	-4.19978E-004	4	..........a	-327.66
	2683	0.5368	-3.02305E-002	-5.25041E-009	0.00000E+000	-3.00000E-002	8.00223E-005	4	..........a	-327.66
	2684	0.537	-1.97305E-002	-5.14941E-009	0.00000E+000	-2.00000E-002	8.00223E-005	4	..........a	-327.66
	2685	0.5372	-9.93048E-003	-5.05041E-009	0.00000E+000	-1.00000E-002	8.00223E-005	4	..........a	-327.66
	2686	0.5374	1.69519E-004	-4.94640E-009	0.00000E+000	7.45058E-009	8.00223E-005	4	..........a	-327.66
	2687	0.5376	1.00695E-002	-4.83840E-009	0.00000E+000	1.00000E-002	8.00223E-005	4	..........a	-327.66
	2688	0.5378	2.01695E-002	-4.73239E-009	0.00000E+000	2.00000E-002	8.00223E-005	4	..........a	-327.66
	2689	0.538	3.01695E-002	-4.62739E-009	0.00000E+000	3.00000E-002	8.00223E-005	4	..........a	-327.66
	2690	0.5382	4.00695E-002	-4.51439E-009	0.00000E+000	4.00000E-002	-3.19978E-004	4	..........a	-327.66
	2691	0.5384	5.01695E-002	-4.41438E-009	0.00000E+000	5.00000E-002	8.00223E-005	4	..........a	-327.66
	2692	0.5386	6.03695E-002	-4.30038E-009	0.00000E+000	6.00000E-002	8.00223E-005	4	..........a	-327.66
	2693	0.5388	6.98695E-002	-4.18937E-009	0.00000E+000	7.00000E-002	8.00223E-005	4	..........a	-327.66
	2694	0.539	8.01695E-002	-4.07437E-009	0.00000E+000	8.00000E-002	8.00223E-005	4	..........a	-327.66
	2695	0.5392	9.00695E-002	-3.94736E-009	0.00000E+000	9.00000E-002	8.00223E-005	4	..........a	-327.66
	2696	0.5394	1.00070E-001	-3.84436E-009	0.00000E+000	1.00000E-001	8.00223E-005	4	..........a	-327.66
	2697	0.5396	1.10170E-001	-3.72536E-009	0.00000E+000	1.10000E-001	8.00223E-005	4	..........a	-327.66
	2698	0.5398	1.19970E-001	-3.61035E-009	0.00000E+000	1.20000E-001	8.00223E-005	4	..........a	-327.66
	2699	0.54	1.30070E-001	-3.49035E-009	0.00000E+000	1.30000E-001	8.00223E-005	4	..........a	-327.66
	2700	0.5402	1.40070E-001	-3.36434E-009	0.00000E+000	1.40000E-001	8.00223E-005	4	..........a	-327.66
	2701	0.5404	1.49970E-001	-3.24334E-009	0.00000E+000	1.50000E-001	8.00223E-005	4	..........a	-327.66
	2702	0.5406	1.60070E-001	-3.11733E-009	0.00000E+000	1.60000E-001	8.00223E-005	4	..........a	-327.66
	2703	0.5408	1.70070E-001	-2.99033E-009	0.00000E+000	1.70000E-001	8.00223E-005	4	..........a	-327.66
	2704	0.541	1.80170E-001	-2.86332E-009	0.00000E+000	1.80000E-001	8.00223E-005	4	..........a	-327.66
	2705	0.5412	1.89970E-001	-2.72932E-009	0.00000E+000	1.90000E-001	8.00223E-005	4	..........a	-327.66
	2706	0.5414	2.00170E-001	-2.59831E-009	0.00000E+000	2.00000E-001	8.00223E-005	4	..........a	-327.66
	2707	0.5416	2.10070E-001	-2.46831E-009	0.00000E+000	2.10000E-001	8.00223E-005	4	..........a	-327.66
	2708	0.5418	2.19270E-001	-2.33830E-009	0.00000E+000	2.20000E-001	8.00223E-005	4	..........a	-327.66
	2709	0.542	2.30070E-001	-2.18630E-009	0.00000E+000	2.30000E-001	8.00223E-005	4	..........a	-327.66
	2710	0.5422	2.40070E-001	-2.04329E-009	0.00000E+000	2.40000E-001	8.00223E-005	4	..........a	-327.66
	2711	0.5424	2.49970E-001	-1.89729E-009	0.00000E+000	2.50000E-001	8.00223E-005	4	..........a	-327.66
	2712	0.5426	2.59870E-001	-1.75628E-009	0.00000E+000	2.60000E-001	8.00223E-005	4	..........a	-327.66
	2713	0.5428	2.70070E-001	-1.60527E-009	0.00000E+000	2.70000E-001	8.00223E-005	4	..........a	-327.66
	2714	0.543	2.80070E-001	-1.45627E-009	0.00000E+000	2.80000E-001	8.00223E-005	4	..........a	-327.66
	2715	0.5432	2.90070E-001	-1.30126E-009	0.00000E+000	2.90000E-001	8.00223E-005	4	..........a	-327.66
	2716	0.5434	2.99970E-001	-1.14626E-009	0.00000E+000	3.00000E-001	8.00223E-005	4	..........a	-327.66
	2717	0.5436	3.09970E-001	-9.86250E-010	0.00000E+000	3.10000E-001	8.00223E-005	4	..........a	-327.66
	2718	0.5438	3.20070E-001	-8.30244E-010	0.00000E+000	3.20000E-001	8.00223E-005	4	..........a	-327.66
	2719	0.544	3.29970E-001	-6.67238E-010	0.00000E+000	3.30000E-001	8.00223E-005	4	..........a	-327.66
	2720	0.5442	3.39970E-001	-5.04232E-010	0.00000E+000	3.40000E-001	8.00223E-005	4	..........a	-327.66
	2721	0.5444	3.50070E-001	-3.38225E-010	0.00000E+000	3.50000E-001	8.00223E-005	4	..........a	-327.66
	2722	0.5446	3.60070E-001	-1.71219E-010	0.00000E+000	3.60000E-001	8.00223E-005	4	..........a	-327.66
	2723	0.5448	3.69970E-001	1.78770E-012	0.00000E+000	3.70000E-001	8.00223E-005	4	..........a	-327.66
	2724	0.545	3.80070E-001	1.73794E-010	0.00000E+000	3.80000E-001	8.00223E-005	4	..........a	-327.66
	2725	0.5452	3.89870E-001	3.45801E-010	0.00000E+000	3.90000E-001	8.00223E-005	4	..........a	-327.66
	2726	0.5454	3.99870E-001	5.26808E-010	0.00000E+000	4.00000E-001	8.00223E-005	4	..........a	-327.66
	2727	0.5456	4.10070E-001	7.07815E-010	0.00000E+000	4.10000E-001	8.00223E-005	4	..........a	-327.66
	2728	0.5458	4.20070E-001	8.87822E-010	0.00000E+000	4.20000E-001	8.00223E-005	4	..........a	-327.66
	2729	0.546	4.30070E-001	1.06983E-009	0.00000E+000	4.30000E-001	8.00223E-005	4	..........a	-327.66
	2730	0.5462	4.39970E-001	1.25384E-009	0.00000E+000	4.40000E-001	8.00223E-005	4	..........a	-327.66
	2731	0.5464	4.50070E-001	1.44384E-009	0.00000E+000	4.50000E-001	8.00223E-005	4	..........a	-327.66
	2732	0.5466	4.60170E-001	1.63485E-009	0.00000E+000	4.60000E-001	8.00223E-005	4	..........a	-327.66
	2733	0.5468	4.69870E-001	1.82686E-009	0.00000E+000	4.70000E-001	8.00223E-005	4	..........a	-327.66
	2734	0.547	4.79870E-001	2.02487E-009	0.00000E+000	4.80000E-001	8.00223E-005	4	..........a	-327.66
	2735	0.5472	4.89870E-001	2.22187E-009	0.00000E+000	4.90000E-001	8.00223E-005	4	..........a	-327.66
	2736	0.5474	5.00170E-001	2.42388E-009	0.00000E+000	5.00000E-001	8.00223E-005	4	..........a	-327.66
	2737	0.5476	5.09969E-001	2.62789E-009	0.00000E+000	5.10000E-001	1.80022E-004	4	..........a	-327.66
	2738	0.5478	5.20069E-001	2.83390E-009	0.00000E+000	5.20000E-001	8.00223E-005	4	..........a	-327.66
	2739	0.548	5.29869E-001	3.04090E-009	0.00000E+000	5.30000E-001	8.00223E-005	4	..........a	-327.66
	2740	0.5482	5.40069E-001	3.24991E-009	0.00000E+000	5.40000E-001	8.00223E-005	4	..........a	-327.66
	2741	0.5484	5.49969E-001	3.46692E-009	0.00000E+000	5.50000E-001	8.00223E-005	4	..........a	-327.66
	2742	0.5486	5.60019E-001	3.68393E-009	0.00000E+000	5.60000E-001	8.00223E-005	4	..........a	-327.66
	2743	0.5488	5.70069E-001	3.90594E-009	0.00000E+000	5.70000E-001	8.00223E-005	4	..........a	-327.66
	2744	0.549	5.80069E-001	4.12995E-009	0.00000E+000	5.80000E-001	8.00223E-005	4	..........a	-327.66
	2745	0.5492	5.89969E-001	4.35295E-009	0.00000E+000	5.90000E-001	8.00223E-005	4	..........a	-327.66
	2746	0.5494	5.99769E-001	4.58296E-009	0.00000E+000	6.00000E-001	8.00223E-005	4	..........a	-327.66
	2747	0.5496	6.10070E-001	4.81797E-009	0.00000E+000	6.10000E-001	8.00223E-005	4	..........a	-327.66
	2748	0.5498	6.19969E-001	5.05798E-009	0.00000E+000	6.20000E-001	8.00223E-005	4	..........a	-327.66
	2749	0.55	6.29969E-001	5.28999E-009	0.00000E+000	6.30000E-001	8.00223E-005	4	..........a	-327.66
	2750	0.5502	6.39870E-001	5.53500E-009	0.00000E+000	6.40000E-001	8.00223E-005	4	..........a	-327.66
	2751	0.5504	6.49969E-001	5.78001E-009	0.00000E+000	6.50000E-001	8.00223E-005	4	..........a	-327.66
	2752	0.5506	6.59869E-001	6.02702E-009	0.00000E+000	6.60000E-001	8.00223E-005	4	..........a	-327.66
	2753	0.5508	6.69819E-001	6.27903E-009	0.00000E+000	6.70000E-001	-2.19978E-004	4	..........a	-327.66
	2754	0.551	6.79720E-001	6.53404E-009	0.00000E+000	6.80000E-001	8.00223E-005	4	..........a	-327.66
	2755	0.5512	6.89869E-001	6.79205E-009	0.00000E+000	6.90000E-001	8.00223E-005	4	..........a	-327.66
	2756	0.5514	6.99869E-001	7.05706E-009	0.00000E+000	7.00000E-001	8.00223E-005	4	..........a	-327.66
	2757	0.5516	7.09969E-001	7.33007E-009	0.00000E+000	7.10000E-001	8.00223E-005	4	..........a	-327.66
	2758	0.5518	7.20069E-001	7.59808E-009	0.00000E+000	7.20000E-001	8.00223E-005	4	..........a	-327.66
	2759	0.552	7.29970E-001	7.87309E-009	0.00000E+000	7.30000E-001	8.00223E-005	4	..........a	-327.66
	2760	0.5522	7.40070E-001	8.15210E-009	0.00000E+000	7.40000E-001	8.00223E-005	4	..........a	-327.66
	2761	0.5524	7.50069E-001	8.43811E-009	0.00000E+000	7.50000E-001	8.00223E-005	4	..........a	-327.66
	2762	0.5526	7.59869E-001	8.72612E-009	0.00000E+000	7.60000E-001	8.00223E-005	4	..........a	-327.66
	2763	0.5528	7.69769E-001	9.02613E-009	0.00000E+000	7.70000E-001	8.00223E-005	4	..........a	-327.66
	2764	0.553	7.79969E-001	9.32115E-009	0.00000E+000	7.80000E-001	-3.19978E-004	4	..........a	-327.66
	2765	0.5532	7.89970E-001	9.62616E-009	0.00000E+000	7.90000E-001	8.00223E-005	4	..........a	-327.66
	2766	0.5534	7.99969E-001	9.94017E-009	0.00000E+000	8.00000E-001	8.00223E-005	4	..........a	-327.66
CURVE11	TABLE
	Pt	T	Vf	Im	Vu	Sig	Ach	IERange	Over	Temp
	#	s	V vs. Ref.	A	V	V	V	#	bits	deg C
	2767	0.5536	7.89869E-001	1.01052E-008	0.00000E+000	7.90000E-001	8.00223E-005	4	..........a	-327.66
	2768	0.5538	7.79769E-001	1.02322E-008	0.00000E+000	7.80000E-001	8.00223E-005	4	..........a	-327.66
	2769	0.554	7.69969E-001	1.03212E-008	0.00000E+000	7.70000E-001	8.00223E-005	4	..........a	-327.66
	2770	0.5542	7.59869E-001	1.03862E-008	0.00000E+000	7.60000E-001	8.00223E-005	4	..........a	-327.66
	2771	0.5544	7.50069E-001	1.04252E-008	0.00000E+000	7.50000E-001	8.00223E-005	4	..........a	-327.66
	2772	0.5546	7.39969E-001	1.04542E-008	0.00000E+000	7.40000E-001	8.00223E-005	4	..........a	-327.66
	2773	0.5548	7.29869E-001	1.04602E-008	0.00000E+000	7.30000E-001	8.00223E-005	4	..........a	-327.66
	2774	0.555	7.19869E-001	1.04602E-008	0.00000E+000	7.20000E-001	8.00223E-005	4	..........a	-327.66
	2775	0.5552	7.10069E-001	1.04572E-008	0.00000E+000	7.10000E-001	8.00223E-005	4	..........a	-327.66
	2776	0.5554	6.99769E-001	1.04342E-008	0.00000E+000	7.00000E-001	8.00223E-005	4	..........a	-327.66
	2777	0.5556	6.89869E-001	1.04072E-008	0.00000E+000	6.90000E-001	8.00223E-005	4	..........a	-327.66
	2778	0.5558	6.79869E-001	1.03782E-008	0.00000E+000	6.80000E-001	8.00223E-005	4	..........a	-327.66
	2779	0.556	6.69869E-001	1.03342E-008	0.00000E+000	6.70000E-001	8.00223E-005	4	..........a	-327.66
	2780	0.5562	6.59970E-001	1.02892E-008	0.00000E+000	6.60000E-001	8.00223E-005	4	..........a	-327.66
	2781	0.5564	6.49669E-001	1.02382E-008	0.00000E+000	6.50000E-001	8.00223E-005	4	..........a	-327.66
	2782	0.5566	6.39870E-001	1.01882E-008	0.00000E+000	6.40000E-001	8.00223E-005	4	..........a	-327.66
	2783	0.5568	6.29969E-001	1.01322E-008	0.00000E+000	6.30000E-001	8.00223E-005	4	..........a	-327.66
	2784	0.557	6.19669E-001	1.00662E-008	0.00000E+000	6.20000E-001	8.00223E-005	4	..........a	-327.66
	2785	0.5572	6.09819E-001	1.00022E-008	0.00000E+000	6.10000E-001	8.00223E-005	4	..........a	-327.66
	2786	0.5574	6.00069E-001	9.93317E-009	0.00000E+000	6.00000E-001	8.00223E-005	4	..........a	-327.66
	2787	0.5576	5.89969E-001	9.86117E-009	0.00000E+000	5.90000E-001	8.00223E-005	4	..........a	-327.66
	2788	0.5578	5.79870E-001	9.78816E-009	0.00000E+000	5.80000E-001	8.00223E-005	4	..........a	-327.66
	2789	0.558	5.69770E-001	9.70716E-009	0.00000E+000	5.70000E-001	8.00223E-005	4	..........a	-327.66
	2790	0.5582	5.59969E-001	9.62616E-009	0.00000E+000	5.60000E-001	8.00223E-005	4	..........a	-327.66
	2791	0.5584	5.49869E-001	9.54815E-009	0.00000E+000	5.50000E-001	8.00223E-005	4	..........a	-327.66
	2792	0.5586	5.39769E-001	9.45615E-009	0.00000E+000	5.40000E-001	8.00223E-005	4	..........a	-327.66
	2793	0.5588	5.30069E-001	9.37215E-009	0.00000E+000	5.30000E-001	8.00223E-005	4	..........a	-327.66
	2794	0.559	5.19969E-001	9.27614E-009	0.00000E+000	5.20000E-001	8.00223E-005	4	..........a	-327.66
	2795	0.5592	5.09870E-001	9.18414E-009	0.00000E+000	5.10000E-001	8.00223E-005	4	..........a	-327.66
	2796	0.5594	5.00170E-001	9.08814E-009	0.00000E+000	5.00000E-001	8.00223E-005	4	..........a	-327.66
	2797	0.5596	4.90070E-001	8.98913E-009	0.00000E+000	4.90000E-001	8.00223E-005	4	..........a	-327.66
	2798	0.5598	4.79720E-001	8.89213E-009	0.00000E+000	4.80000E-001	8.00223E-005	4	..........a	-327.66
	2799	0.56	4.69870E-001	8.78212E-009	0.00000E+000	4.70000E-001	8.00223E-005	4	..........a	-327.66
	2800	0.5602	4.59970E-001	8.68312E-009	0.00000E+000	4.60000E-001	8.00223E-005	4	..........a	-327.66