File: data/raw/batch_data/20240424_ZA_GM0016_HL03_E07_CV50.DTA
EXPLAIN
TAG	CV
TITLE	LABEL	Cyclic Voltammetry	Test &Identifier
DATE	LABEL	4/24/2024	Date
TIME	LABEL	18:14:01	Time
NOTES	NOTES	1	&Notes...

PSTAT	PSTAT	REF600P-43058	Potentiostat
VINIT	POTEN	0.00000E+000	T	Initial &E (V)
VLIMIT1	POTEN	-6.00000E-001	F	Scan Limit &1 (V)
VLIMIT2	POTEN	8.00000E-001	F	Scan Limit &2 (V)
VFINAL	POTEN	0.00000E+000	T	Final &E (V)
SCANRATE	QUANT	4.99999E+001	&Scan Rate (mV/s)
STEPSIZE	QUANT	1.00000E+001	St&ep Size (mV)
CYCLES	IQUANT	4	C&ycles (#)
IMODE	SELECTOR	0	I/E Range &Mode
IRANGE	QUANT	1.00000E-005	&Max Current (mA)
AREA	QUANT	1.00000E+000	Electrode &Area (cm^2)
ELECTRODETYPE	SELECTOR	0	Electrode Type
STRIPPING	TOGGLE	F	Used for Stripping
POLARITY	TOGGLE	F	Signal Polarity
CONDIT	TWOPARAM	F	1.50000E+001	0.00000E+000	Conditionin&g	Time(s)	E(V)
DELAY	TWOPARAM	T	1.00000E+001	0.00000E+000	Init. De&lay	Time(s)	Stab.(mV/s)
EQDELAY	QUANT	1.00000E+001	Equil. &Time (s)
IRCOMP	SELECTOR	0	IRCom&p
PFCOR	QUANT	5.00000E+001	PF Corr. (ohm)
SAMPLINGMODE	SELECTOR	1	Sampling &Mode
OCVCURVE	TABLE	39
	Pt	T	Vf	Vm	Ach	Over	Temp
	#	s	V vs. Ref.	V	V	bits	deg C
	0	0.258333	-5.58859E-002	-5.58859E-002	2.33259E-004	..........a	-327.66
	1	0.516667	-5.58895E-002	-5.60745E-002	2.30392E-004	..........a	-327.66
	2	0.775	-5.59117E-002	-5.62569E-002	2.49726E-004	..........a	-327.66
	3	1.03333	-5.59749E-002	-5.64436E-002	2.42526E-004	..........a	-327.66
	4	1.29167	-5.60896E-002	-5.66292E-002	2.42592E-004	..........a	-327.66
	5	1.55	-5.62455E-002	-5.68119E-002	2.47059E-004	..........a	-327.66
	6	1.80833	-5.64235E-002	-5.69859E-002	2.41592E-004	..........a	-327.66
	7	2.06667	-5.66083E-002	-5.71678E-002	2.30726E-004	..........a	-327.66
	8	2.325	-5.67925E-002	-5.73561E-002	2.40459E-004	..........a	-327.66
	9	2.58333	-5.69750E-002	-5.75427E-002	2.14192E-004	..........a	-327.66
	10	2.84167	-5.71574E-002	-5.77088E-002	2.45992E-004	..........a	-327.66
	11	3.1	-5.73395E-002	-5.78802E-002	2.39992E-004	..........a	-327.66
	12	3.35833	-5.75191E-002	-5.80576E-002	2.36926E-004	..........a	-327.66
	13	3.61667	-5.76954E-002	-5.82328E-002	2.28926E-004	..........a	-327.66
	14	3.875	-5.78699E-002	-5.84030E-002	2.29792E-004	..........a	-327.66
	15	4.13333	-5.80436E-002	-5.85691E-002	2.37126E-004	..........a	-327.66
	16	4.39167	-5.82162E-002	-5.87346E-002	2.46392E-004	..........a	-327.66
	17	4.65	-5.83868E-002	-5.89007E-002	2.34659E-004	..........a	-327.66
	18	4.90833	-5.85552E-002	-5.90660E-002	2.47726E-004	..........a	-327.66
	19	5.16667	-5.87219E-002	-5.92295E-002	2.53326E-004	..........a	-327.66
	20	5.425	-5.88874E-002	-5.93914E-002	2.39126E-004	..........a	-327.66
	21	5.68333	-5.90520E-002	-5.95495E-002	2.52459E-004	..........a	-327.66
	22	5.94167	-5.92152E-002	-5.97073E-002	2.46059E-004	..........a	-327.66
	23	6.2	-5.93767E-002	-5.98654E-002	2.51126E-004	..........a	-327.66
	24	6.45833	-5.95364E-002	-6.00163E-002	2.46059E-004	..........a	-327.66
	25	6.71667	-5.96944E-002	-6.01803E-002	2.41792E-004	..........a	-327.66
	26	6.975	-5.98512E-002	-6.03204E-002	2.36926E-004	..........a	-327.66
	27	7.23333	-6.00065E-002	-6.04616E-002	2.30726E-004	..........a	-327.66
	28	7.49167	-6.01585E-002	-6.06027E-002	2.28126E-004	..........a	-327.66
	29	7.75	-6.03063E-002	-6.07440E-002	2.43992E-004	..........a	-327.66
	30	8.00833	-6.04503E-002	-6.08828E-002	2.27459E-004	..........a	-327.66
	31	8.26667	-6.05917E-002	-6.10107E-002	2.28859E-004	..........a	-327.66
	32	8.525	-6.07308E-002	-6.11427E-002	2.40392E-004	..........a	-327.66
	33	8.78333	-6.08673E-002	-6.12830E-002	2.30926E-004	..........a	-327.66
	34	9.04167	-6.10019E-002	-6.14135E-002	2.33126E-004	..........a	-327.66
	35	9.3	-6.11358E-002	-6.15488E-002	2.41059E-004	..........a	-327.66
	36	9.5583	-6.12699E-002	-6.16827E-002	2.32926E-004	..........a	-327.66
	37	9.8167	-6.14039E-002	-6.18090E-002	2.34926E-004	..........a	-327.66
	38	10.075	-6.15373E-002	-6.19429E-002	2.37126E-004	..........a	-327.66
EOC	QUANT	-0.0615373	Open Circuit (V)
PSTATMODEL	IQUANT	7	Pstat Model
PSTATSECTION	LABEL	REF600P-43058	Pstat Section
PSTATSERIALNO	LABEL	43058	Pstat Serial Number
CTRLMODE	IQUANT	1	Control Mode
ELECTROMETER	IQUANT	0	RE=0 or CS=1
IESTAB	IQUANT	2	I/E Stability
CASPEED	IQUANT	4	Control Amp Speed
CONVENTION	IQUANT	1	Current Convention
ICHRANGE	IQUANT	2	Ich Range
ICHRANGEMODE	TOGGLE	F	Ich Auto Range
ICHOFFSETENABLE	TOGGLE	F	Ich Offset Enable
ICHOFFSET	QUANT	0	Ich Offset (V)
ICHFILTER	IQUANT	2	Ich Filter
VCHRANGE	IQUANT	2	Vch Range
VCHRANGEMODE	TOGGLE	F	Vch Auto Range
VCHOFFSETENABLE	TOGGLE	F	Vch Offset Enable
VCHOFFSET	QUANT	0	Vch Offset (V)
VCHFILTER	IQUANT	2	Vch Filter
ACHRANGE	IQUANT	2	Ach Range
ACHOFFSETENABLE	TOGGLE	F	Ach Offset Enable
ACHOFFSET	QUANT	0	Ach Offset (V)
ACHFILTER	IQUANT	1	Ach Filter
IERANGELOWERLIMIT	IQUANT	1	I/E Range Lower Limit
IERANGEMODE	TOGGLE	T	I/E AutoRange
IERANGE	IQUANT	4	I/E Range
POSFEEDENABLE	TOGGLE	F	Positive Feedback IR Comp
POSFEEDRESISTANCE	QUANT	0	Positive Feedback Resistance (ohm)
ACHSELECT	IQUANT	4	Ach Select
SENSECABLEID	IQUANT	7	Sense Cable ID
PWRCABLEID	IQUANT	7	Power Cable ID
DCCALDATE	LABEL	3/22/2024	DC Calibration Date
ACCALDATE	LABEL	3/22/2024	AC Calibration Date
THERMOSELECT	IQUANT	1	Thermo Select
FRAMEWORKVERSION	LABEL	7.8.4	Framework Version
INSTRUMENTVERSION	LABEL	4.42	Instrument Version
CURVE1	TABLE
	Pt	T	Vf	Im	Vu	Sig	Ach	IERange	Over	Temp
	#	s	V vs. Ref.	A	V	V	V	#	bits	deg C
	0	0.2	-6.14457E-002	9.30331E-010	0.00000E+000	-6.15500E-002	9.79892E-004	5	..........a	-327.66
	1	0.4	-7.15348E-002	-2.02172E-009	0.00000E+000	-7.15500E-002	9.76592E-004	5	..........a	-327.66
	2	0.6	-8.14736E-002	-4.15735E-009	0.00000E+000	-8.15500E-002	9.80192E-004	5	..........a	-327.66
	3	0.8	-9.14841E-002	-6.02443E-009	0.00000E+000	-9.15500E-002	9.77492E-004	5	..........a	-327.66
	4	1	-1.01490E-001	-7.70171E-009	0.00000E+000	-1.01550E-001	9.93292E-004	5	..........a	-327.66
	5	1.2	-1.11484E-001	-9.26751E-009	0.00000E+000	-1.11550E-001	9.82392E-004	5	..........a	-327.66
	6	1.4	-1.21496E-001	-1.07797E-008	0.00000E+000	-1.21550E-001	9.70192E-004	5	..........a	-327.66
	7	1.6	-1.31526E-001	-1.22115E-008	0.00000E+000	-1.31550E-001	9.97192E-004	5	..........a	-327.66
	8	1.8	-1.41472E-001	-1.36069E-008	0.00000E+000	-1.41550E-001	9.77292E-004	5	..........a	-327.66
	9	2	-1.51496E-001	-1.49985E-008	0.00000E+000	-1.51550E-001	9.95592E-004	5	..........a	-327.66
	10	2.2	-1.61511E-001	-1.63422E-008	0.00000E+000	-1.61550E-001	9.71092E-004	5	..........a	-327.66
	11	2.4	-1.71490E-001	-1.76704E-008	0.00000E+000	-1.71550E-001	9.79292E-004	5	..........a	-327.66
	12	2.6	-1.81434E-001	-1.89460E-008	0.00000E+000	-1.81550E-001	9.70992E-004	5	..........a	-327.66
	13	2.8	-1.91492E-001	-2.02529E-008	0.00000E+000	-1.91550E-001	9.81292E-004	5	..........a	-327.66
	14	3	-2.01515E-001	-2.15340E-008	0.00000E+000	-2.01550E-001	9.82792E-004	5	..........a	-327.66
	15	3.2	-2.11506E-001	-2.27831E-008	0.00000E+000	-2.11550E-001	9.88992E-004	5	..........a	-327.66
	16	3.4	-2.21425E-001	-2.40112E-008	0.00000E+000	-2.21550E-001	9.74492E-004	5	..........a	-327.66
	17	3.6	-2.31472E-001	-2.52534E-008	0.00000E+000	-2.31550E-001	9.85792E-004	5	..........a	-327.66
	18	3.8	-2.41338E-001	-2.65030E-008	0.00000E+000	-2.41550E-001	9.94292E-004	5	..........a	-327.66
	19	4	-2.51482E-001	-2.77534E-008	0.00000E+000	-2.51550E-001	9.82692E-004	5	..........a	-327.66
	20	4.2	-2.61356E-001	-2.89912E-008	0.00000E+000	-2.61550E-001	9.83692E-004	5	..........a	-327.66
	21	4.4	-2.71440E-001	-3.02835E-008	0.00000E+000	-2.71550E-001	9.89792E-004	5	..........a	-327.66
	22	4.6	-2.81475E-001	-3.15768E-008	0.00000E+000	-2.81550E-001	9.85292E-004	5	..........a	-327.66
	23	4.8	-2.91452E-001	-3.29048E-008	0.00000E+000	-2.91550E-001	9.93192E-004	5	..........a	-327.66
	24	5	-3.01413E-001	-3.42489E-008	0.00000E+000	-3.01550E-001	9.79292E-004	5	..........a	-327.66
	25	5.2	-3.11457E-001	-3.55914E-008	0.00000E+000	-3.11550E-001	9.99792E-004	5	..........a	-327.66
	26	5.4	-3.21429E-001	-3.69834E-008	0.00000E+000	-3.21550E-001	9.78092E-004	5	..........a	-327.66
	27	5.6	-3.31469E-001	-3.84095E-008	0.00000E+000	-3.31550E-001	1.00149E-003	5	..........a	-327.66
	28	5.8	-3.41357E-001	-3.98630E-008	0.00000E+000	-3.41550E-001	1.00799E-003	5	..........a	-327.66
	29	6	-3.51445E-001	-4.14081E-008	0.00000E+000	-3.51550E-001	1.00939E-003	5	..........a	-327.66
	30	6.2	-3.61452E-001	-4.28814E-008	0.00000E+000	-3.61550E-001	9.85492E-004	5	..........a	-327.66
	31	6.4	-3.71447E-001	-4.43856E-008	0.00000E+000	-3.71550E-001	9.69292E-004	5	..........a	-327.66
	32	6.6	-3.81396E-001	-4.59378E-008	0.00000E+000	-3.81550E-001	9.68992E-004	5	..........a	-327.66
	33	6.8	-3.91471E-001	-4.74962E-008	0.00000E+000	-3.91550E-001	9.66592E-004	5	..........a	-327.66
	34	7	-4.01430E-001	-4.90457E-008	0.00000E+000	-4.01550E-001	9.85092E-004	5	..........a	-327.66
	35	7.2	-4.11427E-001	-5.05822E-008	0.00000E+000	-4.11550E-001	9.94592E-004	5	..........a	-327.66
	36	7.4	-4.21350E-001	-5.21657E-008	0.00000E+000	-4.21550E-001	9.73792E-004	5	..........a	-327.66
	37	7.6	-4.31435E-001	-5.37066E-008	0.00000E+000	-4.31550E-001	9.87892E-004	5	..........a	-327.66
	38	7.8	-4.41417E-001	-5.52552E-008	0.00000E+000	-4.41550E-001	9.82792E-004	5	..........a	-327.66
	39	8	-4.51415E-001	-5.68172E-008	0.00000E+000	-4.51550E-001	9.76392E-004	5	..........a	-327.66
	40	8.2	-4.61322E-001	-5.83514E-008	0.00000E+000	-4.61550E-001	9.81692E-004	5	..........a	-327.66
	41	8.4	-4.71454E-001	-5.99022E-008	0.00000E+000	-4.71550E-001	9.97692E-004	5	..........a	-327.66
	42	8.6	-4.81411E-001	-6.14664E-008	0.00000E+000	-4.81550E-001	9.82592E-004	5	..........a	-327.66
	43	8.8	-4.91426E-001	-6.30040E-008	0.00000E+000	-4.91550E-001	9.98792E-004	5	..........a	-327.66
	44	9	-5.01377E-001	-6.45470E-008	0.00000E+000	-5.01550E-001	9.68092E-004	5	..........a	-327.66
	45	9.2	-5.11431E-001	-6.61460E-008	0.00000E+000	-5.11550E-001	1.00269E-003	5	..........a	-327.66
	46	9.4	-5.21405E-001	-6.77147E-008	0.00000E+000	-5.21550E-001	9.83292E-004	5	..........a	-327.66
	47	9.6	-5.31424E-001	-6.93107E-008	0.00000E+000	-5.31550E-001	9.84992E-004	5	..........a	-327.66
	48	9.8	-5.41315E-001	-7.09350E-008	0.00000E+000	-5.41550E-001	9.82492E-004	5	..........a	-327.66
	49	10	-5.51421E-001	-7.26211E-008	0.00000E+000	-5.51550E-001	1.00329E-003	5	..........a	-327.66
	50	10.2	-5.61453E-001	-7.43396E-008	0.00000E+000	-5.61550E-001	9.98992E-004	5	..........a	-327.66
	51	10.4	-5.71435E-001	-7.61058E-008	0.00000E+000	-5.71550E-001	1.00509E-003	5	..........a	-327.66
	52	10.6	-5.81369E-001	-7.79079E-008	0.00000E+000	-5.81550E-001	9.75492E-004	5	..........a	-327.66
	53	10.8	-5.91425E-001	-7.98297E-008	0.00000E+000	-5.91550E-001	9.74192E-004	5	..........a	-327.66
	54	11	-6.01408E-001	-8.18289E-008	0.00000E+000	-6.01550E-001	9.97692E-004	5	..........a	-327.66
	55	11.2	-5.91417E-001	-7.07321E-008	0.00000E+000	-5.91550E-001	9.72292E-004	5	..........a	-327.66
	56	11.4	-5.81376E-001	-6.34938E-008	0.00000E+000	-5.81550E-001	9.79592E-004	5	..........a	-327.66
	57	11.6	-5.71447E-001	-5.79125E-008	0.00000E+000	-5.71550E-001	9.99792E-004	5	..........a	-327.66
	58	11.8	-5.61458E-001	-5.32626E-008	0.00000E+000	-5.61550E-001	1.01869E-003	5	..........a	-327.66
	59	12	-5.51427E-001	-4.92597E-008	0.00000E+000	-5.51550E-001	1.00339E-003	5	..........a	-327.66
	60	12.2	-5.41372E-001	-4.56830E-008	0.00000E+000	-5.41550E-001	9.95092E-004	5	..........a	-327.66
	61	12.4	-5.31441E-001	-4.24994E-008	0.00000E+000	-5.31550E-001	9.83792E-004	5	..........a	-327.66
	62	12.6	-5.21367E-001	-3.95170E-008	0.00000E+000	-5.21550E-001	9.97592E-004	5	..........a	-327.66
	63	12.8	-5.11440E-001	-3.68100E-008	0.00000E+000	-5.11550E-001	9.96592E-004	5	..........a	-327.66
	64	13	-5.01403E-001	-3.42301E-008	0.00000E+000	-5.01550E-001	9.87392E-004	5	..........a	-327.66
	65	13.2	-4.91447E-001	-3.18953E-008	0.00000E+000	-4.91550E-001	9.77992E-004	5	..........a	-327.66
	66	13.4	-4.81451E-001	-2.96362E-008	0.00000E+000	-4.81550E-001	9.89292E-004	5	..........a	-327.66
	67	13.6	-4.71423E-001	-2.74850E-008	0.00000E+000	-4.71550E-001	9.70092E-004	5	..........a	-327.66
	68	13.8	-4.61342E-001	-2.54439E-008	0.00000E+000	-4.61550E-001	9.80592E-004	5	..........a	-327.66
	69	14	-4.51423E-001	-2.35102E-008	0.00000E+000	-4.51550E-001	9.72892E-004	5	..........a	-327.66
	70	14.2	-4.41437E-001	-2.16399E-008	0.00000E+000	-4.41550E-001	9.99092E-004	5	..........a	-327.66
	71	14.4	-4.31430E-001	-1.98273E-008	0.00000E+000	-4.31550E-001	9.76192E-004	5	..........a	-327.66
	72	14.6	-4.21337E-001	-1.81112E-008	0.00000E+000	-4.21550E-001	9.92892E-004	5	..........a	-327.66
	73	14.8	-4.11451E-001	-1.64239E-008	0.00000E+000	-4.11550E-001	1.00069E-003	5	..........a	-327.66
	74	15	-4.01426E-001	-1.48173E-008	0.00000E+000	-4.01550E-001	9.86992E-004	5	..........a	-327.66
	75	15.2	-3.91459E-001	-1.32522E-008	0.00000E+000	-3.91550E-001	9.95692E-004	5	..........a	-327.66
	76	15.4	-3.81391E-001	-1.17353E-008	0.00000E+000	-3.81550E-001	9.68092E-004	5	..........a	-327.66
	77	15.6	-3.71445E-001	-1.03236E-008	0.00000E+000	-3.71550E-001	9.85192E-004	5	..........a	-327.66
	78	15.8	-3.61460E-001	-8.83768E-009	0.00000E+000	-3.61550E-001	9.99492E-004	5	..........a	-327.66
	79	16	-3.51486E-001	-7.49572E-009	0.00000E+000	-3.51550E-001	9.80092E-004	5	..........a	-327.66
	80	16.2	-3.41407E-001	-6.14285E-009	0.00000E+000	-3.41550E-001	9.95292E-004	5	..........a	-327.66
	81	16.4	-3.31446E-001	-4.82977E-009	0.00000E+000	-3.31550E-001	9.76692E-004	5	..........a	-327.66
	82	16.6	-3.21441E-001	-3.51809E-009	0.00000E+000	-3.21550E-001	9.98092E-004	5	..........a	-327.66
	83	16.8	-3.11491E-001	-2.34146E-009	0.00000E+000	-3.11550E-001	9.93992E-004	5	..........a	-327.66
	84	17	-3.01436E-001	-1.14267E-009	0.00000E+000	-3.01550E-001	9.91592E-004	5	..........a	-327.66
	85	17.2	-2.91449E-001	1.33170E-011	0.00000E+000	-2.91550E-001	9.79092E-004	5	..........a	-327.66
	86	17.4	-2.81570E-001	1.22227E-009	0.00000E+000	-2.81550E-001	9.81892E-004	5	..........a	-327.66
	87	17.6	-2.71477E-001	2.32948E-009	0.00000E+000	-2.71550E-001	9.88992E-004	5	..........a	-327.66
	88	17.8	-2.61383E-001	3.43462E-009	0.00000E+000	-2.61550E-001	9.77692E-004	5	..........a	-327.66
	89	18	-2.51484E-001	4.53082E-009	0.00000E+000	-2.51550E-001	9.76192E-004	5	..........a	-327.66
	90	18.2	-2.41425E-001	5.57581E-009	0.00000E+000	-2.41550E-001	9.77092E-004	5	..........a	-327.66
	91	18.4	-2.31487E-001	6.64858E-009	0.00000E+000	-2.31550E-001	9.83992E-004	5	..........a	-327.66
	92	18.6	-2.21457E-001	7.66705E-009	0.00000E+000	-2.21550E-001	9.77492E-004	5	..........a	-327.66
	93	18.8	-2.11517E-001	8.68058E-009	0.00000E+000	-2.11550E-001	9.80692E-004	5	..........a	-327.66
	94	19	-2.01547E-001	9.68409E-009	0.00000E+000	-2.01550E-001	9.87092E-004	5	..........a	-327.66
	95	19.2	-1.91514E-001	1.06436E-008	0.00000E+000	-1.91550E-001	9.94192E-004	5	..........a	-327.66
	96	19.4	-1.81465E-001	1.16406E-008	0.00000E+000	-1.81550E-001	9.82592E-004	5	..........a	-327.66
	97	19.6	-1.71509E-001	1.25935E-008	0.00000E+000	-1.71550E-001	9.84692E-004	5	..........a	-327.66
	98	19.8	-1.61598E-001	1.35395E-008	0.00000E+000	-1.61550E-001	9.91692E-004	5	..........a	-327.66
	99	20	-1.51540E-001	1.44988E-008	0.00000E+000	-1.51550E-001	9.87392E-004	5	..........a	-327.66
	100	20.2	-1.41504E-001	1.54046E-008	0.00000E+000	-1.41550E-001	9.88492E-004	5	..........a	-327.66
	101	20.4	-1.31547E-001	1.63368E-008	0.00000E+000	-1.31550E-001	9.85892E-004	5	..........a	-327.66
	102	20.6	-1.21540E-001	1.72646E-008	0.00000E+000	-1.21550E-001	1.00949E-003	5	..........a	-327.66
	103	20.8	-1.11504E-001	1.81673E-008	0.00000E+000	-1.11550E-001	9.95992E-004	5	..........a	-327.66
	104	21	-1.01512E-001	1.90781E-008	0.00000E+000	-1.01550E-001	9.86892E-004	5	..........a	-327.66
	105	21.2	-9.14758E-002	2.00110E-008	0.00000E+000	-9.15500E-002	9.93292E-004	5	..........a	-327.66
	106	21.4	-8.15342E-002	2.09069E-008	0.00000E+000	-8.15500E-002	9.94192E-004	5	..........a	-327.66
	107	21.6	-7.15084E-002	2.18214E-008	0.00000E+000	-7.15500E-002	9.88692E-004	5	..........a	-327.66
	108	21.8	-6.17235E-002	2.27431E-008	0.00000E+000	-6.15500E-002	9.77492E-004	5	..........a	-327.66
	109	22	-5.15679E-002	2.36808E-008	0.00000E+000	-5.15500E-002	1.00069E-003	5	..........a	-327.66
	110	22.2	-4.15243E-002	2.46144E-008	0.00000E+000	-4.15500E-002	9.87792E-004	5	..........a	-327.66
	111	22.4	-3.15890E-002	2.55566E-008	0.00000E+000	-3.15500E-002	9.87692E-004	5	..........a	-327.66
	112	22.6	-2.14940E-002	2.65369E-008	0.00000E+000	-2.15500E-002	9.76192E-004	5	..........a	-327.66
	113	22.8	-1.15003E-002	2.75045E-008	0.00000E+000	-1.15500E-002	9.91892E-004	5	..........a	-327.66
	114	23	-1.60986E-003	2.84961E-008	0.00000E+000	-1.55000E-003	1.00879E-003	5	..........a	-327.66
	115	23.2	8.49389E-003	2.94919E-008	0.00000E+000	8.45000E-003	9.86292E-004	5	..........a	-327.66
	116	23.4	1.85920E-002	3.04932E-008	0.00000E+000	1.84500E-002	9.88892E-004	5	..........a	-327.66
	117	23.6	2.84617E-002	3.15204E-008	0.00000E+000	2.84500E-002	1.00159E-003	5	..........a	-327.66
	118	23.8	3.85226E-002	3.25687E-008	0.00000E+000	3.84500E-002	9.87492E-004	5	..........a	-327.66
	119	24	4.84306E-002	3.35897E-008	0.00000E+000	4.84500E-002	9.76092E-004	5	..........a	-327.66
	120	24.2	5.85034E-002	3.45390E-008	0.00000E+000	5.84500E-002	9.74792E-004	5	..........a	-327.66
	121	24.4	6.84309E-002	3.55708E-008	0.00000E+000	6.84500E-002	9.98092E-004	5	..........a	-327.66
	122	24.6	7.84663E-002	3.66182E-008	0.00000E+000	7.84500E-002	1.00449E-003	5	..........a	-327.66
	123	24.8	8.85114E-002	3.76750E-008	0.00000E+000	8.84500E-002	1.01719E-003	5	..........a	-327.66
	124	25	9.85638E-002	3.87190E-008	0.00000E+000	9.84500E-002	9.62092E-004	5	..........a	-327.66
	125	25.2	1.08475E-001	3.97609E-008	0.00000E+000	1.08450E-001	9.96692E-004	5	..........a	-327.66
	126	25.4	1.18446E-001	4.08386E-008	0.00000E+000	1.18450E-001	9.96292E-004	5	..........a	-327.66
	127	25.6	1.28421E-001	4.19578E-008	0.00000E+000	1.28450E-001	9.98092E-004	5	..........a	-327.66
	128	25.8	1.38525E-001	4.31474E-008	0.00000E+000	1.38450E-001	9.89592E-004	5	..........a	-327.66
	129	26	1.48457E-001	4.46158E-008	0.00000E+000	1.48450E-001	9.83292E-004	5	..........a	-327.66
	130	26.2	1.58439E-001	4.63501E-008	0.00000E+000	1.58450E-001	1.01549E-003	5	..........a	-327.66
	131	26.4	1.68174E-001	4.80130E-008	0.00000E+000	1.68450E-001	9.79692E-004	5	..........a	-327.66
	132	26.6	1.78528E-001	4.94135E-008	0.00000E+000	1.78450E-001	9.81792E-004	5	..........a	-327.66
	133	26.8	1.88505E-001	5.05962E-008	0.00000E+000	1.88450E-001	1.00319E-003	5	..........a	-327.66
	134	27	1.98419E-001	5.15881E-008	0.00000E+000	1.98450E-001	9.89092E-004	5	..........a	-327.66
	135	27.2	2.08416E-001	5.25575E-008	0.00000E+000	2.08450E-001	9.91492E-004	5	..........a	-327.66
	136	27.4	2.18504E-001	5.35632E-008	0.00000E+000	2.18450E-001	9.78892E-004	5	..........a	-327.66
	137	27.6	2.28380E-001	5.46430E-008	0.00000E+000	2.28450E-001	1.00889E-003	5	..........a	-327.66
	138	27.8	2.38438E-001	5.58240E-008	0.00000E+000	2.38450E-001	9.93692E-004	5	..........a	-327.66
	139	28	2.48428E-001	5.70941E-008	0.00000E+000	2.48450E-001	9.94692E-004	5	..........a	-327.66
	140	28.2	2.58467E-001	5.84382E-008	0.00000E+000	2.58450E-001	9.79792E-004	5	..........a	-327.66
	141	28.4	2.68468E-001	5.98594E-008	0.00000E+000	2.68450E-001	9.89892E-004	5	..........a	-327.66
	142	28.6	2.78391E-001	6.14297E-008	0.00000E+000	2.78450E-001	1.00959E-003	5	..........a	-327.66
	143	28.8	2.88429E-001	6.31435E-008	0.00000E+000	2.88450E-001	9.81692E-004	5	..........a	-327.66
	144	29	2.98501E-001	6.49885E-008	0.00000E+000	2.98450E-001	9.88592E-004	5	..........a	-327.66
	145	29.2	3.08468E-001	6.70397E-008	0.00000E+000	3.08450E-001	9.95092E-004	5	..........a	-327.66
	146	29.4	3.18417E-001	6.93447E-008	0.00000E+000	3.18450E-001	9.96292E-004	5	..........a	-327.66
	147	29.6	3.28418E-001	7.18402E-008	0.00000E+000	3.28450E-001	9.91792E-004	5	..........a	-327.66
	148	29.8	3.38438E-001	7.46349E-008	0.00000E+000	3.38450E-001	9.83592E-004	5	..........a	-327.66
	149	30	3.48483E-001	7.75775E-008	0.00000E+000	3.48450E-001	1.01219E-003	5	..........a	-327.66
	150	30.2	3.58369E-001	8.06592E-008	0.00000E+000	3.58450E-001	1.00369E-003	5	..........a	-327.66
	151	30.4	3.68437E-001	8.38969E-008	0.00000E+000	3.68450E-001	9.87492E-004	5	..........a	-327.66
	152	30.6	3.78467E-001	8.72099E-008	0.00000E+000	3.78450E-001	1.01159E-003	5	..........a	-327.66
	153	30.8	3.88403E-001	9.06549E-008	0.00000E+000	3.88450E-001	9.89992E-004	5	..........a	-327.66
	154	31	3.98401E-001	9.41359E-008	0.00000E+000	3.98450E-001	9.84292E-004	5	..........a	-327.66
	155	31.2	4.08403E-001	9.76556E-008	0.00000E+000	4.08450E-001	1.00409E-003	5	..........a	-327.66
	156	31.4	4.18424E-001	1.01300E-007	0.00000E+000	4.18450E-001	9.82092E-004	5	..........a	-327.66
	157	31.6	4.28327E-001	1.04932E-007	0.00000E+000	4.28450E-001	1.00649E-003	5	..........a	-327.66
	158	31.8	4.38358E-001	1.08595E-007	0.00000E+000	4.38450E-001	1.01889E-003	5	..........a	-327.66
	159	32	4.48410E-001	1.12273E-007	0.00000E+000	4.48450E-001	9.85092E-004	5	..........a	-327.66
	160	32.2	4.58396E-001	1.15989E-007	0.00000E+000	4.58450E-001	9.79992E-004	5	..........a	-327.66
	161	32.4	4.68413E-001	1.19611E-007	0.00000E+000	4.68450E-001	9.92692E-004	5	..........a	-327.66
	162	32.6	4.78335E-001	1.23236E-007	0.00000E+000	4.78450E-001	9.98092E-004	5	..........a	-327.66
	163	32.8	4.88334E-001	1.26800E-007	0.00000E+000	4.88450E-001	1.00069E-003	5	..........a	-327.66
	164	33	4.98390E-001	1.30407E-007	0.00000E+000	4.98450E-001	9.94392E-004	5	..........a	-327.66
	165	33.2	5.08389E-001	1.33834E-007	0.00000E+000	5.08450E-001	9.99892E-004	5	..........a	-327.66
	166	33.4	5.18344E-001	1.37213E-007	0.00000E+000	5.18450E-001	9.98392E-004	5	..........a	-327.66
	167	33.6	5.28386E-001	1.40547E-007	0.00000E+000	5.28450E-001	9.94192E-004	5	..........a	-327.66
	168	33.8	5.38361E-001	1.43722E-007	0.00000E+000	5.38450E-001	9.89992E-004	5	..........a	-327.66
	169	34	5.48408E-001	1.46875E-007	0.00000E+000	5.48450E-001	9.92892E-004	5	..........a	-327.66
	170	34.2	5.58348E-001	1.49908E-007	0.00000E+000	5.58450E-001	9.92492E-004	5	..........a	-327.66
	171	34.4	5.68343E-001	1.52825E-007	0.00000E+000	5.68450E-001	1.00969E-003	5	..........a	-327.66
	172	34.6	5.78224E-001	1.55734E-007	0.00000E+000	5.78450E-001	9.75992E-004	5	..........a	-327.66
	173	34.8	5.88392E-001	1.58566E-007	0.00000E+000	5.88450E-001	9.97692E-004	5	..........a	-327.66
	174	35	5.98342E-001	1.61355E-007	0.00000E+000	5.98450E-001	1.01389E-003	5	..........a	-327.66
	175	35.2	6.08316E-001	1.64130E-007	0.00000E+000	6.08450E-001	9.96992E-004	5	..........a	-327.66
	176	35.4	6.18317E-001	1.66946E-007	0.00000E+000	6.18450E-001	1.01609E-003	5	..........a	-327.66
	177	35.6	6.28341E-001	1.69709E-007	0.00000E+000	6.28450E-001	9.96492E-004	5	..........a	-327.66
	178	35.8	6.38274E-001	1.72534E-007	0.00000E+000	6.38450E-001	9.86892E-004	5	..........a	-327.66
	179	36	6.48302E-001	1.75254E-007	0.00000E+000	6.48450E-001	9.92292E-004	5	..........a	-327.66
	180	36.2	6.58311E-001	1.77982E-007	0.00000E+000	6.58450E-001	9.95492E-004	5	..........a	-327.66
	181	36.4	6.68360E-001	1.80746E-007	0.00000E+000	6.68450E-001	1.00299E-003	5	..........a	-327.66
	182	36.6	6.78276E-001	1.83505E-007	0.00000E+000	6.78450E-001	9.86792E-004	5	..........a	-327.66
	183	36.8	6.88272E-001	1.86425E-007	0.00000E+000	6.88450E-001	9.99692E-004	5	..........a	-327.66
	184	37	6.98295E-001	1.89281E-007	0.00000E+000	6.98450E-001	9.87792E-004	5	..........a	-327.66
	185	37.2	7.08354E-001	1.92278E-007	0.00000E+000	7.08450E-001	1.01289E-003	5	..........a	-327.66
	186	37.4	7.18282E-001	1.95368E-007	0.00000E+000	7.18450E-001	9.76892E-004	5	..........a	-327.66
	187	37.6	7.28305E-001	1.98719E-007	0.00000E+000	7.28450E-001	1.00219E-003	5	..........a	-327.66
	188	37.8	7.38288E-001	2.02104E-007	0.00000E+000	7.38450E-001	9.86692E-004	5	..........a	-327.66
	189	38	7.48360E-001	2.05771E-007	0.00000E+000	7.48450E-001	9.86092E-004	5	..........a	-327.66
	190	38.2	7.58285E-001	2.09711E-007	0.00000E+000	7.58450E-001	9.89792E-004	5	..........a	-327.66
	191	38.4	7.68290E-001	2.13851E-007	0.00000E+000	7.68450E-001	9.84392E-004	5	..........a	-327.66
	192	38.6	7.78279E-001	2.18223E-007	0.00000E+000	7.78450E-001	9.70992E-004	5	..........a	-327.66
	193	38.8	7.88363E-001	2.22921E-007	0.00000E+000	7.88450E-001	9.79292E-004	5	..........a	-327.66
	194	39	7.98269E-001	2.27929E-007	0.00000E+000	7.98450E-001	9.72292E-004	5	..........a	-327.66
CURVE2	TABLE
	Pt	T	Vf	Im	Vu	Sig	Ach	IERange	Over	Temp
	#	s	V vs. Ref.	A	V	V	V	#	bits	deg C
	195	39.2	7.89954E-001	1.90483E-007	0.00000E+000	7.90000E-001	9.91492E-004	5	..........a	-327.66
	196	39.4	7.79853E-001	1.63149E-007	0.00000E+000	7.80000E-001	9.78992E-004	5	..........a	-327.66
	197	39.6	7.69889E-001	1.43540E-007	0.00000E+000	7.70000E-001	9.84692E-004	5	..........a	-327.66
	198	39.8	7.59874E-001	1.28480E-007	0.00000E+000	7.60000E-001	9.85892E-004	5	..........a	-327.66
	199	40	7.49962E-001	1.16471E-007	0.00000E+000	7.50000E-001	9.88292E-004	5	..........a	-327.66
	200	40.2	7.39896E-001	1.06650E-007	0.00000E+000	7.40000E-001	9.92092E-004	5	..........a	-327.66
	201	40.4	7.29888E-001	9.83069E-008	0.00000E+000	7.30000E-001	9.87392E-004	5	..........a	-327.66
	202	40.6	7.19878E-001	9.12170E-008	0.00000E+000	7.20000E-001	9.95892E-004	5	..........a	-327.66
	203	40.8	7.09933E-001	8.50330E-008	0.00000E+000	7.10000E-001	1.00559E-003	5	..........a	-327.66
	204	41	6.99898E-001	7.94653E-008	0.00000E+000	7.00000E-001	9.90892E-004	5	..........a	-327.66
	205	41.2	6.89859E-001	7.45826E-008	0.00000E+000	6.90000E-001	9.88692E-004	5	..........a	-327.66
	206	41.4	6.79925E-001	7.00966E-008	0.00000E+000	6.80000E-001	9.71092E-004	5	..........a	-327.66
	207	41.6	6.69972E-001	6.59848E-008	0.00000E+000	6.70000E-001	1.00989E-003	5	..........a	-327.66
	208	41.8	6.59911E-001	6.21272E-008	0.00000E+000	6.60000E-001	9.96392E-004	5	..........a	-327.66
	209	42	6.49904E-001	5.85800E-008	0.00000E+000	6.50000E-001	9.77592E-004	5	..........a	-327.66
	210	42.2	6.39888E-001	5.52238E-008	0.00000E+000	6.40000E-001	9.96692E-004	5	..........a	-327.66
	211	42.4	6.30026E-001	5.20632E-008	0.00000E+000	6.30000E-001	9.73192E-004	5	..........a	-327.66
	212	42.6	6.19910E-001	4.90783E-008	0.00000E+000	6.20000E-001	1.00799E-003	5	..........a	-327.66
	213	42.8	6.09940E-001	4.62398E-008	0.00000E+000	6.10000E-001	1.00019E-003	5	..........a	-327.66
	214	43	5.99946E-001	4.34712E-008	0.00000E+000	6.00000E-001	9.83392E-004	5	..........a	-327.66
	215	43.2	5.90004E-001	4.08245E-008	0.00000E+000	5.90000E-001	1.00189E-003	5	..........a	-327.66
	216	43.4	5.79989E-001	3.83171E-008	0.00000E+000	5.80000E-001	9.74792E-004	5	..........a	-327.66
	217	43.6	5.69966E-001	3.59879E-008	0.00000E+000	5.70000E-001	1.00549E-003	5	..........a	-327.66
	218	43.8	5.59918E-001	3.36465E-008	0.00000E+000	5.60000E-001	9.96192E-004	5	..........a	-327.66
	219	44	5.50015E-001	3.13999E-008	0.00000E+000	5.50000E-001	9.80792E-004	5	..........a	-327.66
	220	44.2	5.39957E-001	2.92712E-008	0.00000E+000	5.40000E-001	9.82092E-004	5	..........a	-327.66
	221	44.4	5.29961E-001	2.71486E-008	0.00000E+000	5.30000E-001	1.00419E-003	5	..........a	-327.66
	222	44.6	5.19957E-001	2.50575E-008	0.00000E+000	5.20000E-001	1.00219E-003	5	..........a	-327.66
	223	44.8	5.09937E-001	2.30234E-008	0.00000E+000	5.10000E-001	1.00099E-003	5	..........a	-327.66
	224	45	4.99989E-001	2.10711E-008	0.00000E+000	5.00000E-001	9.87992E-004	5	..........a	-327.66
	225	45.2	4.89938E-001	1.91663E-008	0.00000E+000	4.90000E-001	9.95592E-004	5	..........a	-327.66
	226	45.4	4.79919E-001	1.73266E-008	0.00000E+000	4.80000E-001	1.00869E-003	5	..........a	-327.66
	227	45.6	4.70017E-001	1.55167E-008	0.00000E+000	4.70000E-001	9.92492E-004	5	..........a	-327.66
	228	45.8	4.59978E-001	1.37062E-008	0.00000E+000	4.60000E-001	9.90892E-004	5	..........a	-327.66
	229	46	4.49767E-001	1.19117E-008	0.00000E+000	4.50000E-001	9.90192E-004	5	..........a	-327.66
	230	46.2	4.39947E-001	1.00971E-008	0.00000E+000	4.40000E-001	9.97092E-004	5	..........a	-327.66
	231	46.4	4.29952E-001	8.29998E-009	0.00000E+000	4.30000E-001	9.89592E-004	5	..........a	-327.66
	232	46.6	4.20009E-001	6.51027E-009	0.00000E+000	4.20000E-001	9.77092E-004	5	..........a	-327.66
	233	46.8	4.09964E-001	4.64853E-009	0.00000E+000	4.10000E-001	9.89092E-004	5	..........a	-327.66
	234	47	3.99955E-001	2.82484E-009	0.00000E+000	4.00000E-001	1.00629E-003	5	..........a	-327.66
	235	47.2	3.90022E-001	9.50032E-010	0.00000E+000	3.90000E-001	9.83292E-004	5	..........a	-327.66
	236	47.4	3.80030E-001	-9.76570E-010	0.00000E+000	3.80000E-001	9.69492E-004	5	..........a	-327.66
	237	47.6	3.70046E-001	-2.88013E-009	0.00000E+000	3.70000E-001	9.92392E-004	5	..........a	-327.66
	238	47.8	3.60024E-001	-4.82678E-009	0.00000E+000	3.60000E-001	9.77392E-004	5	..........a	-327.66
	239	48	3.49995E-001	-6.79002E-009	0.00000E+000	3.50000E-001	9.95992E-004	5	..........a	-327.66
	240	48.2	3.40077E-001	-8.81377E-009	0.00000E+000	3.40000E-001	9.83192E-004	5	..........a	-327.66
	241	48.4	3.30005E-001	-1.08912E-008	0.00000E+000	3.30000E-001	9.98392E-004	5	..........a	-327.66
	242	48.6	3.20038E-001	-1.30606E-008	0.00000E+000	3.20000E-001	9.98992E-004	5	..........a	-327.66
	243	48.8	3.10057E-001	-1.53119E-008	0.00000E+000	3.10000E-001	9.79392E-004	5	..........a	-327.66
	244	49	3.00059E-001	-1.76472E-008	0.00000E+000	3.00000E-001	9.74292E-004	5	..........a	-327.66
	245	49.2	2.90039E-001	-2.00379E-008	0.00000E+000	2.90000E-001	9.81192E-004	5	..........a	-327.66
	246	49.4	2.79976E-001	-2.26498E-008	0.00000E+000	2.80000E-001	9.97692E-004	5	..........a	-327.66
	247	49.6	2.70083E-001	-2.52453E-008	0.00000E+000	2.70000E-001	9.78992E-004	5	..........a	-327.66
	248	49.8	2.60041E-001	-2.80234E-008	0.00000E+000	2.60000E-001	9.75992E-004	5	..........a	-327.66
	249	50	2.50005E-001	-3.08750E-008	0.00000E+000	2.50000E-001	9.96792E-004	5	..........a	-327.66
	250	50.2	2.40048E-001	-3.37915E-008	0.00000E+000	2.40000E-001	1.00679E-003	5	..........a	-327.66
	251	50.4	2.30013E-001	-3.67552E-008	0.00000E+000	2.30000E-001	9.90092E-004	5	..........a	-327.66
	252	50.6	2.19799E-001	-3.96176E-008	0.00000E+000	2.20000E-001	9.84992E-004	5	..........a	-327.66
	253	50.8	2.10014E-001	-4.24354E-008	0.00000E+000	2.10000E-001	9.92692E-004	5	..........a	-327.66
	254	51	2.00087E-001	-4.48437E-008	0.00000E+000	2.00000E-001	9.96892E-004	5	..........a	-327.66
	255	51.2	1.90118E-001	-4.70050E-008	0.00000E+000	1.90000E-001	9.72892E-004	5	..........a	-327.66
	256	51.4	1.80107E-001	-4.85607E-008	0.00000E+000	1.80000E-001	9.68692E-004	5	..........a	-327.66
	257	51.6	1.70083E-001	-4.95864E-008	0.00000E+000	1.70000E-001	9.90292E-004	5	..........a	-327.66
	258	51.8	1.60079E-001	-4.99142E-008	0.00000E+000	1.60000E-001	9.75492E-004	5	..........a	-327.66
	259	52	1.50084E-001	-4.96448E-008	0.00000E+000	1.50000E-001	9.92292E-004	5	..........a	-327.66
	260	52.2	1.40124E-001	-4.87720E-008	0.00000E+000	1.40000E-001	9.78392E-004	5	..........a	-327.66
	261	52.4	1.30053E-001	-4.74638E-008	0.00000E+000	1.30000E-001	9.76492E-004	5	..........a	-327.66
	262	52.6	1.20085E-001	-4.58446E-008	0.00000E+000	1.20000E-001	9.85492E-004	5	..........a	-327.66
	263	52.8	1.10111E-001	-4.40825E-008	0.00000E+000	1.10000E-001	9.88592E-004	5	..........a	-327.66
	264	53	1.00108E-001	-4.23393E-008	0.00000E+000	1.00000E-001	9.87292E-004	5	..........a	-327.66
	265	53.2	9.01010E-002	-4.06493E-008	0.00000E+000	9.00000E-002	9.77892E-004	5	..........a	-327.66
	266	53.4	8.00330E-002	-3.92089E-008	0.00000E+000	8.00000E-002	1.00249E-003	5	..........a	-327.66
	267	53.6	7.00106E-002	-3.80269E-008	0.00000E+000	7.00000E-002	9.85992E-004	5	..........a	-327.66
	268	53.8	6.01111E-002	-3.71539E-008	0.00000E+000	6.00000E-002	9.74292E-004	5	..........a	-327.66
	269	54	5.00502E-002	-3.65686E-008	0.00000E+000	5.00000E-002	9.89892E-004	5	..........a	-327.66
	270	54.2	4.00799E-002	-3.62429E-008	0.00000E+000	4.00000E-002	9.85092E-004	5	..........a	-327.66
	271	54.4	3.00658E-002	-3.61331E-008	0.00000E+000	3.00000E-002	9.84392E-004	5	..........a	-327.66
	272	54.6	2.01517E-002	-3.61715E-008	0.00000E+000	2.00000E-002	9.71192E-004	5	..........a	-327.66
	273	54.8	1.01054E-002	-3.64134E-008	0.00000E+000	1.00000E-002	9.80292E-004	5	..........a	-327.66
	274	55	2.99417E-005	-3.68600E-008	0.00000E+000	7.45058E-009	9.84092E-004	5	..........a	-327.66
	275	55.2	-9.93936E-003	-3.79759E-008	0.00000E+000	-1.00000E-002	9.87392E-004	5	..........a	-327.66
	276	55.4	-1.99272E-002	-3.79649E-008	0.00000E+000	-2.00000E-002	9.72992E-004	5	..........a	-327.66
	277	55.6	-2.99645E-002	-3.82426E-008	0.00000E+000	-3.00000E-002	9.89392E-004	5	..........a	-327.66
	278	55.8	-3.99281E-002	-3.86494E-008	0.00000E+000	-4.00000E-002	9.83492E-004	5	..........a	-327.66
	279	56	-4.98999E-002	-3.92235E-008	0.00000E+000	-5.00000E-002	9.74692E-004	5	..........a	-327.66
	280	56.2	-5.98824E-002	-3.98607E-008	0.00000E+000	-6.00000E-002	9.61992E-004	5	..........a	-327.66
	281	56.4	-6.99112E-002	-4.04612E-008	0.00000E+000	-7.00000E-002	9.69192E-004	5	..........a	-327.66
	282	56.6	-7.99470E-002	-4.12692E-008	0.00000E+000	-8.00000E-002	9.79492E-004	5	..........a	-327.66
	283	56.8	-8.99065E-002	-4.19465E-008	0.00000E+000	-9.00000E-002	9.64392E-004	5	..........a	-327.66
	284	57	-9.99220E-002	-4.26473E-008	0.00000E+000	-1.00000E-001	9.66292E-004	5	..........a	-327.66
	285	57.2	-1.09971E-001	-4.34978E-008	0.00000E+000	-1.10000E-001	1.00349E-003	5	..........a	-327.66
	286	57.4	-1.19909E-001	-4.42618E-008	0.00000E+000	-1.20000E-001	9.99092E-004	5	..........a	-327.66
	287	57.6	-1.29904E-001	-4.50989E-008	0.00000E+000	-1.30000E-001	9.84392E-004	5	..........a	-327.66
	288	57.8	-1.39951E-001	-4.60455E-008	0.00000E+000	-1.40000E-001	9.65392E-004	5	..........a	-327.66
	289	58	-1.49935E-001	-4.69175E-008	0.00000E+000	-1.50000E-001	9.94492E-004	5	..........a	-327.66
	290	58.2	-1.59994E-001	-4.79742E-008	0.00000E+000	-1.60000E-001	9.79192E-004	5	..........a	-327.66
	291	58.4	-1.69901E-001	-4.89108E-008	0.00000E+000	-1.70000E-001	9.93592E-004	5	..........a	-327.66
	292	58.6	-1.79898E-001	-4.97920E-008	0.00000E+000	-1.80000E-001	9.89492E-004	5	..........a	-327.66
	293	58.8	-1.90033E-001	-5.09588E-008	0.00000E+000	-1.90000E-001	9.87192E-004	5	..........a	-327.66
	294	59	-1.99941E-001	-5.19589E-008	0.00000E+000	-2.00000E-001	9.79492E-004	5	..........a	-327.66
	295	59.2	-2.09910E-001	-5.31376E-008	0.00000E+000	-2.10000E-001	9.74192E-004	5	..........a	-327.66
	296	59.4	-2.19861E-001	-5.42327E-008	0.00000E+000	-2.20000E-001	9.80292E-004	5	..........a	-327.66
	297	59.6	-2.29904E-001	-5.56139E-008	0.00000E+000	-2.30000E-001	9.68492E-004	5	..........a	-327.66
	298	59.8	-2.39906E-001	-5.70437E-008	0.00000E+000	-2.40000E-001	9.72292E-004	5	..........a	-327.66
	299	60	-2.49901E-001	-5.80944E-008	0.00000E+000	-2.50000E-001	9.94892E-004	5	..........a	-327.66
	300	60.2	-2.59813E-001	-5.93791E-008	0.00000E+000	-2.60000E-001	9.65792E-004	5	..........a	-327.66
	301	60.4	-2.69864E-001	-6.06286E-008	0.00000E+000	-2.70000E-001	9.80292E-004	5	..........a	-327.66
	302	60.6	-2.79903E-001	-6.19976E-008	0.00000E+000	-2.80000E-001	9.82092E-004	5	..........a	-327.66
	303	60.8	-2.89920E-001	-6.32973E-008	0.00000E+000	-2.90000E-001	9.90292E-004	5	..........a	-327.66
	304	61	-2.99849E-001	-6.46130E-008	0.00000E+000	-3.00000E-001	9.67692E-004	5	..........a	-327.66
	305	61.2	-3.09889E-001	-6.58795E-008	0.00000E+000	-3.10000E-001	9.64292E-004	5	..........a	-327.66
	306	61.4	-3.19864E-001	-6.73649E-008	0.00000E+000	-3.20000E-001	9.83192E-004	5	..........a	-327.66
	307	61.6	-3.29932E-001	-6.85535E-008	0.00000E+000	-3.30000E-001	9.86392E-004	5	..........a	-327.66
	308	61.8	-3.39811E-001	-6.98986E-008	0.00000E+000	-3.40000E-001	9.81892E-004	5	..........a	-327.66
	309	62	-3.49878E-001	-7.11591E-008	0.00000E+000	-3.50000E-001	9.92092E-004	5	..........a	-327.66
	310	62.2	-3.59889E-001	-7.25655E-008	0.00000E+000	-3.60000E-001	1.00069E-003	5	..........a	-327.66
	311	62.4	-3.69873E-001	-7.37376E-008	0.00000E+000	-3.70000E-001	9.73992E-004	5	..........a	-327.66
	312	62.6	-3.79828E-001	-7.50714E-008	0.00000E+000	-3.80000E-001	9.90792E-004	5	..........a	-327.66
	313	62.8	-3.89925E-001	-7.63287E-008	0.00000E+000	-3.90000E-001	9.87392E-004	5	..........a	-327.66
	314	63	-3.99865E-001	-7.75708E-008	0.00000E+000	-4.00000E-001	9.81892E-004	5	..........a	-327.66
	315	63.2	-4.09917E-001	-7.89217E-008	0.00000E+000	-4.10000E-001	9.98392E-004	5	..........a	-327.66
	316	63.4	-4.19826E-001	-8.01920E-008	0.00000E+000	-4.20000E-001	9.82192E-004	5	..........a	-327.66
	317	63.6	-4.29857E-001	-8.14951E-008	0.00000E+000	-4.30000E-001	9.76992E-004	5	..........a	-327.66
	318	63.8	-4.39857E-001	-8.28120E-008	0.00000E+000	-4.40000E-001	9.79892E-004	5	..........a	-327.66
	319	64	-4.49842E-001	-8.40754E-008	0.00000E+000	-4.50000E-001	9.72492E-004	5	..........a	-327.66
	320	64.2	-4.59819E-001	-8.53365E-008	0.00000E+000	-4.60000E-001	9.63292E-004	5	..........a	-327.66
	321	64.4	-4.69843E-001	-8.66959E-008	0.00000E+000	-4.70000E-001	9.74292E-004	5	..........a	-327.66
	322	64.6	-4.79829E-001	-8.80060E-008	0.00000E+000	-4.80000E-001	9.90592E-004	5	..........a	-327.66
	323	64.8	-4.89864E-001	-8.93766E-008	0.00000E+000	-4.90000E-001	9.91692E-004	5	..........a	-327.66
	324	65	-4.99818E-001	-9.06391E-008	0.00000E+000	-5.00000E-001	9.76392E-004	5	..........a	-327.66
	325	65.2	-5.09851E-001	-9.20931E-008	0.00000E+000	-5.10000E-001	1.00559E-003	5	..........a	-327.66
	326	65.4	-5.19853E-001	-9.34297E-008	0.00000E+000	-5.20000E-001	9.88692E-004	5	..........a	-327.66
	327	65.6	-5.29842E-001	-9.48482E-008	0.00000E+000	-5.30000E-001	9.94092E-004	5	..........a	-327.66
	328	65.8	-5.39786E-001	-9.62700E-008	0.00000E+000	-5.40000E-001	9.71992E-004	5	..........a	-327.66
	329	66	-5.49851E-001	-9.77280E-008	0.00000E+000	-5.50000E-001	9.67692E-004	5	..........a	-327.66
	330	66.2	-5.59892E-001	-9.91608E-008	0.00000E+000	-5.60000E-001	9.70392E-004	5	..........a	-327.66
	331	66.4	-5.69854E-001	-1.00708E-007	0.00000E+000	-5.70000E-001	9.77892E-004	5	..........a	-327.66
	332	66.6	-5.79811E-001	-1.02091E-007	0.00000E+000	-5.80000E-001	9.61392E-004	5	..........a	-327.66
	333	66.8	-5.89869E-001	-1.03537E-007	0.00000E+000	-5.90000E-001	9.97392E-004	5	..........a	-327.66
	334	67	-5.99855E-001	-1.04990E-007	0.00000E+000	-6.00000E-001	9.70392E-004	5	..........a	-327.66
	335	67.2	-5.89875E-001	-9.11722E-008	0.00000E+000	-5.90000E-001	9.81392E-004	5	..........a	-327.66
	336	67.4	-5.79824E-001	-8.20314E-008	0.00000E+000	-5.80000E-001	9.68992E-004	5	..........a	-327.66
	337	67.6	-5.69860E-001	-7.48565E-008	0.00000E+000	-5.70000E-001	9.87892E-004	5	..........a	-327.66
	338	67.8	-5.59930E-001	-6.91035E-008	0.00000E+000	-5.60000E-001	9.83892E-004	5	..........a	-327.66
	339	68	-5.49874E-001	-6.40866E-008	0.00000E+000	-5.50000E-001	9.79592E-004	5	..........a	-327.66
	340	68.2	-5.39813E-001	-5.96556E-008	0.00000E+000	-5.40000E-001	9.63292E-004	5	..........a	-327.66
	341	68.4	-5.29853E-001	-5.57301E-008	0.00000E+000	-5.30000E-001	9.88292E-004	5	..........a	-327.66
	342	68.6	-5.19867E-001	-5.21768E-008	0.00000E+000	-5.20000E-001	9.67692E-004	5	..........a	-327.66
	343	68.8	-5.09868E-001	-4.89546E-008	0.00000E+000	-5.10000E-001	1.00629E-003	5	..........a	-327.66
	344	69	-4.99836E-001	-4.57810E-008	0.00000E+000	-5.00000E-001	9.84892E-004	5	..........a	-327.66
	345	69.2	-4.89884E-001	-4.29338E-008	0.00000E+000	-4.90000E-001	9.92092E-004	5	..........a	-327.66
	346	69.4	-4.79843E-001	-4.01742E-008	0.00000E+000	-4.80000E-001	9.96492E-004	5	..........a	-327.66
	347	69.6	-4.69868E-001	-3.75579E-008	0.00000E+000	-4.70000E-001	9.88892E-004	5	..........a	-327.66
	348	69.8	-4.59830E-001	-3.51101E-008	0.00000E+000	-4.60000E-001	9.70292E-004	5	..........a	-327.66
	349	70	-4.49856E-001	-3.28137E-008	0.00000E+000	-4.50000E-001	9.73692E-004	5	..........a	-327.66
	350	70.2	-4.39930E-001	-3.04393E-008	0.00000E+000	-4.40000E-001	9.69092E-004	5	..........a	-327.66
	351	70.4	-4.29908E-001	-2.83280E-008	0.00000E+000	-4.30000E-001	9.74592E-004	5	..........a	-327.66
	352	70.6	-4.19838E-001	-2.63031E-008	0.00000E+000	-4.20000E-001	9.75192E-004	5	..........a	-327.66
[...]
	920	184.2	-3.39842E-001	-1.43793E-008	0.00000E+000	-3.40000E-001	9.68192E-004	5	..........a	-327.66
	921	184.4	-3.29945E-001	-1.26868E-008	0.00000E+000	-3.30000E-001	9.60492E-004	5	..........a	-327.66
	922	184.6	-3.19886E-001	-1.10223E-008	0.00000E+000	-3.20000E-001	9.63492E-004	5	..........a	-327.66
	923	184.8	-3.09894E-001	-9.40251E-009	0.00000E+000	-3.10000E-001	9.52492E-004	5	..........a	-327.66
	924	185	-2.99879E-001	-7.85786E-009	0.00000E+000	-3.00000E-001	9.62592E-004	5	..........a	-327.66
	925	185.2	-2.89895E-001	-6.30368E-009	0.00000E+000	-2.90000E-001	9.61292E-004	5	..........a	-327.66
	926	185.4	-2.79878E-001	-4.76684E-009	0.00000E+000	-2.80000E-001	9.55592E-004	5	..........a	-327.66
	927	185.6	-2.69886E-001	-3.31598E-009	0.00000E+000	-2.70000E-001	9.82292E-004	5	..........a	-327.66
	928	185.8	-2.59847E-001	-1.85027E-009	0.00000E+000	-2.60000E-001	9.66192E-004	5	..........a	-327.66
	929	186	-2.49898E-001	-4.22059E-010	0.00000E+000	-2.50000E-001	9.64692E-004	5	..........a	-327.66
	930	186.2	-2.39931E-001	1.00864E-009	0.00000E+000	-2.40000E-001	9.62792E-004	5	..........a	-327.66
	931	186.4	-2.30011E-001	2.38724E-009	0.00000E+000	-2.30000E-001	9.71092E-004	5	..........a	-327.66
	932	186.6	-2.19907E-001	3.74658E-009	0.00000E+000	-2.20000E-001	9.61392E-004	5	..........a	-327.66
	933	186.8	-2.09929E-001	5.06456E-009	0.00000E+000	-2.10000E-001	9.70192E-004	5	..........a	-327.66
	934	187	-1.99997E-001	6.39641E-009	0.00000E+000	-2.00000E-001	9.67292E-004	5	..........a	-327.66
	935	187.2	-1.90095E-001	7.67119E-009	0.00000E+000	-1.90000E-001	9.64492E-004	5	..........a	-327.66
	936	187.4	-1.79954E-001	8.97529E-009	0.00000E+000	-1.80000E-001	9.72192E-004	5	..........a	-327.66
	937	187.6	-1.69929E-001	1.02250E-008	0.00000E+000	-1.70000E-001	9.74892E-004	5	..........a	-327.66
	938	187.8	-1.60034E-001	1.14997E-008	0.00000E+000	-1.60000E-001	9.69292E-004	5	..........a	-327.66
	939	188	-1.50098E-001	1.27096E-008	0.00000E+000	-1.50000E-001	9.68992E-004	5	..........a	-327.66
	940	188.2	-1.39949E-001	1.39358E-008	0.00000E+000	-1.40000E-001	9.73292E-004	5	..........a	-327.66
	941	188.4	-1.29970E-001	1.51617E-008	0.00000E+000	-1.30000E-001	9.71692E-004	5	..........a	-327.66
	942	188.6	-1.19963E-001	1.63486E-008	0.00000E+000	-1.20000E-001	9.72092E-004	5	..........a	-327.66
	943	188.8	-1.09990E-001	1.75354E-008	0.00000E+000	-1.10000E-001	9.78792E-004	5	..........a	-327.66
	944	189	-9.99486E-002	1.87326E-008	0.00000E+000	-1.00000E-001	9.70392E-004	5	..........a	-327.66
	945	189.2	-8.99283E-002	1.99245E-008	0.00000E+000	-9.00000E-002	9.55492E-004	5	..........a	-327.66
	946	189.4	-7.99975E-002	2.10735E-008	0.00000E+000	-8.00000E-002	9.76392E-004	5	..........a	-327.66
	947	189.6	-6.99433E-002	2.22928E-008	0.00000E+000	-7.00000E-002	9.74592E-004	5	..........a	-327.66
	948	189.8	-5.99418E-002	2.34594E-008	0.00000E+000	-6.00000E-002	9.67892E-004	5	..........a	-327.66
	949	190	-4.99401E-002	2.46281E-008	0.00000E+000	-5.00000E-002	9.68292E-004	5	..........a	-327.66
	950	190.2	-3.99597E-002	2.57980E-008	0.00000E+000	-4.00000E-002	9.73592E-004	5	..........a	-327.66
	951	190.4	-2.99714E-002	2.69299E-008	0.00000E+000	-3.00000E-002	9.71592E-004	5	..........a	-327.66
	952	190.6	-1.99620E-002	2.80773E-008	0.00000E+000	-2.00000E-002	9.59692E-004	5	..........a	-327.66
	953	190.8	-9.92341E-003	2.92097E-008	0.00000E+000	-1.00000E-002	9.66592E-004	5	..........a	-327.66
	954	191	-1.40836E-006	3.03501E-008	0.00000E+000	7.45058E-009	9.84892E-004	5	..........a	-327.66
	955	191.2	1.00705E-002	3.14757E-008	0.00000E+000	1.00000E-002	9.63492E-004	5	..........a	-327.66
	956	191.4	2.01269E-002	3.26270E-008	0.00000E+000	2.00000E-002	9.66992E-004	5	..........a	-327.66
	957	191.6	3.00088E-002	3.37766E-008	0.00000E+000	3.00000E-002	9.74192E-004	5	..........a	-327.66
	958	191.8	4.00650E-002	3.49131E-008	0.00000E+000	4.00000E-002	9.54992E-004	5	..........a	-327.66
	959	192	5.00135E-002	3.60207E-008	0.00000E+000	5.00000E-002	9.75292E-004	5	..........a	-327.66
	960	192.2	6.00691E-002	3.71802E-008	0.00000E+000	6.00000E-002	9.72492E-004	5	..........a	-327.66
	961	192.4	6.99628E-002	3.83102E-008	0.00000E+000	7.00000E-002	9.80492E-004	5	..........a	-327.66
	962	192.6	7.99750E-002	3.95043E-008	0.00000E+000	8.00000E-002	9.63192E-004	5	..........a	-327.66
	963	192.8	9.00485E-002	4.06316E-008	0.00000E+000	9.00000E-002	9.54892E-004	5	..........a	-327.66
	964	193	1.00051E-001	4.18519E-008	0.00000E+000	1.00000E-001	9.64592E-004	5	..........a	-327.66
	965	193.2	1.10053E-001	4.30931E-008	0.00000E+000	1.10000E-001	9.66892E-004	5	..........a	-327.66
	966	193.4	1.19996E-001	4.47801E-008	0.00000E+000	1.20000E-001	9.75692E-004	5	..........a	-327.66
	967	193.6	1.30019E-001	4.71823E-008	0.00000E+000	1.30000E-001	9.79392E-004	5	..........a	-327.66
	968	193.8	1.40073E-001	4.67167E-008	0.00000E+000	1.40000E-001	9.58192E-004	5	..........a	-327.66
	969	194	1.50038E-001	4.77233E-008	0.00000E+000	1.50000E-001	9.75592E-004	5	..........a	-327.66
	970	194.2	1.59967E-001	4.88179E-008	0.00000E+000	1.60000E-001	9.68192E-004	5	..........a	-327.66
	971	194.4	1.70040E-001	5.00120E-008	0.00000E+000	1.70000E-001	9.55692E-004	5	..........a	-327.66
	972	194.6	1.80021E-001	5.11483E-008	0.00000E+000	1.80000E-001	9.68592E-004	5	..........a	-327.66
	973	194.8	1.90068E-001	5.23607E-008	0.00000E+000	1.90000E-001	9.58592E-004	5	..........a	-327.66
	974	195	1.99996E-001	5.35504E-008	0.00000E+000	2.00000E-001	9.72192E-004	5	..........a	-327.66
	975	195.2	2.09973E-001	5.47357E-008	0.00000E+000	2.10000E-001	9.76392E-004	5	..........a	-327.66
	976	195.4	2.19984E-001	5.58665E-008	0.00000E+000	2.20000E-001	9.69392E-004	5	..........a	-327.66
	977	195.6	2.30007E-001	5.70663E-008	0.00000E+000	2.30000E-001	9.67292E-004	5	..........a	-327.66
	978	195.8	2.40001E-001	5.82152E-008	0.00000E+000	2.40000E-001	9.80792E-004	5	..........a	-327.66
	979	196	2.49956E-001	5.93909E-008	0.00000E+000	2.50000E-001	9.76592E-004	5	..........a	-327.66
	980	196.2	2.59980E-001	6.05752E-008	0.00000E+000	2.60000E-001	9.62492E-004	5	..........a	-327.66
	981	196.4	2.70052E-001	6.17129E-008	0.00000E+000	2.70000E-001	9.59392E-004	5	..........a	-327.66
	982	196.6	2.79921E-001	6.29849E-008	0.00000E+000	2.80000E-001	9.63692E-004	5	..........a	-327.66
	983	196.8	2.89933E-001	6.42091E-008	0.00000E+000	2.90000E-001	9.67792E-004	5	..........a	-327.66
	984	197	2.99988E-001	6.54367E-008	0.00000E+000	3.00000E-001	9.53992E-004	5	..........a	-327.66
	985	197.2	3.10014E-001	6.66918E-008	0.00000E+000	3.10000E-001	9.78092E-004	5	..........a	-327.66
	986	197.4	3.19994E-001	6.81307E-008	0.00000E+000	3.20000E-001	9.82192E-004	5	..........a	-327.66
	987	197.6	3.29950E-001	6.95734E-008	0.00000E+000	3.30000E-001	9.71392E-004	5	..........a	-327.66
	988	197.8	3.40009E-001	7.10651E-008	0.00000E+000	3.40000E-001	9.75592E-004	5	..........a	-327.66
	989	198	3.50004E-001	7.26763E-008	0.00000E+000	3.50000E-001	9.80192E-004	5	..........a	-327.66
	990	198.2	3.59938E-001	7.43896E-008	0.00000E+000	3.60000E-001	9.72092E-004	5	..........a	-327.66
	991	198.4	3.70009E-001	7.61555E-008	0.00000E+000	3.70000E-001	9.80492E-004	5	..........a	-327.66
	992	198.6	3.79973E-001	7.80928E-008	0.00000E+000	3.80000E-001	9.46392E-004	5	..........a	-327.66
	993	198.8	3.89998E-001	8.00675E-008	0.00000E+000	3.90000E-001	9.80492E-004	5	..........a	-327.66
	994	199	3.99964E-001	8.22027E-008	0.00000E+000	4.00000E-001	9.65092E-004	5	..........a	-327.66
	995	199.2	4.09900E-001	8.44915E-008	0.00000E+000	4.10000E-001	9.92892E-004	5	..........a	-327.66
	996	199.4	4.19957E-001	8.68103E-008	0.00000E+000	4.20000E-001	9.81592E-004	5	..........a	-327.66
	997	199.6	4.29952E-001	8.92301E-008	0.00000E+000	4.30000E-001	9.80492E-004	5	..........a	-327.66
	998	199.8	4.39918E-001	9.17248E-008	0.00000E+000	4.40000E-001	9.72792E-004	5	..........a	-327.66
	999	200	4.49777E-001	9.42703E-008	0.00000E+000	4.50000E-001	9.65992E-004	5	..........a	-327.66
	1000	200.2	4.59942E-001	9.68737E-008	0.00000E+000	4.60000E-001	9.70392E-004	5	..........a	-327.66
	1001	200.4	4.69981E-001	9.95490E-008	0.00000E+000	4.70000E-001	9.63992E-004	5	..........a	-327.66
	1002	200.6	4.79895E-001	1.02252E-007	0.00000E+000	4.80000E-001	9.59092E-004	5	..........a	-327.66
	1003	200.8	4.89869E-001	1.05140E-007	0.00000E+000	4.90000E-001	9.77792E-004	5	..........a	-327.66
	1004	201	4.99941E-001	1.07961E-007	0.00000E+000	5.00000E-001	9.53092E-004	5	..........a	-327.66
	1005	201.2	5.09953E-001	1.10781E-007	0.00000E+000	5.10000E-001	9.85992E-004	5	..........a	-327.66
	1006	201.4	5.19917E-001	1.13624E-007	0.00000E+000	5.20000E-001	9.76292E-004	5	..........a	-327.66
	1007	201.6	5.29942E-001	1.16411E-007	0.00000E+000	5.30000E-001	9.66692E-004	5	..........a	-327.66
	1008	201.8	5.39922E-001	1.19094E-007	0.00000E+000	5.40000E-001	9.56192E-004	5	..........a	-327.66
	1009	202	5.49961E-001	1.21664E-007	0.00000E+000	5.50000E-001	9.60392E-004	5	..........a	-327.66
	1010	202.2	5.59898E-001	1.24208E-007	0.00000E+000	5.60000E-001	9.85192E-004	5	..........a	-327.66
	1011	202.4	5.69900E-001	1.26564E-007	0.00000E+000	5.70000E-001	9.68892E-004	5	..........a	-327.66
	1012	202.6	5.79901E-001	1.28822E-007	0.00000E+000	5.80000E-001	9.51092E-004	5	..........a	-327.66
	1013	202.8	5.89965E-001	1.31063E-007	0.00000E+000	5.90000E-001	9.86692E-004	5	..........a	-327.66
	1014	203	5.99908E-001	1.33185E-007	0.00000E+000	6.00000E-001	9.76992E-004	5	..........a	-327.66
	1015	203.2	6.09906E-001	1.35324E-007	0.00000E+000	6.10000E-001	9.70792E-004	5	..........a	-327.66
	1016	203.4	6.19866E-001	1.37490E-007	0.00000E+000	6.20000E-001	9.64092E-004	5	..........a	-327.66
	1017	203.6	6.29973E-001	1.39634E-007	0.00000E+000	6.30000E-001	9.76692E-004	5	..........a	-327.66
	1018	203.8	6.39841E-001	1.41839E-007	0.00000E+000	6.40000E-001	9.71292E-004	5	..........a	-327.66
	1019	204	6.49875E-001	1.44163E-007	0.00000E+000	6.50000E-001	9.55292E-004	5	..........a	-327.66
	1020	204.2	6.59871E-001	1.46545E-007	0.00000E+000	6.60000E-001	9.67392E-004	5	..........a	-327.66
	1021	204.4	6.69940E-001	1.48950E-007	0.00000E+000	6.70000E-001	9.70992E-004	5	..........a	-327.66
	1022	204.6	6.79874E-001	1.51442E-007	0.00000E+000	6.80000E-001	9.61692E-004	5	..........a	-327.66
	1023	204.8	6.89883E-001	1.54059E-007	0.00000E+000	6.90000E-001	9.61092E-004	5	..........a	-327.66
	1024	205	6.99854E-001	1.56819E-007	0.00000E+000	7.00000E-001	9.55192E-004	5	..........a	-327.66
	1025	205.2	7.09952E-001	1.59697E-007	0.00000E+000	7.10000E-001	9.60692E-004	5	..........a	-327.66
	1026	205.4	7.19845E-001	1.62771E-007	0.00000E+000	7.20000E-001	9.66692E-004	5	..........a	-327.66
	1027	205.6	7.29839E-001	1.66113E-007	0.00000E+000	7.30000E-001	9.62892E-004	5	..........a	-327.66
	1028	205.8	7.39855E-001	1.69679E-007	0.00000E+000	7.40000E-001	9.66292E-004	5	..........a	-327.66
	1029	206	7.49927E-001	1.73580E-007	0.00000E+000	7.50000E-001	9.66292E-004	5	..........a	-327.66
	1030	206.2	7.59835E-001	1.77865E-007	0.00000E+000	7.60000E-001	9.70992E-004	5	..........a	-327.66
	1031	206.4	7.69844E-001	1.82303E-007	0.00000E+000	7.70000E-001	9.66092E-004	5	..........a	-327.66
	1032	206.6	7.79841E-001	1.87075E-007	0.00000E+000	7.80000E-001	9.53592E-004	5	..........a	-327.66
	1033	206.8	7.89936E-001	1.92282E-007	0.00000E+000	7.90000E-001	9.66892E-004	5	..........a	-327.66
	1034	207	7.99832E-001	1.97840E-007	0.00000E+000	8.00000E-001	9.53992E-004	5	..........a	-327.66
CURVE5	TABLE
	Pt	T	Vf	Im	Vu	Sig	Ach	IERange	Over	Temp
	#	s	V vs. Ref.	A	V	V	V	#	bits	deg C
	1035	207.2	7.89953E-001	1.62491E-007	0.00000E+000	7.90000E-001	9.71592E-004	5	..........a	-327.66
	1036	207.4	7.79860E-001	1.39673E-007	0.00000E+000	7.80000E-001	9.65592E-004	5	..........a	-327.66
	1037	207.6	7.69883E-001	1.23131E-007	0.00000E+000	7.70000E-001	9.86992E-004	5	..........a	-327.66
	1038	207.8	7.59833E-001	1.10444E-007	0.00000E+000	7.60000E-001	9.63192E-004	5	..........a	-327.66
	1039	208	7.49959E-001	1.00370E-007	0.00000E+000	7.50000E-001	9.49292E-004	5	..........a	-327.66
	1040	208.2	7.39891E-001	9.20228E-008	0.00000E+000	7.40000E-001	9.47292E-004	5	..........a	-327.66
	1041	208.4	7.29863E-001	8.49771E-008	0.00000E+000	7.30000E-001	9.73792E-004	5	..........a	-327.66
	1042	208.6	7.19908E-001	7.88958E-008	0.00000E+000	7.20000E-001	9.58992E-004	5	..........a	-327.66
	1043	208.8	7.09990E-001	7.36103E-008	0.00000E+000	7.10000E-001	9.63092E-004	5	..........a	-327.66
	1044	209	6.99903E-001	6.87816E-008	0.00000E+000	7.00000E-001	9.61192E-004	5	..........a	-327.66
	1045	209.2	6.89877E-001	6.44688E-008	0.00000E+000	6.90000E-001	9.65892E-004	5	..........a	-327.66
	1046	209.4	6.79955E-001	6.04868E-008	0.00000E+000	6.80000E-001	9.53292E-004	5	..........a	-327.66
	1047	209.6	6.69974E-001	5.68101E-008	0.00000E+000	6.70000E-001	9.80992E-004	5	..........a	-327.66
	1048	209.8	6.59931E-001	5.33468E-008	0.00000E+000	6.60000E-001	9.53392E-004	5	..........a	-327.66
	1049	210	6.49929E-001	5.00913E-008	0.00000E+000	6.50000E-001	9.76892E-004	5	..........a	-327.66
	1050	210.2	6.39877E-001	4.70186E-008	0.00000E+000	6.40000E-001	9.70392E-004	5	..........a	-327.66
	1051	210.4	6.29986E-001	4.40826E-008	0.00000E+000	6.30000E-001	9.70592E-004	5	..........a	-327.66
	1052	210.6	6.19914E-001	4.12550E-008	0.00000E+000	6.20000E-001	9.51292E-004	5	..........a	-327.66
	1053	210.8	6.09934E-001	3.85727E-008	0.00000E+000	6.10000E-001	9.72392E-004	5	..........a	-327.66
	1054	211	5.99963E-001	3.59962E-008	0.00000E+000	6.00000E-001	9.78092E-004	5	..........a	-327.66
	1055	211.2	5.89980E-001	3.35957E-008	0.00000E+000	5.90000E-001	9.73592E-004	5	..........a	-327.66
	1056	211.4	5.79984E-001	3.13347E-008	0.00000E+000	5.80000E-001	9.67092E-004	5	..........a	-327.66
	1057	211.6	5.69954E-001	2.91681E-008	0.00000E+000	5.70000E-001	9.67692E-004	5	..........a	-327.66
	1058	211.8	5.59945E-001	2.70754E-008	0.00000E+000	5.60000E-001	9.76592E-004	5	..........a	-327.66
	1059	212	5.50015E-001	2.50045E-008	0.00000E+000	5.50000E-001	9.51992E-004	5	..........a	-327.66
	1060	212.2	5.39977E-001	2.29515E-008	0.00000E+000	5.40000E-001	9.68392E-004	5	..........a	-327.66
	1061	212.4	5.29937E-001	2.09123E-008	0.00000E+000	5.30000E-001	9.71392E-004	5	..........a	-327.66
	1062	212.6	5.19955E-001	1.89534E-008	0.00000E+000	5.20000E-001	9.91792E-004	5	..........a	-327.66
	1063	212.8	5.09978E-001	1.70908E-008	0.00000E+000	5.10000E-001	9.77692E-004	5	..........a	-327.66
	1064	213	4.99987E-001	1.53515E-008	0.00000E+000	5.00000E-001	9.57592E-004	5	..........a	-327.66
	1065	213.2	4.89937E-001	1.36409E-008	0.00000E+000	4.90000E-001	9.60692E-004	5	..........a	-327.66
	1066	213.4	4.79915E-001	1.20070E-008	0.00000E+000	4.80000E-001	9.75092E-004	5	..........a	-327.66
	1067	213.6	4.70017E-001	1.03188E-008	0.00000E+000	4.70000E-001	9.68492E-004	5	..........a	-327.66
	1068	213.8	4.59988E-001	8.66890E-009	0.00000E+000	4.60000E-001	9.76892E-004	5	..........a	-327.66
	1069	214	4.49774E-001	6.94086E-009	0.00000E+000	4.50000E-001	9.82792E-004	5	..........a	-327.66
	1070	214.2	4.39959E-001	5.23978E-009	0.00000E+000	4.40000E-001	9.89392E-004	5	..........a	-327.66
	1071	214.4	4.29969E-001	3.50706E-009	0.00000E+000	4.30000E-001	9.67792E-004	5	..........a	-327.66
	1072	214.6	4.20012E-001	1.75517E-009	0.00000E+000	4.20000E-001	9.65992E-004	5	..........a	-327.66
	1073	214.8	4.09970E-001	-1.09328E-010	0.00000E+000	4.10000E-001	9.76592E-004	5	..........a	-327.66
	1074	215	3.99988E-001	-1.87740E-009	0.00000E+000	4.00000E-001	9.58392E-004	5	..........a	-327.66
	1075	215.2	3.90076E-001	-3.72504E-009	0.00000E+000	3.90000E-001	9.71492E-004	5	..........a	-327.66
	1076	215.4	3.80033E-001	-5.59283E-009	0.00000E+000	3.80000E-001	9.40292E-004	5	..........a	-327.66
	1077	215.6	3.70037E-001	-7.50194E-009	0.00000E+000	3.70000E-001	9.71692E-004	5	..........a	-327.66
	1078	215.8	3.60025E-001	-9.43739E-009	0.00000E+000	3.60000E-001	9.75992E-004	5	..........a	-327.66
	1079	216	3.50051E-001	-1.14872E-008	0.00000E+000	3.50000E-001	9.64192E-004	5	..........a	-327.66
	1080	216.2	3.40072E-001	-1.35736E-008	0.00000E+000	3.40000E-001	9.40892E-004	5	..........a	-327.66
	1081	216.4	3.30040E-001	-1.57186E-008	0.00000E+000	3.30000E-001	9.61392E-004	5	..........a	-327.66
	1082	216.6	3.20041E-001	-1.80202E-008	0.00000E+000	3.20000E-001	9.66292E-004	5	..........a	-327.66
	1083	216.8	3.10070E-001	-2.03852E-008	0.00000E+000	3.10000E-001	9.71192E-004	5	..........a	-327.66
	1084	217	3.00062E-001	-2.29223E-008	0.00000E+000	3.00000E-001	9.50192E-004	5	..........a	-327.66
	1085	217.2	2.90066E-001	-2.55388E-008	0.00000E+000	2.90000E-001	9.59092E-004	5	..........a	-327.66
	1086	217.4	2.79992E-001	-2.83342E-008	0.00000E+000	2.80000E-001	9.79192E-004	5	..........a	-327.66
	1087	217.6	2.70106E-001	-3.13670E-008	0.00000E+000	2.70000E-001	9.48392E-004	5	..........a	-327.66
	1088	217.8	2.60067E-001	-3.44850E-008	0.00000E+000	2.60000E-001	9.64692E-004	5	..........a	-327.66
	1089	218	2.49990E-001	-3.78127E-008	0.00000E+000	2.50000E-001	9.71092E-004	5	..........a	-327.66
	1090	218.2	2.40059E-001	-4.12674E-008	0.00000E+000	2.40000E-001	9.73792E-004	5	..........a	-327.66
	1091	218.4	2.30072E-001	-4.47304E-008	0.00000E+000	2.30000E-001	9.69592E-004	5	..........a	-327.66
	1092	218.6	2.20011E-001	-4.81995E-008	0.00000E+000	2.20000E-001	9.46092E-004	5	..........a	-327.66
	1093	218.8	2.10049E-001	-5.15441E-008	0.00000E+000	2.10000E-001	9.68592E-004	5	..........a	-327.66
	1094	219	2.00074E-001	-5.45445E-008	0.00000E+000	2.00000E-001	9.65392E-004	5	..........a	-327.66
	1095	219.2	1.90118E-001	-5.71300E-008	0.00000E+000	1.90000E-001	9.61492E-004	5	..........a	-327.66
	1096	219.4	1.80124E-001	-5.90288E-008	0.00000E+000	1.80000E-001	9.59292E-004	5	..........a	-327.66
	1097	219.6	1.70110E-001	-6.02488E-008	0.00000E+000	1.70000E-001	9.47992E-004	5	..........a	-327.66
	1098	219.8	1.60090E-001	-6.06003E-008	0.00000E+000	1.60000E-001	9.62792E-004	5	..........a	-327.66
	1099	220	1.50086E-001	-6.01285E-008	0.00000E+000	1.50000E-001	9.69292E-004	5	..........a	-327.66
	1100	220.2	1.40136E-001	-5.88658E-008	0.00000E+000	1.40000E-001	9.49892E-004	5	..........a	-327.66
	1101	220.4	1.30078E-001	-5.69873E-008	0.00000E+000	1.30000E-001	9.62692E-004	5	..........a	-327.66
	1102	220.6	1.20075E-001	-5.45957E-008	0.00000E+000	1.20000E-001	9.62892E-004	5	..........a	-327.66
	1103	220.8	1.10113E-001	-5.19248E-008	0.00000E+000	1.10000E-001	9.59092E-004	5	..........a	-327.66
	1104	221	1.00126E-001	-4.91996E-008	0.00000E+000	1.00000E-001	9.55292E-004	5	..........a	-327.66
	1105	221.2	9.01096E-002	-4.66590E-008	0.00000E+000	9.00000E-002	9.60092E-004	5	..........a	-327.66
	1106	221.4	8.00861E-002	-4.44055E-008	0.00000E+000	8.00000E-002	9.58192E-004	5	..........a	-327.66
	1107	221.6	7.00275E-002	-4.26220E-008	0.00000E+000	7.00000E-002	9.60692E-004	5	..........a	-327.66
	1108	221.8	6.01104E-002	-4.12319E-008	0.00000E+000	6.00000E-002	9.56092E-004	5	..........a	-327.66
	1109	222	5.00631E-002	-4.03401E-008	0.00000E+000	5.00000E-002	9.71592E-004	5	..........a	-327.66
	1110	222.2	4.00086E-002	-3.98993E-008	0.00000E+000	4.00000E-002	9.58892E-004	5	..........a	-327.66
	1111	222.4	3.00884E-002	-3.98036E-008	0.00000E+000	3.00000E-002	9.88492E-004	5	..........a	-327.66
	1112	222.6	2.01659E-002	-4.01213E-008	0.00000E+000	2.00000E-002	9.66692E-004	5	..........a	-327.66
	1113	222.8	1.01145E-002	-4.14180E-008	0.00000E+000	1.00000E-002	9.49292E-004	5	..........a	-327.66
	1114	223	2.59917E-005	-4.23897E-008	0.00000E+000	7.45058E-009	9.60292E-004	5	..........a	-327.66
	1115	223.2	-9.86701E-003	-4.03173E-008	0.00000E+000	-1.00000E-002	9.63292E-004	5	..........a	-327.66
	1116	223.4	-1.99176E-002	-4.05031E-008	0.00000E+000	-2.00000E-002	9.66092E-004	5	..........a	-327.66
	1117	223.6	-2.99308E-002	-4.11503E-008	0.00000E+000	-3.00000E-002	9.66992E-004	5	..........a	-327.66
	1118	223.8	-3.99208E-002	-4.16306E-008	0.00000E+000	-4.00000E-002	9.51192E-004	5	..........a	-327.66
	1119	224	-4.99242E-002	-4.21867E-008	0.00000E+000	-5.00000E-002	9.57992E-004	5	..........a	-327.66
	1120	224.2	-5.98952E-002	-4.28514E-008	0.00000E+000	-6.00000E-002	9.53992E-004	5	..........a	-327.66