File: data/raw/batch_data/20240321_ZU_GM0016_HL03_E12_CV50.DTA
EXPLAIN
TAG	CV
TITLE	LABEL	Cyclic Voltammetry	Test &Identifier
DATE	LABEL	3/21/2024	Date
TIME	LABEL	19:10:14	Time
NOTES	NOTES	1	&Notes...

PSTAT	PSTAT	REF600P-43058	Potentiostat
VINIT	POTEN	0.00000E+000	T	Initial &E (V)
VLIMIT1	POTEN	-6.00000E-001	F	Scan Limit &1 (V)
VLIMIT2	POTEN	8.00000E-001	F	Scan Limit &2 (V)
VFINAL	POTEN	0.00000E+000	T	Final &E (V)
SCANRATE	QUANT	4.99999E+001	&Scan Rate (mV/s)
STEPSIZE	QUANT	1.00000E+001	St&ep Size (mV)
CYCLES	IQUANT	4	C&ycles (#)
IMODE	SELECTOR	1	I/E Range &Mode
IRANGE	QUANT	1.00000E-005	&Max Current (mA)
AREA	QUANT	1.00000E+000	Electrode &Area (cm^2)
ELECTRODETYPE	SELECTOR	0	Electrode Type
STRIPPING	TOGGLE	F	Used for Stripping
POLARITY	TOGGLE	F	Signal Polarity
CONDIT	TWOPARAM	F	1.50000E+001	0.00000E+000	Conditionin&g	Time(s)	E(V)
DELAY	TWOPARAM	T	1.00000E+001	0.00000E+000	Init. De&lay	Time(s)	Stab.(mV/s)
EQDELAY	QUANT	1.00000E+001	Equil. &Time (s)
IRCOMP	SELECTOR	0	IRCom&p
PFCOR	QUANT	5.00000E+001	PF Corr. (ohm)
SAMPLINGMODE	SELECTOR	1	Sampling &Mode
OCVCURVE	TABLE	39
	Pt	T	Vf	Vm	Ach	Over	Temp
	#	s	V vs. Ref.	V	V	bits	deg C
	0	0.258333	2.20360E-001	2.20360E-001	2.55422E-004	..........a	-327.66
	1	0.516667	2.20359E-001	2.20313E-001	2.36022E-004	..........a	-327.66
	2	0.775	2.20355E-001	2.20345E-001	2.34956E-004	..........a	-327.66
	3	1.03333	2.20349E-001	2.20421E-001	2.35622E-004	..........a	-327.66
	4	1.29167	2.20353E-001	2.20521E-001	2.41156E-004	..........a	-327.66
	5	1.55	2.20380E-001	2.20639E-001	2.39489E-004	..........a	-327.66
	6	1.80833	2.20439E-001	2.20767E-001	2.37489E-004	..........a	-327.66
	7	2.06667	2.20527E-001	2.20890E-001	2.36822E-004	..........a	-327.66
	8	2.325	2.20635E-001	2.21024E-001	2.29756E-004	..........a	-327.66
	9	2.58333	2.20756E-001	2.21165E-001	2.18289E-004	..........a	-327.66
	10	2.84167	2.20884E-001	2.21312E-001	2.33222E-004	..........a	-327.66
	11	3.1	2.21018E-001	2.21468E-001	2.52022E-004	..........a	-327.66
	12	3.35833	2.21159E-001	2.21609E-001	2.40822E-004	..........a	-327.66
	13	3.61667	2.21304E-001	2.21763E-001	2.47156E-004	..........a	-327.66
	14	3.875	2.21451E-001	2.21910E-001	2.24622E-004	..........a	-327.66
	15	4.13333	2.21600E-001	2.22060E-001	2.60089E-004	..........a	-327.66
	16	4.39167	2.21750E-001	2.22209E-001	2.62156E-004	..........a	-327.66
	17	4.65	2.21899E-001	2.22364E-001	2.35756E-004	..........a	-327.66
	18	4.90833	2.22049E-001	2.22518E-001	2.29956E-004	..........a	-327.66
	19	5.16667	2.22200E-001	2.22668E-001	2.28356E-004	..........a	-327.66
	20	5.425	2.22352E-001	2.22824E-001	2.37489E-004	..........a	-327.66
	21	5.68333	2.22505E-001	2.22976E-001	2.28622E-004	..........a	-327.66
	22	5.94167	2.22658E-001	2.23129E-001	2.42556E-004	..........a	-327.66
	23	6.2	2.22811E-001	2.23275E-001	2.38556E-004	..........a	-327.66
	24	6.45833	2.22963E-001	2.23424E-001	2.33822E-004	..........a	-327.66
	25	6.71667	2.23114E-001	2.23570E-001	2.49422E-004	..........a	-327.66
	26	6.975	2.23264E-001	2.23724E-001	2.16289E-004	..........a	-327.66
	27	7.23333	2.23413E-001	2.23873E-001	2.43156E-004	..........a	-327.66
	28	7.49167	2.23562E-001	2.24028E-001	2.31756E-004	..........a	-327.66
	29	7.75	2.23712E-001	2.24169E-001	2.38756E-004	..........a	-327.66
	30	8.00833	2.23862E-001	2.24322E-001	2.49822E-004	..........a	-327.66
	31	8.26667	2.24012E-001	2.24465E-001	2.50489E-004	..........a	-327.66
	32	8.525	2.24160E-001	2.24607E-001	2.33489E-004	..........a	-327.66
	33	8.78333	2.24307E-001	2.24748E-001	2.36889E-004	..........a	-327.66
	34	9.04167	2.24452E-001	2.24886E-001	2.29622E-004	..........a	-327.66
	35	9.3	2.24595E-001	2.25030E-001	2.26489E-004	..........a	-327.66
	36	9.5583	2.24737E-001	2.25173E-001	2.52022E-004	..........a	-327.66
	37	9.8167	2.24878E-001	2.25309E-001	2.34889E-004	..........a	-327.66
	38	10.075	2.25018E-001	2.25451E-001	2.39889E-004	..........a	-327.66
EOC	QUANT	0.2250185	Open Circuit (V)
PSTATMODEL	IQUANT	7	Pstat Model
PSTATSECTION	LABEL	REF600P-43058	Pstat Section
PSTATSERIALNO	LABEL	43058	Pstat Serial Number
CTRLMODE	IQUANT	1	Control Mode
ELECTROMETER	IQUANT	0	RE=0 or CS=1
IESTAB	IQUANT	2	I/E Stability
CASPEED	IQUANT	4	Control Amp Speed
CONVENTION	IQUANT	1	Current Convention
ICHRANGE	IQUANT	2	Ich Range
ICHRANGEMODE	TOGGLE	F	Ich Auto Range
ICHOFFSETENABLE	TOGGLE	F	Ich Offset Enable
ICHOFFSET	QUANT	0	Ich Offset (V)
ICHFILTER	IQUANT	2	Ich Filter
VCHRANGE	IQUANT	2	Vch Range
VCHRANGEMODE	TOGGLE	F	Vch Auto Range
VCHOFFSETENABLE	TOGGLE	F	Vch Offset Enable
VCHOFFSET	QUANT	0	Vch Offset (V)
VCHFILTER	IQUANT	2	Vch Filter
ACHRANGE	IQUANT	2	Ach Range
ACHOFFSETENABLE	TOGGLE	F	Ach Offset Enable
ACHOFFSET	QUANT	0	Ach Offset (V)
ACHFILTER	IQUANT	1	Ach Filter
IERANGELOWERLIMIT	IQUANT	1	I/E Range Lower Limit
IERANGEMODE	TOGGLE	F	I/E AutoRange
IERANGE	IQUANT	4	I/E Range
POSFEEDENABLE	TOGGLE	F	Positive Feedback IR Comp
POSFEEDRESISTANCE	QUANT	0	Positive Feedback Resistance (ohm)
ACHSELECT	IQUANT	4	Ach Select
SENSECABLEID	IQUANT	7	Sense Cable ID
PWRCABLEID	IQUANT	7	Power Cable ID
DCCALDATE	LABEL	12/18/2023	DC Calibration Date
ACCALDATE	LABEL	12/18/2023	AC Calibration Date
THERMOSELECT	IQUANT	1	Thermo Select
FRAMEWORKVERSION	LABEL	7.8.4	Framework Version
INSTRUMENTVERSION	LABEL	4.42	Instrument Version
CURVE1	TABLE
	Pt	T	Vf	Im	Vu	Sig	Ach	IERange	Over	Temp
	#	s	V vs. Ref.	A	V	V	V	#	bits	deg C
	0	0.2	2.24977E-001	3.29431E-011	0.00000E+000	2.25000E-001	9.84822E-004	4	..........a	-327.66
	1	0.4	2.15026E-001	-2.44329E-012	0.00000E+000	2.15000E-001	1.00122E-003	4	..........a	-327.66
	2	0.6	2.04940E-001	-1.30587E-011	0.00000E+000	2.05000E-001	1.02252E-003	4	..........a	-327.66
	3	0.8	1.94951E-001	-2.00130E-011	0.00000E+000	1.95000E-001	1.04322E-003	4	..........a	-327.66
	4	1	1.85020E-001	-2.73763E-011	0.00000E+000	1.85000E-001	9.88722E-004	4	..........a	-327.66
	5	1.2	1.75128E-001	-3.27865E-011	0.00000E+000	1.75000E-001	1.03652E-003	4	..........a	-327.66
	6	1.4	1.65019E-001	-3.64146E-011	0.00000E+000	1.65000E-001	1.00902E-003	4	..........a	-327.66
	7	1.6	1.55013E-001	-3.81977E-011	0.00000E+000	1.55000E-001	1.01332E-003	4	..........a	-327.66
	8	1.8	1.45024E-001	-4.10558E-011	0.00000E+000	1.45000E-001	1.00322E-003	4	..........a	-327.66
	9	2	1.35089E-001	-4.35649E-011	0.00000E+000	1.35000E-001	9.98522E-004	4	..........a	-327.66
	10	2.2	1.25012E-001	-4.64750E-011	0.00000E+000	1.25000E-001	1.01922E-003	4	..........a	-327.66
	11	2.4	1.15028E-001	-4.93941E-011	0.00000E+000	1.15000E-001	1.00102E-003	4	..........a	-327.66
	12	2.6	1.05035E-001	-5.24502E-011	0.00000E+000	1.05000E-001	1.01992E-003	4	..........a	-327.66
	13	2.8	9.51834E-002	-5.40913E-011	0.00000E+000	9.50000E-002	1.02542E-003	4	..........a	-327.66
	14	3	8.50299E-002	-5.67354E-011	0.00000E+000	8.50000E-002	1.01512E-003	4	..........a	-327.66
	15	3.2	7.50055E-002	-5.79994E-011	0.00000E+000	7.50000E-002	1.02782E-003	4	..........a	-327.66
	16	3.4	6.50077E-002	-6.09275E-011	0.00000E+000	6.50000E-002	1.02452E-003	4	..........a	-327.66
	17	3.6	5.51114E-002	-6.37117E-011	0.00000E+000	5.50000E-002	1.03572E-003	4	..........a	-327.66
	18	3.8	4.50079E-002	-6.58117E-011	0.00000E+000	4.50000E-002	9.92022E-004	4	..........a	-327.66
	19	4	3.50049E-002	-6.77528E-011	0.00000E+000	3.50000E-002	1.03972E-003	4	..........a	-327.66
	20	4.2	2.50072E-002	-6.72678E-011	0.00000E+000	2.50000E-002	1.01822E-003	4	..........a	-327.66
	21	4.4	1.51514E-002	-7.02719E-011	0.00000E+000	1.50000E-002	1.01212E-003	4	..........a	-327.66
	22	4.6	5.02744E-003	-7.22750E-011	0.00000E+000	5.00000E-003	9.97022E-004	4	..........a	-327.66
	23	4.8	-4.99156E-003	-7.35500E-011	0.00000E+000	-5.00000E-003	9.87022E-004	4	..........a	-327.66
	24	5	-1.49884E-002	-7.51121E-011	0.00000E+000	-1.50000E-002	1.02492E-003	4	..........a	-327.66
	25	5.2	-2.49460E-002	-7.74712E-011	0.00000E+000	-2.50000E-002	9.86322E-004	4	..........a	-327.66
	26	5.4	-3.50102E-002	-7.96723E-011	0.00000E+000	-3.50000E-002	1.03872E-003	4	..........a	-327.66
	27	5.6	-4.50055E-002	-8.18293E-011	0.00000E+000	-4.50000E-002	1.04432E-003	4	..........a	-327.66
	28	5.8	-5.49942E-002	-8.35474E-011	0.00000E+000	-5.50000E-002	1.01972E-003	4	..........a	-327.66
	29	6	-6.49619E-002	-8.57585E-011	0.00000E+000	-6.50000E-002	9.90222E-004	4	..........a	-327.66
	30	6.2	-7.49843E-002	-8.80206E-011	0.00000E+000	-7.50000E-002	1.02362E-003	4	..........a	-327.66
	31	6.4	-8.50005E-002	-9.01677E-011	0.00000E+000	-8.50000E-002	9.88422E-004	4	..........a	-327.66
	32	6.6	-9.49842E-002	-9.25738E-011	0.00000E+000	-9.50000E-002	9.99922E-004	4	..........a	-327.66
	33	6.8	-1.04892E-001	-9.52549E-011	0.00000E+000	-1.05000E-001	1.00392E-003	4	..........a	-327.66
	34	7	-1.15002E-001	-9.78010E-011	0.00000E+000	-1.15000E-001	1.01902E-003	4	..........a	-327.66
	35	7.2	-1.25019E-001	-1.01607E-010	0.00000E+000	-1.25000E-001	9.87322E-004	4	..........a	-327.66
	36	7.4	-1.35005E-001	-1.03623E-010	0.00000E+000	-1.35000E-001	1.03702E-003	4	..........a	-327.66
	37	7.6	-1.44959E-001	-1.06513E-010	0.00000E+000	-1.45000E-001	9.83222E-004	4	..........a	-327.66
	38	7.8	-1.55002E-001	-1.09238E-010	0.00000E+000	-1.55000E-001	9.93122E-004	4	..........a	-327.66
	39	8	-1.64954E-001	-1.12554E-010	0.00000E+000	-1.65000E-001	9.88422E-004	4	..........a	-327.66
	40	8.2	-1.74998E-001	-1.16526E-010	0.00000E+000	-1.75000E-001	1.00542E-003	4	..........a	-327.66
	41	8.4	-1.84827E-001	-1.19121E-010	0.00000E+000	-1.85000E-001	1.00872E-003	4	..........a	-327.66
	42	8.6	-1.94991E-001	-1.23487E-010	0.00000E+000	-1.95000E-001	1.02882E-003	4	..........a	-327.66
	43	8.8	-2.04997E-001	-1.25493E-010	0.00000E+000	-2.05000E-001	1.01182E-003	4	..........a	-327.66
	44	9	-2.15002E-001	-1.31107E-010	0.00000E+000	-2.15000E-001	1.01932E-003	4	..........a	-327.66
	45	9.2	-2.24889E-001	-1.32375E-010	0.00000E+000	-2.25000E-001	1.01022E-003	4	..........a	-327.66
	46	9.4	-2.34994E-001	-1.38270E-010	0.00000E+000	-2.35000E-001	9.85522E-004	4	..........a	-327.66
	47	9.6	-2.44996E-001	-1.42385E-010	0.00000E+000	-2.45000E-001	1.00132E-003	4	..........a	-327.66
	48	9.8	-2.54983E-001	-1.47616E-010	0.00000E+000	-2.55000E-001	1.00402E-003	4	..........a	-327.66
	49	10	-2.64799E-001	-1.52642E-010	0.00000E+000	-2.65000E-001	1.00102E-003	4	..........a	-327.66
	50	10.2	-2.74964E-001	-1.59243E-010	0.00000E+000	-2.75000E-001	9.89322E-004	4	..........a	-327.66
	51	10.4	-2.84976E-001	-1.65372E-010	0.00000E+000	-2.85000E-001	1.01892E-003	4	..........a	-327.66
	52	10.6	-2.94971E-001	-1.71063E-010	0.00000E+000	-2.95000E-001	1.01032E-003	4	..........a	-327.66
	53	10.8	-3.04851E-001	-1.79021E-010	0.00000E+000	-3.05000E-001	9.84222E-004	4	..........a	-327.66
	54	11	-3.14987E-001	-1.86344E-010	0.00000E+000	-3.15000E-001	1.00062E-003	4	..........a	-327.66
	55	11.2	-3.24996E-001	-1.94879E-010	0.00000E+000	-3.25000E-001	1.03382E-003	4	..........a	-327.66
	56	11.4	-3.34987E-001	-2.03121E-010	0.00000E+000	-3.35000E-001	1.02242E-003	4	..........a	-327.66
	57	11.6	-3.44858E-001	-2.12094E-010	0.00000E+000	-3.45000E-001	1.04622E-003	4	..........a	-327.66
	58	11.8	-3.54975E-001	-2.23025E-010	0.00000E+000	-3.55000E-001	1.00932E-003	4	..........a	-327.66
	59	12	-3.64957E-001	-2.32249E-010	0.00000E+000	-3.65000E-001	1.01642E-003	4	..........a	-327.66
	60	12.2	-3.74960E-001	-2.43733E-010	0.00000E+000	-3.75000E-001	9.87222E-004	4	..........a	-327.66
	61	12.4	-3.84852E-001	-2.55716E-010	0.00000E+000	-3.85000E-001	1.03232E-003	4	..........a	-327.66
	62	12.6	-3.95002E-001	-2.67177E-010	0.00000E+000	-3.95000E-001	9.92122E-004	4	..........a	-327.66
	63	12.8	-4.04964E-001	-2.84798E-010	0.00000E+000	-4.05000E-001	1.02022E-003	4	..........a	-327.66
	64	13	-4.14949E-001	-2.93337E-010	0.00000E+000	-4.15000E-001	1.01352E-003	4	..........a	-327.66
	65	13.2	-4.24909E-001	-3.06925E-010	0.00000E+000	-4.25000E-001	1.01662E-003	4	..........a	-327.66
	66	13.4	-4.34966E-001	-3.22006E-010	0.00000E+000	-4.35000E-001	9.92222E-004	4	..........a	-327.66
	67	13.6	-4.44867E-001	-3.35398E-010	0.00000E+000	-4.45000E-001	9.93422E-004	4	..........a	-327.66
	68	13.8	-4.54957E-001	-3.49529E-010	0.00000E+000	-4.55000E-001	9.86722E-004	4	..........a	-327.66
	69	14	-4.64821E-001	-3.58401E-010	0.00000E+000	-4.65000E-001	1.01352E-003	4	..........a	-327.66
	70	14.2	-4.74941E-001	-3.84113E-010	0.00000E+000	-4.75000E-001	1.02192E-003	4	..........a	-327.66
	71	14.4	-4.84975E-001	-4.01232E-010	0.00000E+000	-4.85000E-001	1.01522E-003	4	..........a	-327.66
	72	14.6	-4.94943E-001	-4.19850E-010	0.00000E+000	-4.95000E-001	9.73922E-004	4	..........a	-327.66
	73	14.8	-5.04864E-001	-4.38840E-010	0.00000E+000	-5.05000E-001	9.87722E-004	4	..........a	-327.66
	74	15	-5.14959E-001	-4.58775E-010	0.00000E+000	-5.15000E-001	9.94922E-004	4	..........a	-327.66
	75	15.2	-5.24812E-001	-4.77619E-010	0.00000E+000	-5.25000E-001	9.94422E-004	4	..........a	-327.66
	76	15.4	-5.34952E-001	-5.00556E-010	0.00000E+000	-5.35000E-001	1.01012E-003	4	..........a	-327.66
	77	15.6	-5.44842E-001	-5.23450E-010	0.00000E+000	-5.45000E-001	9.96522E-004	4	..........a	-327.66
	78	15.8	-5.54943E-001	-5.47768E-010	0.00000E+000	-5.55000E-001	1.01152E-003	4	..........a	-327.66
	79	16	-5.64914E-001	-5.72129E-010	0.00000E+000	-5.65000E-001	1.02202E-003	4	..........a	-327.66
	80	16.2	-5.74942E-001	-5.95945E-010	0.00000E+000	-5.75000E-001	1.01872E-003	4	..........a	-327.66
	81	16.4	-5.84839E-001	-6.23753E-010	0.00000E+000	-5.85000E-001	9.96122E-004	4	..........a	-327.66
	82	16.6	-5.94930E-001	-6.54100E-010	0.00000E+000	-5.95000E-001	1.01312E-003	4	..........a	-327.66
	83	16.8	-5.84855E-001	-4.58875E-010	0.00000E+000	-5.85000E-001	9.97822E-004	4	..........a	-327.66
	84	17	-5.74961E-001	-3.52054E-010	0.00000E+000	-5.75000E-001	1.01092E-003	4	..........a	-327.66
	85	17.2	-5.64874E-001	-2.91809E-010	0.00000E+000	-5.65000E-001	1.00532E-003	4	..........a	-327.66
	86	17.4	-5.54944E-001	-2.34417E-010	0.00000E+000	-5.55000E-001	9.83022E-004	4	..........a	-327.66
	87	17.6	-5.44839E-001	-1.93317E-010	0.00000E+000	-5.45000E-001	1.02152E-003	4	..........a	-327.66
	88	17.8	-5.34938E-001	-1.59680E-010	0.00000E+000	-5.35000E-001	1.00292E-003	4	..........a	-327.66
	89	18	-5.24967E-001	-1.30188E-010	0.00000E+000	-5.25000E-001	9.90522E-004	4	..........a	-327.66
	90	18.2	-5.14941E-001	-1.05272E-010	0.00000E+000	-5.15000E-001	1.02702E-003	4	..........a	-327.66
	91	18.4	-5.04864E-001	-8.46224E-011	0.00000E+000	-5.05000E-001	1.02292E-003	4	..........a	-327.66
	92	18.6	-4.94932E-001	-6.64677E-011	0.00000E+000	-4.95000E-001	9.97322E-004	4	..........a	-327.66
	93	18.8	-4.84929E-001	-4.92071E-011	0.00000E+000	-4.85000E-001	1.02812E-003	4	..........a	-327.66
	94	19	-4.74933E-001	-3.57426E-011	0.00000E+000	-4.75000E-001	1.02232E-003	4	..........a	-327.66
	95	19.2	-4.64804E-001	-2.09940E-011	0.00000E+000	-4.65000E-001	1.01002E-003	4	..........a	-327.66
	96	19.4	-4.54943E-001	-7.59849E-012	0.00000E+000	-4.55000E-001	1.01562E-003	4	..........a	-327.66
	97	19.6	-4.44941E-001	3.15692E-012	0.00000E+000	-4.45000E-001	1.00862E-003	4	..........a	-327.66
	98	19.8	-4.34962E-001	1.29543E-011	0.00000E+000	-4.35000E-001	1.00382E-003	4	..........a	-327.66
	99	20	-4.24879E-001	2.37387E-011	0.00000E+000	-4.25000E-001	1.01262E-003	4	..........a	-327.66
	100	20.2	-4.14976E-001	3.24980E-011	0.00000E+000	-4.15000E-001	9.92122E-004	4	..........a	-327.66
	101	20.4	-4.04986E-001	3.81233E-011	0.00000E+000	-4.05000E-001	1.00152E-003	4	..........a	-327.66
	102	20.6	-3.95238E-001	4.55935E-011	0.00000E+000	-3.95000E-001	1.02522E-003	4	..........a	-327.66
	103	20.8	-3.84859E-001	5.27208E-011	0.00000E+000	-3.85000E-001	9.99422E-004	4	..........a	-327.66
	104	21	-3.74949E-001	5.84860E-011	0.00000E+000	-3.75000E-001	9.92022E-004	4	..........a	-327.66
	105	21.2	-3.64984E-001	6.49993E-011	0.00000E+000	-3.65000E-001	1.02802E-003	4	..........a	-327.66
	106	21.4	-3.54962E-001	6.86444E-011	0.00000E+000	-3.55000E-001	9.92722E-004	4	..........a	-327.66
	107	21.6	-3.44832E-001	7.48917E-011	0.00000E+000	-3.45000E-001	1.01982E-003	4	..........a	-327.66
	108	21.8	-3.34963E-001	7.92278E-011	0.00000E+000	-3.35000E-001	1.00102E-003	4	..........a	-327.66
	109	22	-3.24937E-001	8.41390E-011	0.00000E+000	-3.25000E-001	1.00162E-003	4	..........a	-327.66
	110	22.2	-3.14962E-001	8.83042E-011	0.00000E+000	-3.15000E-001	1.03702E-003	4	..........a	-327.66
	111	22.4	-3.04868E-001	9.07003E-011	0.00000E+000	-3.05000E-001	9.76822E-004	4	..........a	-327.66
	112	22.6	-2.94962E-001	9.24583E-011	0.00000E+000	-2.95000E-001	1.01062E-003	4	..........a	-327.66
	113	22.8	-2.84934E-001	9.60605E-011	0.00000E+000	-2.85000E-001	1.01602E-003	4	..........a	-327.66
	114	23	-2.74936E-001	9.84996E-011	0.00000E+000	-2.75000E-001	1.00432E-003	4	..........a	-327.66
	115	23.2	-2.64829E-001	1.02159E-010	0.00000E+000	-2.65000E-001	1.01352E-003	4	..........a	-327.66
	116	23.4	-2.54949E-001	1.05069E-010	0.00000E+000	-2.55000E-001	1.00302E-003	4	..........a	-327.66
	117	23.6	-2.44989E-001	1.07453E-010	0.00000E+000	-2.45000E-001	1.02772E-003	4	..........a	-327.66
	118	23.8	-2.34962E-001	1.09591E-010	0.00000E+000	-2.35000E-001	1.00882E-003	4	..........a	-327.66
	119	24	-2.24864E-001	1.15726E-010	0.00000E+000	-2.25000E-001	9.86622E-004	4	..........a	-327.66
	120	24.2	-2.14967E-001	1.14294E-010	0.00000E+000	-2.15000E-001	9.84922E-004	4	..........a	-327.66
	121	24.4	-2.05007E-001	1.22427E-010	0.00000E+000	-2.05000E-001	1.00572E-003	4	..........a	-327.66
	122	24.6	-1.94976E-001	1.17719E-010	0.00000E+000	-1.95000E-001	9.96222E-004	4	..........a	-327.66
	123	24.8	-1.84880E-001	1.19872E-010	0.00000E+000	-1.85000E-001	1.00682E-003	4	..........a	-327.66
	124	25	-1.75000E-001	1.26090E-010	0.00000E+000	-1.75000E-001	9.81322E-004	4	..........a	-327.66
	125	25.2	-1.65019E-001	1.22096E-010	0.00000E+000	-1.65000E-001	9.93622E-004	4	..........a	-327.66
	126	25.4	-1.54993E-001	1.27474E-010	0.00000E+000	-1.55000E-001	1.02252E-003	4	..........a	-327.66
	127	25.6	-1.44928E-001	1.25588E-010	0.00000E+000	-1.45000E-001	1.01462E-003	4	..........a	-327.66
	128	25.8	-1.35007E-001	1.28112E-010	0.00000E+000	-1.35000E-001	1.01502E-003	4	..........a	-327.66
	129	26	-1.25007E-001	1.28431E-010	0.00000E+000	-1.25000E-001	1.02362E-003	4	..........a	-327.66
	130	26.2	-1.15004E-001	1.29509E-010	0.00000E+000	-1.15000E-001	1.00342E-003	4	..........a	-327.66
	131	26.4	-1.04843E-001	1.31196E-010	0.00000E+000	-1.05000E-001	1.01372E-003	4	..........a	-327.66
	132	26.6	-9.49808E-002	1.31469E-010	0.00000E+000	-9.50000E-002	1.00612E-003	4	..........a	-327.66
	133	26.8	-8.49819E-002	1.33671E-010	0.00000E+000	-8.50000E-002	1.01702E-003	4	..........a	-327.66
	134	27	-7.49806E-002	1.35048E-010	0.00000E+000	-7.50000E-002	9.78022E-004	4	..........a	-327.66
	135	27.2	-6.49431E-002	1.36254E-010	0.00000E+000	-6.50000E-002	1.02872E-003	4	..........a	-327.66
	136	27.4	-5.49670E-002	1.37881E-010	0.00000E+000	-5.50000E-002	1.01402E-003	4	..........a	-327.66
	137	27.6	-4.49824E-002	1.39813E-010	0.00000E+000	-4.50000E-002	1.02262E-003	4	..........a	-327.66
	138	27.8	-3.49903E-002	1.41604E-010	0.00000E+000	-3.50000E-002	1.01652E-003	4	..........a	-327.66
	139	28	-2.48902E-002	1.47077E-010	0.00000E+000	-2.50000E-002	9.91422E-004	4	..........a	-327.66
	140	28.2	-1.49909E-002	1.49412E-010	0.00000E+000	-1.50000E-002	1.01612E-003	4	..........a	-327.66
	141	28.4	-5.01751E-003	1.52606E-010	0.00000E+000	-5.00000E-003	1.00242E-003	4	..........a	-327.66
	142	28.6	5.04154E-003	1.50691E-010	0.00000E+000	5.00000E-003	9.97222E-004	4	..........a	-327.66
	143	28.8	1.44777E-002	1.57510E-010	0.00000E+000	1.50000E-002	1.03212E-003	4	..........a	-327.66
	144	29	2.50112E-002	1.55939E-010	0.00000E+000	2.50000E-002	1.01602E-003	4	..........a	-327.66
	145	29.2	3.50235E-002	1.60125E-010	0.00000E+000	3.50000E-002	1.03062E-003	4	..........a	-327.66
	146	29.4	4.50485E-002	1.59129E-010	0.00000E+000	4.50000E-002	9.97222E-004	4	..........a	-327.66
	147	29.6	5.51075E-002	1.61395E-010	0.00000E+000	5.50000E-002	9.92922E-004	4	..........a	-327.66
	148	29.8	6.50381E-002	1.67627E-010	0.00000E+000	6.50000E-002	1.01812E-003	4	..........a	-327.66
	149	30	7.49794E-002	1.70513E-010	0.00000E+000	7.50000E-002	1.00482E-003	4	..........a	-327.66
	150	30.2	8.50343E-002	1.72844E-010	0.00000E+000	8.50000E-002	1.01492E-003	4	..........a	-327.66
	151	30.4	9.51352E-002	1.77961E-010	0.00000E+000	9.50000E-002	1.02362E-003	4	..........a	-327.66
	152	30.6	1.05025E-001	1.79077E-010	0.00000E+000	1.05000E-001	9.95422E-004	4	..........a	-327.66
	153	30.8	1.15018E-001	1.85861E-010	0.00000E+000	1.15000E-001	9.95622E-004	4	..........a	-327.66
	154	31	1.25047E-001	1.86950E-010	0.00000E+000	1.25000E-001	1.00892E-003	4	..........a	-327.66
	155	31.2	1.35129E-001	1.90451E-010	0.00000E+000	1.35000E-001	1.02882E-003	4	..........a	-327.66
	156	31.4	1.45025E-001	1.95826E-010	0.00000E+000	1.45000E-001	1.02002E-003	4	..........a	-327.66
	157	31.6	1.55018E-001	2.00064E-010	0.00000E+000	1.55000E-001	9.99222E-004	4	..........a	-327.66
	158	31.8	1.65035E-001	2.04713E-010	0.00000E+000	1.65000E-001	9.97022E-004	4	..........a	-327.66
	159	32	1.75150E-001	2.10842E-010	0.00000E+000	1.75000E-001	9.97522E-004	4	..........a	-327.66
	160	32.2	1.85039E-001	2.15974E-010	0.00000E+000	1.85000E-001	9.95122E-004	4	..........a	-327.66
	161	32.4	1.95017E-001	2.19953E-010	0.00000E+000	1.95000E-001	1.01882E-003	4	..........a	-327.66
	162	32.6	2.04961E-001	2.25574E-010	0.00000E+000	2.05000E-001	9.98122E-004	4	..........a	-327.66
	163	32.8	2.15078E-001	2.36011E-010	0.00000E+000	2.15000E-001	9.91522E-004	4	..........a	-327.66
	164	33	2.24954E-001	2.44677E-010	0.00000E+000	2.25000E-001	1.01152E-003	4	..........a	-327.66
	165	33.2	2.34974E-001	2.54818E-010	0.00000E+000	2.35000E-001	1.02552E-003	4	..........a	-327.66
	166	33.4	2.44995E-001	2.64577E-010	0.00000E+000	2.45000E-001	1.01852E-003	4	..........a	-327.66
	167	33.6	2.55083E-001	2.75287E-010	0.00000E+000	2.55000E-001	1.00242E-003	4	..........a	-327.66
	168	33.8	2.64987E-001	2.86434E-010	0.00000E+000	2.65000E-001	1.00162E-003	4	..........a	-327.66
	169	34	2.74884E-001	2.99904E-010	0.00000E+000	2.75000E-001	1.01802E-003	4	..........a	-327.66
	170	34.2	2.84983E-001	3.12769E-010	0.00000E+000	2.85000E-001	1.01782E-003	4	..........a	-327.66
	171	34.4	2.95128E-001	3.28091E-010	0.00000E+000	2.95000E-001	1.00912E-003	4	..........a	-327.66
	172	34.6	3.04971E-001	3.43252E-010	0.00000E+000	3.05000E-001	1.00712E-003	4	..........a	-327.66
	173	34.8	3.15007E-001	3.59730E-010	0.00000E+000	3.15000E-001	9.81222E-004	4	..........a	-327.66
	174	35	3.24967E-001	3.76711E-010	0.00000E+000	3.25000E-001	1.01472E-003	4	..........a	-327.66
	175	35.2	3.35122E-001	3.94551E-010	0.00000E+000	3.35000E-001	1.00022E-003	4	..........a	-327.66
	176	35.4	3.45016E-001	4.11876E-010	0.00000E+000	3.45000E-001	1.00792E-003	4	..........a	-327.66
	177	35.6	3.54975E-001	4.30589E-010	0.00000E+000	3.55000E-001	1.03072E-003	4	..........a	-327.66
	178	35.8	3.65008E-001	4.47601E-010	0.00000E+000	3.65000E-001	1.03422E-003	4	..........a	-327.66
	179	36	3.75118E-001	4.66150E-010	0.00000E+000	3.75000E-001	1.02232E-003	4	..........a	-327.66
	180	36.2	3.84983E-001	4.82658E-010	0.00000E+000	3.85000E-001	1.03942E-003	4	..........a	-327.66
	181	36.4	3.94987E-001	5.01533E-010	0.00000E+000	3.95000E-001	1.00342E-003	4	..........a	-327.66
	182	36.6	4.04968E-001	5.17290E-010	0.00000E+000	4.05000E-001	9.97122E-004	4	..........a	-327.66
	183	36.8	4.15022E-001	5.34202E-010	0.00000E+000	4.15000E-001	1.02122E-003	4	..........a	-327.66
	184	37	4.24934E-001	5.50320E-010	0.00000E+000	4.25000E-001	1.02432E-003	4	..........a	-327.66
	185	37.2	4.34893E-001	5.67233E-010	0.00000E+000	4.35000E-001	9.87722E-004	4	..........a	-327.66
	186	37.4	4.44990E-001	5.80821E-010	0.00000E+000	4.45000E-001	1.01872E-003	4	..........a	-327.66
	187	37.6	4.55063E-001	5.96093E-010	0.00000E+000	4.55000E-001	1.01202E-003	4	..........a	-327.66
	188	37.8	4.64945E-001	6.08867E-010	0.00000E+000	4.65000E-001	1.01132E-003	4	..........a	-327.66
	189	38	4.74849E-001	6.24307E-010	0.00000E+000	4.75000E-001	1.02602E-003	4	..........a	-327.66
	190	38.2	4.84962E-001	6.42072E-010	0.00000E+000	4.85000E-001	1.03282E-003	4	..........a	-327.66
	191	38.4	4.95030E-001	6.51248E-010	0.00000E+000	4.95000E-001	1.01532E-003	4	..........a	-327.66
	192	38.6	5.04935E-001	6.62302E-010	0.00000E+000	5.05000E-001	9.98122E-004	4	..........a	-327.66
	193	38.8	5.14925E-001	6.74231E-010	0.00000E+000	5.15000E-001	1.00782E-003	4	..........a	-327.66
	194	39	5.24953E-001	6.88118E-010	0.00000E+000	5.25000E-001	1.04062E-003	4	..........a	-327.66
	195	39.2	5.35083E-001	6.99859E-010	0.00000E+000	5.35000E-001	1.00092E-003	4	..........a	-327.66
	196	39.4	5.44992E-001	7.11473E-010	0.00000E+000	5.45000E-001	1.01412E-003	4	..........a	-327.66
	197	39.6	5.54957E-001	7.22540E-010	0.00000E+000	5.55000E-001	9.88022E-004	4	..........a	-327.66
	198	39.8	5.64942E-001	7.32963E-010	0.00000E+000	5.65000E-001	9.83222E-004	4	..........a	-327.66
	199	40	5.74990E-001	7.44934E-010	0.00000E+000	5.75000E-001	1.02612E-003	4	..........a	-327.66
	200	40.2	5.84885E-001	7.57518E-010	0.00000E+000	5.85000E-001	1.00632E-003	4	..........a	-327.66
	201	40.4	5.94889E-001	7.68981E-010	0.00000E+000	5.95000E-001	1.03462E-003	4	..........a	-327.66
	202	40.6	6.04931E-001	7.80818E-010	0.00000E+000	6.05000E-001	1.01932E-003	4	..........a	-327.66
	203	40.8	6.14955E-001	7.92538E-010	0.00000E+000	6.15000E-001	1.01082E-003	4	..........a	-327.66
	204	41	6.24928E-001	8.04022E-010	0.00000E+000	6.25000E-001	1.00472E-003	4	..........a	-327.66
	205	41.2	6.34854E-001	8.16947E-010	0.00000E+000	6.35000E-001	1.01802E-003	4	..........a	-327.66
	206	41.4	6.44899E-001	8.29105E-010	0.00000E+000	6.45000E-001	1.03072E-003	4	..........a	-327.66
	207	41.6	6.55056E-001	8.41960E-010	0.00000E+000	6.55000E-001	1.02642E-003	4	..........a	-327.66
	208	41.8	6.64895E-001	8.54953E-010	0.00000E+000	6.65000E-001	1.04082E-003	4	..........a	-327.66
	209	42	6.74919E-001	8.68912E-010	0.00000E+000	6.75000E-001	1.03132E-003	4	..........a	-327.66
	210	42.2	6.84820E-001	8.83328E-010	0.00000E+000	6.85000E-001	1.00052E-003	4	..........a	-327.66
	211	42.4	6.94959E-001	8.98511E-010	0.00000E+000	6.95000E-001	1.00942E-003	4	..........a	-327.66
	212	42.6	7.04945E-001	9.14140E-010	0.00000E+000	7.05000E-001	9.95622E-004	4	..........a	-327.66
	213	42.8	7.14864E-001	9.31424E-010	0.00000E+000	7.15000E-001	1.00062E-003	4	..........a	-327.66
	214	43	7.24953E-001	9.49149E-010	0.00000E+000	7.25000E-001	1.00242E-003	4	..........a	-327.66
	215	43.2	7.35031E-001	9.69284E-010	0.00000E+000	7.35000E-001	9.96022E-004	4	..........a	-327.66
	216	43.4	7.44926E-001	9.89739E-010	0.00000E+000	7.45000E-001	1.00472E-003	4	..........a	-327.66
	217	43.6	7.54945E-001	1.01317E-009	0.00000E+000	7.55000E-001	1.00932E-003	4	..........a	-327.66
	218	43.8	7.64923E-001	1.03736E-009	0.00000E+000	7.65000E-001	1.01672E-003	4	..........a	-327.66
	219	44	7.74979E-001	1.06306E-009	0.00000E+000	7.75000E-001	9.96822E-004	4	..........a	-327.66
	220	44.2	7.84899E-001	1.08993E-009	0.00000E+000	7.85000E-001	1.03172E-003	4	..........a	-327.66
	221	44.4	7.94891E-001	1.11935E-009	0.00000E+000	7.95000E-001	1.01702E-003	4	..........a	-327.66
CURVE2	TABLE
	Pt	T	Vf	Im	Vu	Sig	Ach	IERange	Over	Temp
	#	s	V vs. Ref.	A	V	V	V	#	bits	deg C
	222	44.6	7.89901E-001	8.72591E-010	0.00000E+000	7.90000E-001	1.01762E-003	4	..........a	-327.66
	223	44.8	7.79964E-001	6.42362E-010	0.00000E+000	7.80000E-001	1.02552E-003	4	..........a	-327.66
	224	45	7.69876E-001	4.93708E-010	0.00000E+000	7.70000E-001	1.00682E-003	4	..........a	-327.66
	225	45.2	7.59902E-001	3.88593E-010	0.00000E+000	7.60000E-001	9.97022E-004	4	..........a	-327.66
	226	45.4	7.49909E-001	3.09612E-010	0.00000E+000	7.50000E-001	9.98022E-004	4	..........a	-327.66
	227	45.6	7.39928E-001	2.49471E-010	0.00000E+000	7.40000E-001	1.00112E-003	4	..........a	-327.66
	228	45.8	7.29996E-001	2.01681E-010	0.00000E+000	7.30000E-001	1.01182E-003	4	..........a	-327.66
	229	46	7.19892E-001	1.60641E-010	0.00000E+000	7.20000E-001	9.88722E-004	4	..........a	-327.66
	230	46.2	7.09870E-001	1.31597E-010	0.00000E+000	7.10000E-001	1.02402E-003	4	..........a	-327.66
	231	46.4	6.99996E-001	1.00671E-010	0.00000E+000	7.00000E-001	1.00332E-003	4	..........a	-327.66
	232	46.6	6.89893E-001	7.86498E-011	0.00000E+000	6.90000E-001	1.01942E-003	4	..........a	-327.66
	233	46.8	6.79808E-001	5.78050E-011	0.00000E+000	6.80000E-001	1.01872E-003	4	..........a	-327.66
	234	47	6.69911E-001	3.93973E-011	0.00000E+000	6.70000E-001	1.02622E-003	4	..........a	-327.66
	235	47.2	6.60009E-001	2.52328E-011	0.00000E+000	6.60000E-001	1.03792E-003	4	..........a	-327.66
	236	47.4	6.49926E-001	8.50613E-012	0.00000E+000	6.50000E-001	1.00572E-003	4	..........a	-327.66
	237	47.6	6.39866E-001	-3.23532E-012	0.00000E+000	6.40000E-001	1.03212E-003	4	..........a	-327.66
	238	47.8	6.29905E-001	-1.69599E-011	0.00000E+000	6.30000E-001	1.00612E-003	4	..........a	-327.66
	239	48	6.19997E-001	-2.99424E-011	0.00000E+000	6.20000E-001	1.01602E-003	4	..........a	-327.66
	240	48.2	6.09951E-001	-3.89387E-011	0.00000E+000	6.10000E-001	1.01332E-003	4	..........a	-327.66
	241	48.4	5.99974E-001	-4.72970E-011	0.00000E+000	6.00000E-001	1.02312E-003	4	..........a	-327.66
	242	48.6	5.89943E-001	-5.68434E-011	0.00000E+000	5.90000E-001	1.00482E-003	4	..........a	-327.66
	243	48.8	5.80003E-001	-6.53637E-011	0.00000E+000	5.80000E-001	9.95722E-004	4	..........a	-327.66
	244	49	5.69951E-001	-7.21600E-011	0.00000E+000	5.70000E-001	1.00452E-003	4	..........a	-327.66
	245	49.2	5.59916E-001	-7.96143E-011	0.00000E+000	5.60000E-001	9.99822E-004	4	..........a	-327.66
	246	49.4	5.49953E-001	-8.52825E-011	0.00000E+000	5.50000E-001	1.01672E-003	4	..........a	-327.66
	247	49.6	5.40001E-001	-9.28988E-011	0.00000E+000	5.40000E-001	1.02622E-003	4	..........a	-327.66
	248	49.8	5.29977E-001	-9.78770E-011	0.00000E+000	5.30000E-001	9.89622E-004	4	..........a	-327.66
	249	50	5.19946E-001	-1.02127E-010	0.00000E+000	5.20000E-001	1.00442E-003	4	..........a	-327.66
	250	50.2	5.09937E-001	-1.06706E-010	0.00000E+000	5.10000E-001	1.04522E-003	4	..........a	-327.66
	251	50.4	5.00029E-001	-1.09399E-010	0.00000E+000	5.00000E-001	1.01172E-003	4	..........a	-327.66
	252	50.6	4.89938E-001	-1.14269E-010	0.00000E+000	4.90000E-001	9.95622E-004	4	..........a	-327.66
	253	50.8	4.79935E-001	-1.16824E-010	0.00000E+000	4.80000E-001	1.01402E-003	4	..........a	-327.66
	254	51	4.69965E-001	-1.20023E-010	0.00000E+000	4.70000E-001	1.03052E-003	4	..........a	-327.66
	255	51.2	4.60014E-001	-1.22042E-010	0.00000E+000	4.60000E-001	1.01092E-003	4	..........a	-327.66
	256	51.4	4.50020E-001	-1.24902E-010	0.00000E+000	4.50000E-001	1.00122E-003	4	..........a	-327.66
	257	51.6	4.39952E-001	-1.25344E-010	0.00000E+000	4.40000E-001	1.01262E-003	4	..........a	-327.66
	258	51.8	4.29963E-001	-1.28719E-010	0.00000E+000	4.30000E-001	1.01592E-003	4	..........a	-327.66
	259	52	4.20013E-001	-1.30444E-010	0.00000E+000	4.20000E-001	1.02152E-003	4	..........a	-327.66
	260	52.2	4.09908E-001	-1.30038E-010	0.00000E+000	4.10000E-001	9.95022E-004	4	..........a	-327.66
	261	52.4	3.99927E-001	-1.32323E-010	0.00000E+000	4.00000E-001	1.01402E-003	4	..........a	-327.66
	262	52.6	3.89944E-001	-1.31638E-010	0.00000E+000	3.90000E-001	1.00692E-003	4	..........a	-327.66
	263	52.8	3.80005E-001	-1.34207E-010	0.00000E+000	3.80000E-001	1.04272E-003	4	..........a	-327.66
	264	53	3.69987E-001	-1.32900E-010	0.00000E+000	3.70000E-001	1.01532E-003	4	..........a	-327.66
	265	53.2	3.59866E-001	-1.34508E-010	0.00000E+000	3.60000E-001	1.01132E-003	4	..........a	-327.66
	266	53.4	3.49941E-001	-1.33800E-010	0.00000E+000	3.50000E-001	1.01022E-003	4	..........a	-327.66
	267	53.6	3.40033E-001	-1.34617E-010	0.00000E+000	3.40000E-001	1.01532E-003	4	..........a	-327.66
	268	53.8	3.30001E-001	-1.34568E-010	0.00000E+000	3.30000E-001	1.01382E-003	4	..........a	-327.66
	269	54	3.19907E-001	-1.34504E-010	0.00000E+000	3.20000E-001	1.02502E-003	4	..........a	-327.66
	270	54.2	3.09983E-001	-1.35520E-010	0.00000E+000	3.10000E-001	1.00352E-003	4	..........a	-327.66
	271	54.4	2.99992E-001	-1.34811E-010	0.00000E+000	3.00000E-001	1.02762E-003	4	..........a	-327.66
	272	54.6	2.89994E-001	-1.36088E-010	0.00000E+000	2.90000E-001	1.01982E-003	4	..........a	-327.66
	273	54.8	2.79935E-001	-1.35039E-010	0.00000E+000	2.80000E-001	1.03852E-003	4	..........a	-327.66
	274	55	2.69958E-001	-1.36087E-010	0.00000E+000	2.70000E-001	1.02312E-003	4	..........a	-327.66
	275	55.2	2.59997E-001	-1.36830E-010	0.00000E+000	2.60000E-001	1.03222E-003	4	..........a	-327.66
	276	55.4	2.49976E-001	-1.36868E-010	0.00000E+000	2.50000E-001	1.02842E-003	4	..........a	-327.66
	277	55.6	2.39902E-001	-1.38106E-010	0.00000E+000	2.40000E-001	1.01292E-003	4	..........a	-327.66
	278	55.8	2.29936E-001	-1.36489E-010	0.00000E+000	2.30000E-001	1.03232E-003	4	..........a	-327.66
	279	56	2.19986E-001	-1.39019E-010	0.00000E+000	2.20000E-001	1.02902E-003	4	..........a	-327.66
	280	56.2	2.09973E-001	-1.38433E-010	0.00000E+000	2.10000E-001	1.00982E-003	4	..........a	-327.66
	281	56.4	1.99922E-001	-1.39634E-010	0.00000E+000	2.00000E-001	1.02962E-003	4	..........a	-327.66
	282	56.6	1.90012E-001	-1.39786E-010	0.00000E+000	1.90000E-001	1.00652E-003	4	..........a	-327.66
	283	56.8	1.80028E-001	-1.40786E-010	0.00000E+000	1.80000E-001	1.00962E-003	4	..........a	-327.66
	284	57	1.70008E-001	-1.40831E-010	0.00000E+000	1.70000E-001	1.02902E-003	4	..........a	-327.66
	285	57.2	1.59934E-001	-1.41913E-010	0.00000E+000	1.60000E-001	9.97122E-004	4	..........a	-327.66
	286	57.4	1.49992E-001	-1.41692E-010	0.00000E+000	1.50000E-001	1.00942E-003	4	..........a	-327.66
	287	57.6	1.40068E-001	-1.41762E-010	0.00000E+000	1.40000E-001	1.02612E-003	4	..........a	-327.66
	288	57.8	1.30034E-001	-1.41965E-010	0.00000E+000	1.30000E-001	1.02342E-003	4	..........a	-327.66
	289	58	1.19967E-001	-1.42737E-010	0.00000E+000	1.20000E-001	1.00622E-003	4	..........a	-327.66
	290	58.2	1.10020E-001	-1.42667E-010	0.00000E+000	1.10000E-001	1.03562E-003	4	..........a	-327.66
	291	58.4	9.99857E-002	-1.42913E-010	0.00000E+000	1.00000E-001	1.02792E-003	4	..........a	-327.66
	292	58.6	9.00300E-002	-1.43276E-010	0.00000E+000	9.00000E-002	9.92222E-004	4	..........a	-327.66
	293	58.8	7.99271E-002	-1.43791E-010	0.00000E+000	8.00000E-002	9.97022E-004	4	..........a	-327.66
	294	59	6.99668E-002	-1.44329E-010	0.00000E+000	7.00000E-002	1.03232E-003	4	..........a	-327.66
	295	59.2	6.00399E-002	-1.45183E-010	0.00000E+000	6.00000E-002	1.02522E-003	4	..........a	-327.66
	296	59.4	5.00472E-002	-1.45864E-010	0.00000E+000	5.00000E-002	1.02532E-003	4	..........a	-327.66
	297	59.6	4.00025E-002	-1.47446E-010	0.00000E+000	4.00000E-002	1.00142E-003	4	..........a	-327.66
	298	59.8	2.99964E-002	-1.48409E-010	0.00000E+000	3.00000E-002	1.02072E-003	4	..........a	-327.66
	299	60	1.99773E-002	-1.50245E-010	0.00000E+000	2.00000E-002	1.01372E-003	4	..........a	-327.66
	300	60.2	1.00605E-002	-1.50784E-010	0.00000E+000	1.00000E-002	1.00212E-003	4	..........a	-327.66
	301	60.4	2.11408E-005	-1.53369E-010	0.00000E+000	7.45058E-009	1.03382E-003	4	..........a	-327.66
	302	60.6	-1.00156E-002	-1.55345E-010	0.00000E+000	-1.00000E-002	1.00692E-003	4	..........a	-327.66
	303	60.8	-1.99534E-002	-1.57445E-010	0.00000E+000	-2.00000E-002	1.00762E-003	4	..........a	-327.66
	304	61	-2.99858E-002	-1.59917E-010	0.00000E+000	-3.00000E-002	1.02422E-003	4	..........a	-327.66
	305	61.2	-3.99735E-002	-1.62109E-010	0.00000E+000	-4.00000E-002	1.00812E-003	4	..........a	-327.66
	306	61.4	-4.99973E-002	-1.65214E-010	0.00000E+000	-5.00000E-002	1.02522E-003	4	..........a	-327.66
	307	61.6	-5.99513E-002	-1.67704E-010	0.00000E+000	-6.00000E-002	1.02482E-003	4	..........a	-327.66
	308	61.8	-6.99710E-002	-1.70184E-010	0.00000E+000	-7.00000E-002	1.01832E-003	4	..........a	-327.66
	309	62	-7.99941E-002	-1.74038E-010	0.00000E+000	-8.00000E-002	1.01242E-003	4	..........a	-327.66
	310	62.2	-8.99971E-002	-1.77957E-010	0.00000E+000	-9.00000E-002	1.04592E-003	4	..........a	-327.66
	311	62.4	-9.99779E-002	-1.81356E-010	0.00000E+000	-1.00000E-001	1.01192E-003	4	..........a	-327.66
	312	62.6	-1.09922E-001	-1.85486E-010	0.00000E+000	-1.10000E-001	1.02752E-003	4	..........a	-327.66
	313	62.8	-1.20029E-001	-1.90065E-010	0.00000E+000	-1.20000E-001	1.03022E-003	4	..........a	-327.66
	314	63	-1.30037E-001	-1.94497E-010	0.00000E+000	-1.30000E-001	1.01232E-003	4	..........a	-327.66
	315	63.2	-1.39999E-001	-1.99490E-010	0.00000E+000	-1.40000E-001	1.05022E-003	4	..........a	-327.66
	316	63.4	-1.50008E-001	-2.05062E-010	0.00000E+000	-1.50000E-001	1.00502E-003	4	..........a	-327.66
	317	63.6	-1.60093E-001	-2.10854E-010	0.00000E+000	-1.60000E-001	1.03402E-003	4	..........a	-327.66
	318	63.8	-1.69982E-001	-2.16434E-010	0.00000E+000	-1.70000E-001	1.01372E-003	4	..........a	-327.66
	319	64	-1.79988E-001	-2.23038E-010	0.00000E+000	-1.80000E-001	1.03442E-003	4	..........a	-327.66
	320	64.2	-1.89965E-001	-2.29439E-010	0.00000E+000	-1.90000E-001	9.96422E-004	4	..........a	-327.66
	321	64.4	-1.99956E-001	-2.35614E-010	0.00000E+000	-2.00000E-001	1.02382E-003	4	..........a	-327.66
	322	64.6	-2.10001E-001	-2.43085E-010	0.00000E+000	-2.10000E-001	9.88022E-004	4	..........a	-327.66
	323	64.8	-2.19903E-001	-2.50314E-010	0.00000E+000	-2.20000E-001	1.00962E-003	4	..........a	-327.66
	324	65	-2.29962E-001	-2.60436E-010	0.00000E+000	-2.30000E-001	1.02172E-003	4	..........a	-327.66
	325	65.2	-2.40018E-001	-2.68172E-010	0.00000E+000	-2.40000E-001	9.94422E-004	4	..........a	-327.66
	326	65.4	-2.49953E-001	-2.82356E-010	0.00000E+000	-2.50000E-001	1.04142E-003	4	..........a	-327.66
	327	65.6	-2.59915E-001	-2.91361E-010	0.00000E+000	-2.60000E-001	1.00052E-003	4	..........a	-327.66
	328	65.8	-2.69917E-001	-2.97632E-010	0.00000E+000	-2.70000E-001	1.01302E-003	4	..........a	-327.66
	329	66	-2.79887E-001	-3.08250E-010	0.00000E+000	-2.80000E-001	1.02152E-003	4	..........a	-327.66
	330	66.2	-2.89926E-001	-3.20444E-010	0.00000E+000	-2.90000E-001	1.00592E-003	4	..........a	-327.66
	331	66.4	-2.99877E-001	-3.28913E-010	0.00000E+000	-3.00000E-001	1.00792E-003	4	..........a	-327.66
	332	66.6	-3.09932E-001	-3.42181E-010	0.00000E+000	-3.10000E-001	9.76922E-004	4	..........a	-327.66
	333	66.8	-3.19822E-001	-3.50919E-010	0.00000E+000	-3.20000E-001	1.01782E-003	4	..........a	-327.66
	334	67	-3.29920E-001	-3.67445E-010	0.00000E+000	-3.30000E-001	1.03512E-003	4	..........a	-327.66
	335	67.2	-3.39895E-001	-3.81144E-010	0.00000E+000	-3.40000E-001	1.02302E-003	4	..........a	-327.66
	336	67.4	-3.49913E-001	-3.95000E-010	0.00000E+000	-3.50000E-001	1.01882E-003	4	..........a	-327.66
	337	67.6	-3.59971E-001	-4.13106E-010	0.00000E+000	-3.60000E-001	9.95322E-004	4	..........a	-327.66
	338	67.8	-3.69957E-001	-4.22470E-010	0.00000E+000	-3.70000E-001	9.99122E-004	4	..........a	-327.66
	339	68	-3.79905E-001	-4.41818E-010	0.00000E+000	-3.80000E-001	1.01552E-003	4	..........a	-327.66
	340	68.2	-3.89925E-001	-4.56231E-010	0.00000E+000	-3.90000E-001	9.88322E-004	4	..........a	-327.66
	341	68.4	-3.99881E-001	-4.71307E-010	0.00000E+000	-4.00000E-001	9.95822E-004	4	..........a	-327.66
	342	68.6	-4.09972E-001	-4.83473E-010	0.00000E+000	-4.10000E-001	1.03242E-003	4	..........a	-327.66
	343	68.8	-4.19843E-001	-5.02767E-010	0.00000E+000	-4.20000E-001	1.00202E-003	4	..........a	-327.66
	344	69	-4.29882E-001	-5.20517E-010	0.00000E+000	-4.30000E-001	1.02312E-003	4	..........a	-327.66
	345	69.2	-4.39959E-001	-5.37631E-010	0.00000E+000	-4.40000E-001	1.03562E-003	4	..........a	-327.66
	346	69.4	-4.49903E-001	-5.53968E-010	0.00000E+000	-4.50000E-001	1.01922E-003	4	..........a	-327.66
	347	69.6	-4.59887E-001	-5.71287E-010	0.00000E+000	-4.60000E-001	9.96222E-004	4	..........a	-327.66
	348	69.8	-4.69891E-001	-5.88116E-010	0.00000E+000	-4.70000E-001	9.82422E-004	4	..........a	-327.66
	349	70	-4.79889E-001	-6.05896E-010	0.00000E+000	-4.80000E-001	1.00342E-003	4	..........a	-327.66
	350	70.2	-4.89925E-001	-6.22094E-010	0.00000E+000	-4.90000E-001	1.00772E-003	4	..........a	-327.66
	351	70.4	-4.99882E-001	-6.40446E-010	0.00000E+000	-5.00000E-001	1.03862E-003	4	..........a	-327.66
	352	70.6	-5.09880E-001	-6.58820E-010	0.00000E+000	-5.10000E-001	1.03482E-003	4	..........a	-327.66
	353	70.8	-5.19911E-001	-6.77060E-010	0.00000E+000	-5.20000E-001	1.02972E-003	4	..........a	-327.66
[...]
	919	184	-5.79850E-001	-8.24821E-010	0.00000E+000	-5.80000E-001	1.01152E-003	4	..........a	-327.66
	920	184.2	-5.89897E-001	-8.52965E-010	0.00000E+000	-5.90000E-001	1.02172E-003	4	..........a	-327.66
	921	184.4	-5.99873E-001	-8.82124E-010	0.00000E+000	-6.00000E-001	1.01342E-003	4	..........a	-327.66
	922	184.6	-5.89901E-001	-6.17828E-010	0.00000E+000	-5.90000E-001	1.02512E-003	4	..........a	-327.66
	923	184.8	-5.79869E-001	-4.80513E-010	0.00000E+000	-5.80000E-001	1.02642E-003	4	..........a	-327.66
	924	185	-5.69913E-001	-4.00618E-010	0.00000E+000	-5.70000E-001	1.02362E-003	4	..........a	-327.66
	925	185.2	-5.59882E-001	-3.38274E-010	0.00000E+000	-5.60000E-001	1.02252E-003	4	..........a	-327.66
	926	185.4	-5.49944E-001	-2.92721E-010	0.00000E+000	-5.50000E-001	1.03062E-003	4	..........a	-327.66
	927	185.6	-5.39939E-001	-2.48520E-010	0.00000E+000	-5.40000E-001	1.02442E-003	4	..........a	-327.66
	928	185.8	-5.29928E-001	-2.13016E-010	0.00000E+000	-5.30000E-001	1.03012E-003	4	..........a	-327.66
	929	186	-5.19975E-001	-1.83679E-010	0.00000E+000	-5.20000E-001	1.02342E-003	4	..........a	-327.66
	930	186.2	-5.09889E-001	-1.58606E-010	0.00000E+000	-5.10000E-001	1.00752E-003	4	..........a	-327.66
	931	186.4	-4.99875E-001	-1.34341E-010	0.00000E+000	-5.00000E-001	9.96022E-004	4	..........a	-327.66
	932	186.6	-4.89953E-001	-1.13125E-010	0.00000E+000	-4.90000E-001	1.02442E-003	4	..........a	-327.66
	933	186.8	-4.79920E-001	-9.54289E-011	0.00000E+000	-4.80000E-001	1.02562E-003	4	..........a	-327.66
	934	187	-4.69902E-001	-7.73912E-011	0.00000E+000	-4.70000E-001	1.03522E-003	4	..........a	-327.66
	935	187.2	-4.59914E-001	-6.14356E-011	0.00000E+000	-4.60000E-001	1.04102E-003	4	..........a	-327.66
	936	187.4	-4.49902E-001	-4.48219E-011	0.00000E+000	-4.50000E-001	1.02792E-003	4	..........a	-327.66
	937	187.6	-4.39957E-001	-3.29905E-011	0.00000E+000	-4.40000E-001	1.03672E-003	4	..........a	-327.66
	938	187.8	-4.29913E-001	-1.71969E-011	0.00000E+000	-4.30000E-001	9.98422E-004	4	..........a	-327.66
	939	188	-4.19876E-001	-4.88839E-012	0.00000E+000	-4.20000E-001	1.01242E-003	4	..........a	-327.66
	940	188.2	-4.09967E-001	7.62109E-012	0.00000E+000	-4.10000E-001	1.01602E-003	4	..........a	-327.66
	941	188.4	-3.99926E-001	1.88615E-011	0.00000E+000	-4.00000E-001	1.01972E-003	4	..........a	-327.66
	942	188.6	-3.89945E-001	2.85289E-011	0.00000E+000	-3.90000E-001	1.03522E-003	4	..........a	-327.66
	943	188.8	-3.79960E-001	3.79743E-011	0.00000E+000	-3.80000E-001	1.01662E-003	4	..........a	-327.66
	944	189	-3.69980E-001	4.88497E-011	0.00000E+000	-3.70000E-001	1.01652E-003	4	..........a	-327.66
	945	189.2	-3.59957E-001	5.84901E-011	0.00000E+000	-3.60000E-001	1.01772E-003	4	..........a	-327.66
	946	189.4	-3.49932E-001	6.58803E-011	0.00000E+000	-3.50000E-001	1.01792E-003	4	..........a	-327.66
	947	189.6	-3.39944E-001	7.50127E-011	0.00000E+000	-3.40000E-001	1.02572E-003	4	..........a	-327.66
	948	189.8	-3.29977E-001	8.32080E-011	0.00000E+000	-3.30000E-001	1.02242E-003	4	..........a	-327.66
	949	190	-3.19930E-001	8.97262E-011	0.00000E+000	-3.20000E-001	1.01462E-003	4	..........a	-327.66
	950	190.2	-3.09920E-001	9.56955E-011	0.00000E+000	-3.10000E-001	1.00662E-003	4	..........a	-327.66
	951	190.4	-2.99926E-001	1.02940E-010	0.00000E+000	-3.00000E-001	1.02282E-003	4	..........a	-327.66
	952	190.6	-2.90035E-001	1.12067E-010	0.00000E+000	-2.90000E-001	1.00472E-003	4	..........a	-327.66
	953	190.8	-2.80074E-001	1.18601E-010	0.00000E+000	-2.80000E-001	1.01872E-003	4	..........a	-327.66
	954	191	-2.69919E-001	1.25865E-010	0.00000E+000	-2.70000E-001	1.01672E-003	4	..........a	-327.66
	955	191.2	-2.59935E-001	1.30780E-010	0.00000E+000	-2.60000E-001	1.03392E-003	4	..........a	-327.66
	956	191.4	-2.49945E-001	1.35986E-010	0.00000E+000	-2.50000E-001	1.00642E-003	4	..........a	-327.66
	957	191.6	-2.39892E-001	1.40049E-010	0.00000E+000	-2.40000E-001	1.02522E-003	4	..........a	-327.66
	958	191.8	-2.30015E-001	1.46414E-010	0.00000E+000	-2.30000E-001	1.02372E-003	4	..........a	-327.66
	959	192	-2.19918E-001	1.52485E-010	0.00000E+000	-2.20000E-001	1.01822E-003	4	..........a	-327.66
	960	192.2	-2.10094E-001	1.57284E-010	0.00000E+000	-2.10000E-001	9.89522E-004	4	..........a	-327.66
	961	192.4	-1.99989E-001	1.54611E-010	0.00000E+000	-2.00000E-001	1.00812E-003	4	..........a	-327.66
	962	192.6	-1.90189E-001	1.60706E-010	0.00000E+000	-1.90000E-001	1.02452E-003	4	..........a	-327.66
	963	192.8	-1.79970E-001	1.63274E-010	0.00000E+000	-1.80000E-001	1.01542E-003	4	..........a	-327.66
	964	193	-1.69963E-001	1.65880E-010	0.00000E+000	-1.70000E-001	1.02382E-003	4	..........a	-327.66
	965	193.2	-1.60054E-001	1.65711E-010	0.00000E+000	-1.60000E-001	1.03232E-003	4	..........a	-327.66
	966	193.4	-1.49979E-001	1.68238E-010	0.00000E+000	-1.50000E-001	1.01162E-003	4	..........a	-327.66
	967	193.6	-1.39925E-001	1.71814E-010	0.00000E+000	-1.40000E-001	1.04242E-003	4	..........a	-327.66
	968	193.8	-1.30023E-001	1.73079E-010	0.00000E+000	-1.30000E-001	1.02842E-003	4	..........a	-327.66
	969	194	-1.19969E-001	1.74847E-010	0.00000E+000	-1.20000E-001	1.00532E-003	4	..........a	-327.66
	970	194.2	-1.10015E-001	1.76447E-010	0.00000E+000	-1.10000E-001	1.02152E-003	4	..........a	-327.66
	971	194.4	-9.99555E-002	1.78208E-010	0.00000E+000	-1.00000E-001	1.01642E-003	4	..........a	-327.66
	972	194.6	-8.99871E-002	1.80081E-010	0.00000E+000	-9.00000E-002	1.02202E-003	4	..........a	-327.66
	973	194.8	-8.00018E-002	1.81009E-010	0.00000E+000	-8.00000E-002	1.00362E-003	4	..........a	-327.66
	974	195	-6.99545E-002	1.82305E-010	0.00000E+000	-7.00000E-002	1.02212E-003	4	..........a	-327.66
	975	195.2	-5.99283E-002	1.84064E-010	0.00000E+000	-6.00000E-002	1.02232E-003	4	..........a	-327.66
	976	195.4	-4.99897E-002	1.85640E-010	0.00000E+000	-5.00000E-002	1.01882E-003	4	..........a	-327.66
	977	195.6	-3.99670E-002	1.87234E-010	0.00000E+000	-4.00000E-002	1.03992E-003	4	..........a	-327.66
	978	195.8	-2.99785E-002	1.87610E-010	0.00000E+000	-3.00000E-002	1.01862E-003	4	..........a	-327.66
	979	196	-1.99170E-002	1.91823E-010	0.00000E+000	-2.00000E-002	1.03592E-003	4	..........a	-327.66
	980	196.2	-1.00508E-002	1.89477E-010	0.00000E+000	-1.00000E-002	1.00512E-003	4	..........a	-327.66
	981	196.4	2.83908E-005	1.92883E-010	0.00000E+000	7.45058E-009	1.01852E-003	4	..........a	-327.66
	982	196.6	1.00515E-002	1.92740E-010	0.00000E+000	1.00000E-002	1.00382E-003	4	..........a	-327.66
	983	196.8	2.00239E-002	1.93875E-010	0.00000E+000	2.00000E-002	1.01962E-003	4	..........a	-327.66
	984	197	3.00079E-002	1.95611E-010	0.00000E+000	3.00000E-002	1.03242E-003	4	..........a	-327.66
	985	197.2	3.97885E-002	1.95865E-010	0.00000E+000	4.00000E-002	1.02842E-003	4	..........a	-327.66
	986	197.4	5.00661E-002	1.97714E-010	0.00000E+000	5.00000E-002	1.01382E-003	4	..........a	-327.66
	987	197.6	6.00767E-002	1.98953E-010	0.00000E+000	6.00000E-002	1.01462E-003	4	..........a	-327.66
	988	197.8	7.00058E-002	2.00974E-010	0.00000E+000	7.00000E-002	1.02852E-003	4	..........a	-327.66
	989	198	8.00339E-002	2.01660E-010	0.00000E+000	8.00000E-002	1.00402E-003	4	..........a	-327.66
	990	198.2	9.01717E-002	2.02911E-010	0.00000E+000	9.00000E-002	1.03022E-003	4	..........a	-327.66
	991	198.4	1.00028E-001	2.05242E-010	0.00000E+000	1.00000E-001	1.04022E-003	4	..........a	-327.66
	992	198.6	1.10046E-001	2.08365E-010	0.00000E+000	1.10000E-001	1.03442E-003	4	..........a	-327.66
	993	198.8	1.20031E-001	2.10233E-010	0.00000E+000	1.20000E-001	1.02772E-003	4	..........a	-327.66
	994	199	1.30063E-001	2.12982E-010	0.00000E+000	1.30000E-001	1.03222E-003	4	..........a	-327.66
	995	199.2	1.40099E-001	2.15766E-010	0.00000E+000	1.40000E-001	1.02992E-003	4	..........a	-327.66
	996	199.4	1.50025E-001	2.17435E-010	0.00000E+000	1.50000E-001	1.03822E-003	4	..........a	-327.66
	997	199.6	1.60046E-001	2.18460E-010	0.00000E+000	1.60000E-001	1.03382E-003	4	..........a	-327.66
	998	199.8	1.70078E-001	2.19689E-010	0.00000E+000	1.70000E-001	1.00562E-003	4	..........a	-327.66
	999	200	1.80019E-001	2.22581E-010	0.00000E+000	1.80000E-001	1.03862E-003	4	..........a	-327.66
	1000	200.2	1.90024E-001	2.26281E-010	0.00000E+000	1.90000E-001	1.02012E-003	4	..........a	-327.66
	1001	200.4	1.99939E-001	2.29244E-010	0.00000E+000	2.00000E-001	1.02202E-003	4	..........a	-327.66
	1002	200.6	2.09985E-001	2.34249E-010	0.00000E+000	2.10000E-001	1.01922E-003	4	..........a	-327.66
	1003	200.8	2.19957E-001	2.37847E-010	0.00000E+000	2.20000E-001	1.03762E-003	4	..........a	-327.66
	1004	201	2.29916E-001	2.41131E-010	0.00000E+000	2.30000E-001	1.03012E-003	4	..........a	-327.66
	1005	201.2	2.39888E-001	2.44245E-010	0.00000E+000	2.40000E-001	1.01902E-003	4	..........a	-327.66
	1006	201.4	2.49919E-001	2.47402E-010	0.00000E+000	2.50000E-001	1.03792E-003	4	..........a	-327.66
	1007	201.6	2.59944E-001	2.49919E-010	0.00000E+000	2.60000E-001	1.02282E-003	4	..........a	-327.66
	1008	201.8	2.69935E-001	2.52449E-010	0.00000E+000	2.70000E-001	1.03092E-003	4	..........a	-327.66
	1009	202	2.79917E-001	2.54368E-010	0.00000E+000	2.80000E-001	1.01372E-003	4	..........a	-327.66
	1010	202.2	2.89970E-001	2.56420E-010	0.00000E+000	2.90000E-001	1.00312E-003	4	..........a	-327.66
	1011	202.4	2.99935E-001	2.58846E-010	0.00000E+000	3.00000E-001	1.03412E-003	4	..........a	-327.66
	1012	202.6	3.09923E-001	2.61792E-010	0.00000E+000	3.10000E-001	1.02942E-003	4	..........a	-327.66
	1013	202.8	3.19899E-001	2.63282E-010	0.00000E+000	3.20000E-001	1.03312E-003	4	..........a	-327.66
	1014	203	3.30010E-001	2.65505E-010	0.00000E+000	3.30000E-001	1.00402E-003	4	..........a	-327.66
	1015	203.2	3.40026E-001	2.67441E-010	0.00000E+000	3.40000E-001	1.04172E-003	4	..........a	-327.66
	1016	203.4	3.49916E-001	2.69836E-010	0.00000E+000	3.50000E-001	9.95622E-004	4	..........a	-327.66
	1017	203.6	3.59941E-001	2.71516E-010	0.00000E+000	3.60000E-001	1.02752E-003	4	..........a	-327.66
	1018	203.8	3.69992E-001	2.73997E-010	0.00000E+000	3.70000E-001	1.01612E-003	4	..........a	-327.66
	1019	204	3.79987E-001	2.75165E-010	0.00000E+000	3.80000E-001	1.03262E-003	4	..........a	-327.66
	1020	204.2	3.89963E-001	2.77716E-010	0.00000E+000	3.90000E-001	1.01492E-003	4	..........a	-327.66
	1021	204.4	3.99998E-001	2.79906E-010	0.00000E+000	4.00000E-001	1.03422E-003	4	..........a	-327.66
	1022	204.6	4.09945E-001	2.82117E-010	0.00000E+000	4.10000E-001	1.03862E-003	4	..........a	-327.66
	1023	204.8	4.20015E-001	2.84365E-010	0.00000E+000	4.20000E-001	1.02652E-003	4	..........a	-327.66
	1024	205	4.29936E-001	2.86547E-010	0.00000E+000	4.30000E-001	1.04462E-003	4	..........a	-327.66
	1025	205.2	4.39944E-001	2.89358E-010	0.00000E+000	4.40000E-001	1.00942E-003	4	..........a	-327.66
	1026	205.4	4.50063E-001	2.92288E-010	0.00000E+000	4.50000E-001	1.01182E-003	4	..........a	-327.66
	1027	205.6	4.59956E-001	2.95416E-010	0.00000E+000	4.60000E-001	1.03342E-003	4	..........a	-327.66
	1028	205.8	4.69939E-001	2.98311E-010	0.00000E+000	4.70000E-001	1.03722E-003	4	..........a	-327.66
	1029	206	4.79843E-001	3.01770E-010	0.00000E+000	4.80000E-001	1.01922E-003	4	..........a	-327.66
	1030	206.2	4.89937E-001	3.05564E-010	0.00000E+000	4.90000E-001	1.02282E-003	4	..........a	-327.66
	1031	206.4	5.00035E-001	3.09580E-010	0.00000E+000	5.00000E-001	1.02292E-003	4	..........a	-327.66
	1032	206.6	5.09935E-001	3.13535E-010	0.00000E+000	5.10000E-001	1.02352E-003	4	..........a	-327.66
	1033	206.8	5.19931E-001	3.18663E-010	0.00000E+000	5.20000E-001	1.01962E-003	4	..........a	-327.66
	1034	207	5.29991E-001	3.23828E-010	0.00000E+000	5.30000E-001	1.01382E-003	4	..........a	-327.66
	1035	207.2	5.39987E-001	3.29608E-010	0.00000E+000	5.40000E-001	1.03552E-003	4	..........a	-327.66
	1036	207.4	5.49954E-001	3.35168E-010	0.00000E+000	5.50000E-001	1.01052E-003	4	..........a	-327.66
	1037	207.6	5.59964E-001	3.42020E-010	0.00000E+000	5.60000E-001	1.02622E-003	4	..........a	-327.66
	1038	207.8	5.69962E-001	3.48739E-010	0.00000E+000	5.70000E-001	1.01432E-003	4	..........a	-327.66
	1039	208	5.79996E-001	3.56806E-010	0.00000E+000	5.80000E-001	1.02622E-003	4	..........a	-327.66
	1040	208.2	5.89920E-001	3.65651E-010	0.00000E+000	5.90000E-001	1.00592E-003	4	..........a	-327.66
	1041	208.4	5.99875E-001	3.75348E-010	0.00000E+000	6.00000E-001	1.02352E-003	4	..........a	-327.66
	1042	208.6	6.09971E-001	3.85417E-010	0.00000E+000	6.10000E-001	1.01352E-003	4	..........a	-327.66
	1043	208.8	6.20001E-001	3.97736E-010	0.00000E+000	6.20000E-001	1.02242E-003	4	..........a	-327.66
	1044	209	6.29902E-001	4.09375E-010	0.00000E+000	6.30000E-001	1.02212E-003	4	..........a	-327.66
	1045	209.2	6.39875E-001	4.23485E-010	0.00000E+000	6.40000E-001	9.98722E-004	4	..........a	-327.66
	1046	209.4	6.49925E-001	4.39326E-010	0.00000E+000	6.50000E-001	9.95022E-004	4	..........a	-327.66
	1047	209.6	6.59997E-001	4.55486E-010	0.00000E+000	6.60000E-001	1.02482E-003	4	..........a	-327.66
	1048	209.8	6.69915E-001	4.73367E-010	0.00000E+000	6.70000E-001	9.93822E-004	4	..........a	-327.66
	1049	210	6.79817E-001	4.93923E-010	0.00000E+000	6.80000E-001	1.03042E-003	4	..........a	-327.66
	1050	210.2	6.89881E-001	5.15623E-010	0.00000E+000	6.90000E-001	1.02872E-003	4	..........a	-327.66
	1051	210.4	6.99975E-001	5.39932E-010	0.00000E+000	7.00000E-001	1.02392E-003	4	..........a	-327.66
	1052	210.6	7.09912E-001	5.62983E-010	0.00000E+000	7.10000E-001	1.02272E-003	4	..........a	-327.66
	1053	210.8	7.19931E-001	5.88928E-010	0.00000E+000	7.20000E-001	1.01812E-003	4	..........a	-327.66
	1054	211	7.29952E-001	6.16301E-010	0.00000E+000	7.30000E-001	1.00692E-003	4	..........a	-327.66
	1055	211.2	7.39998E-001	6.48669E-010	0.00000E+000	7.40000E-001	1.03392E-003	4	..........a	-327.66
	1056	211.4	7.49912E-001	6.81172E-010	0.00000E+000	7.50000E-001	1.02162E-003	4	..........a	-327.66
	1057	211.6	7.59941E-001	7.14558E-010	0.00000E+000	7.60000E-001	1.03732E-003	4	..........a	-327.66
	1058	211.8	7.69932E-001	7.50107E-010	0.00000E+000	7.70000E-001	1.02472E-003	4	..........a	-327.66
	1059	212	7.79974E-001	7.90122E-010	0.00000E+000	7.80000E-001	1.00242E-003	4	..........a	-327.66
	1060	212.2	7.89901E-001	8.31240E-010	0.00000E+000	7.90000E-001	1.01772E-003	4	..........a	-327.66
	1061	212.4	7.99887E-001	8.75901E-010	0.00000E+000	8.00000E-001	1.00742E-003	4	..........a	-327.66
CURVE5	TABLE
	Pt	T	Vf	Im	Vu	Sig	Ach	IERange	Over	Temp
	#	s	V vs. Ref.	A	V	V	V	#	bits	deg C
	1062	212.6	7.89947E-001	5.86369E-010	0.00000E+000	7.90000E-001	1.03242E-003	4	..........a	-327.66
	1063	212.8	7.79964E-001	4.28717E-010	0.00000E+000	7.80000E-001	1.01212E-003	4	..........a	-327.66
	1064	213	7.69911E-001	3.26035E-010	0.00000E+000	7.70000E-001	9.99522E-004	4	..........a	-327.66
	1065	213.2	7.59883E-001	2.54047E-010	0.00000E+000	7.60000E-001	1.00942E-003	4	..........a	-327.66
	1066	213.4	7.49941E-001	2.01063E-010	0.00000E+000	7.50000E-001	1.03952E-003	4	..........a	-327.66
	1067	213.6	7.40018E-001	1.62196E-010	0.00000E+000	7.40000E-001	1.03882E-003	4	..........a	-327.66
	1068	213.8	7.29980E-001	1.28945E-010	0.00000E+000	7.30000E-001	1.01012E-003	4	..........a	-327.66
	1069	214	7.19921E-001	9.89116E-011	0.00000E+000	7.20000E-001	1.02442E-003	4	..........a	-327.66
	1070	214.2	7.09890E-001	7.96459E-011	0.00000E+000	7.10000E-001	1.01882E-003	4	..........a	-327.66
	1071	214.4	6.99980E-001	6.08751E-011	0.00000E+000	7.00000E-001	1.03082E-003	4	..........a	-327.66
	1072	214.6	6.89887E-001	4.56496E-011	0.00000E+000	6.90000E-001	9.97322E-004	4	..........a	-327.66
	1073	214.8	6.79761E-001	3.40031E-011	0.00000E+000	6.80000E-001	1.01552E-003	4	..........a	-327.66
	1074	215	6.69895E-001	2.07736E-011	0.00000E+000	6.70000E-001	1.02432E-003	4	..........a	-327.66
	1075	215.2	6.60004E-001	1.07082E-011	0.00000E+000	6.60000E-001	1.04092E-003	4	..........a	-327.66
	1076	215.4	6.49908E-001	1.48886E-012	0.00000E+000	6.50000E-001	1.02342E-003	4	..........a	-327.66
	1077	215.6	6.39862E-001	-4.45437E-012	0.00000E+000	6.40000E-001	1.00802E-003	4	..........a	-327.66
	1078	215.8	6.29896E-001	-1.32517E-011	0.00000E+000	6.30000E-001	1.00962E-003	4	..........a	-327.66
	1079	216	6.19997E-001	-2.06350E-011	0.00000E+000	6.20000E-001	1.04142E-003	4	..........a	-327.66
	1080	216.2	6.09981E-001	-2.78143E-011	0.00000E+000	6.10000E-001	1.02062E-003	4	..........a	-327.66
	1081	216.4	5.99958E-001	-3.46125E-011	0.00000E+000	6.00000E-001	1.01952E-003	4	..........a	-327.66
	1082	216.6	5.89945E-001	-3.86387E-011	0.00000E+000	5.90000E-001	1.00912E-003	4	..........a	-327.66
	1083	216.8	5.80017E-001	-4.23818E-011	0.00000E+000	5.80000E-001	1.02402E-003	4	..........a	-327.66
	1084	217	5.69939E-001	-4.67780E-011	0.00000E+000	5.70000E-001	1.03972E-003	4	..........a	-327.66
	1085	217.2	5.59970E-001	-5.11412E-011	0.00000E+000	5.60000E-001	1.01372E-003	4	..........a	-327.66
	1086	217.4	5.49953E-001	-5.56343E-011	0.00000E+000	5.50000E-001	1.02522E-003	4	..........a	-327.66
	1087	217.6	5.40011E-001	-5.95715E-011	0.00000E+000	5.40000E-001	1.02652E-003	4	..........a	-327.66
	1088	217.8	5.29940E-001	-6.23256E-011	0.00000E+000	5.30000E-001	1.02122E-003	4	..........a	-327.66
	1089	218	5.19928E-001	-6.69808E-011	0.00000E+000	5.20000E-001	1.03572E-003	4	..........a	-327.66
	1090	218.2	5.09937E-001	-6.97069E-011	0.00000E+000	5.10000E-001	1.01602E-003	4	..........a	-327.66
	1091	218.4	5.00045E-001	-7.20570E-011	0.00000E+000	5.00000E-001	1.01732E-003	4	..........a	-327.66
	1092	218.6	4.89947E-001	-7.53701E-011	0.00000E+000	4.90000E-001	9.97422E-004	4	..........a	-327.66
	1093	218.8	4.79874E-001	-7.80322E-011	0.00000E+000	4.80000E-001	1.03602E-003	4	..........a	-327.66
	1094	219	4.69938E-001	-8.08353E-011	0.00000E+000	4.70000E-001	1.00982E-003	4	..........a	-327.66
	1095	219.2	4.60007E-001	-8.36354E-011	0.00000E+000	4.60000E-001	1.01922E-003	4	..........a	-327.66
	1096	219.4	4.50011E-001	-8.63515E-011	0.00000E+000	4.50000E-001	1.03822E-003	4	..........a	-327.66
	1097	219.6	4.39946E-001	-8.98787E-011	0.00000E+000	4.40000E-001	1.03702E-003	4	..........a	-327.66
	1098	219.8	4.29954E-001	-9.06977E-011	0.00000E+000	4.30000E-001	1.03752E-003	4	..........a	-327.66
	1099	220	4.20021E-001	-9.24797E-011	0.00000E+000	4.20000E-001	1.01462E-003	4	..........a	-327.66
	1100	220.2	4.09922E-001	-9.45678E-011	0.00000E+000	4.10000E-001	1.01942E-003	4	..........a	-327.66
	1101	220.4	4.00012E-001	-9.83730E-011	0.00000E+000	4.00000E-001	1.03622E-003	4	..........a	-327.66
	1102	220.6	3.89990E-001	-9.95160E-011	0.00000E+000	3.90000E-001	1.01952E-003	4	..........a	-327.66
	1103	220.8	3.80013E-001	-1.00708E-010	0.00000E+000	3.80000E-001	1.01832E-003	4	..........a	-327.66
	1104	221	3.69994E-001	-1.02768E-010	0.00000E+000	3.70000E-001	1.01722E-003	4	..........a	-327.66
	1105	221.2	3.59995E-001	-1.04885E-010	0.00000E+000	3.60000E-001	1.02542E-003	4	..........a	-327.66
	1106	221.4	3.49961E-001	-1.06266E-010	0.00000E+000	3.50000E-001	1.04372E-003	4	..........a	-327.66
	1107	221.6	3.40036E-001	-1.08383E-010	0.00000E+000	3.40000E-001	1.03762E-003	4	..........a	-327.66
	1108	221.8	3.29975E-001	-1.10665E-010	0.00000E+000	3.30000E-001	1.02432E-003	4	..........a	-327.66
	1109	222	3.19984E-001	-1.13395E-010	0.00000E+000	3.20000E-001	1.01732E-003	4	..........a	-327.66
	1110	222.2	3.09969E-001	-1.15235E-010	0.00000E+000	3.10000E-001	1.05292E-003	4	..........a	-327.66
	1111	222.4	3.00018E-001	-1.17066E-010	0.00000E+000	3.00000E-001	1.04632E-003	4	..........a	-327.66
	1112	222.6	2.89998E-001	-1.18926E-010	0.00000E+000	2.90000E-001	1.01672E-003	4	..........a	-327.66
	1113	222.8	2.79969E-001	-1.20848E-010	0.00000E+000	2.80000E-001	1.01752E-003	4	..........a	-327.66
	1114	223	2.69981E-001	-1.23361E-010	0.00000E+000	2.70000E-001	1.01922E-003	4	..........a	-327.66
	1115	223.2	2.60014E-001	-1.24099E-010	0.00000E+000	2.60000E-001	1.04882E-003	4	..........a	-327.66
	1116	223.4	2.50001E-001	-1.26254E-010	0.00000E+000	2.50000E-001	1.00722E-003	4	..........a	-327.66
	1117	223.6	2.39936E-001	-1.28936E-010	0.00000E+000	2.40000E-001	1.03922E-003	4	..........a	-327.66
	1118	223.8	2.29935E-001	-1.27971E-010	0.00000E+000	2.30000E-001	1.02182E-003	4	..........a	-327.66