File: data/raw/batch_data/20240321_S_GM0016_HL03_E05_CV50.DTA
EXPLAIN
TAG	CV
TITLE	LABEL	Cyclic Voltammetry	Test &Identifier
DATE	LABEL	3/21/2024	Date
TIME	LABEL	17:25:43	Time
NOTES	NOTES	1	&Notes...

PSTAT	PSTAT	REF600P-43058	Potentiostat
VINIT	POTEN	0.00000E+000	T	Initial &E (V)
VLIMIT1	POTEN	-6.00000E-001	F	Scan Limit &1 (V)
VLIMIT2	POTEN	8.00000E-001	F	Scan Limit &2 (V)
VFINAL	POTEN	0.00000E+000	T	Final &E (V)
SCANRATE	QUANT	4.99999E+001	&Scan Rate (mV/s)
STEPSIZE	QUANT	1.00000E+001	St&ep Size (mV)
CYCLES	IQUANT	4	C&ycles (#)
IMODE	SELECTOR	1	I/E Range &Mode
IRANGE	QUANT	1.00000E-005	&Max Current (mA)
AREA	QUANT	1.00000E+000	Electrode &Area (cm^2)
ELECTRODETYPE	SELECTOR	0	Electrode Type
STRIPPING	TOGGLE	F	Used for Stripping
POLARITY	TOGGLE	F	Signal Polarity
CONDIT	TWOPARAM	F	1.50000E+001	0.00000E+000	Conditionin&g	Time(s)	E(V)
DELAY	TWOPARAM	T	1.00000E+001	0.00000E+000	Init. De&lay	Time(s)	Stab.(mV/s)
EQDELAY	QUANT	1.00000E+001	Equil. &Time (s)
IRCOMP	SELECTOR	0	IRCom&p
PFCOR	QUANT	5.00000E+001	PF Corr. (ohm)
SAMPLINGMODE	SELECTOR	1	Sampling &Mode
OCVCURVE	TABLE	39
	Pt	T	Vf	Vm	Ach	Over	Temp
	#	s	V vs. Ref.	V	V	bits	deg C
	0	0.258333	2.20727E-001	2.20727E-001	2.30422E-004	..........a	-327.66
	1	0.516667	2.20730E-001	2.20896E-001	2.25622E-004	..........a	-327.66
	2	0.775	2.20753E-001	2.21201E-001	2.25422E-004	..........a	-327.66
	3	1.03333	2.20827E-001	2.21560E-001	2.31289E-004	..........a	-327.66
	4	1.29167	2.20985E-001	2.21988E-001	2.36422E-004	..........a	-327.66
	5	1.55	2.21238E-001	2.22445E-001	2.37156E-004	..........a	-327.66
	6	1.80833	2.21575E-001	2.22915E-001	2.29622E-004	..........a	-327.66
	7	2.06667	2.21975E-001	2.23399E-001	2.23489E-004	..........a	-327.66
	8	2.325	2.22417E-001	2.23900E-001	2.27356E-004	..........a	-327.66
	9	2.58333	2.22885E-001	2.24403E-001	2.27689E-004	..........a	-327.66
	10	2.84167	2.23369E-001	2.24903E-001	2.28289E-004	..........a	-327.66
	11	3.1	2.23863E-001	2.25403E-001	2.24622E-004	..........a	-327.66
	12	3.35833	2.24362E-001	2.25911E-001	2.24689E-004	..........a	-327.66
	13	3.61667	2.24864E-001	2.26421E-001	2.28622E-004	..........a	-327.66
	14	3.875	2.25368E-001	2.26927E-001	2.39289E-004	..........a	-327.66
	15	4.13333	2.25873E-001	2.27433E-001	2.37756E-004	..........a	-327.66
	16	4.39167	2.26380E-001	2.27939E-001	2.36956E-004	..........a	-327.66
	17	4.65	2.26887E-001	2.28448E-001	2.37156E-004	..........a	-327.66
	18	4.90833	2.27394E-001	2.28952E-001	2.28422E-004	..........a	-327.66
	19	5.16667	2.27901E-001	2.29460E-001	2.39289E-004	..........a	-327.66
	20	5.425	2.28407E-001	2.29963E-001	2.43422E-004	..........a	-327.66
	21	5.68333	2.28913E-001	2.30462E-001	2.32822E-004	..........a	-327.66
	22	5.94167	2.29418E-001	2.30967E-001	2.38222E-004	..........a	-327.66
	23	6.2	2.29922E-001	2.31469E-001	2.33689E-004	..........a	-327.66
	24	6.45833	2.30425E-001	2.31966E-001	2.44222E-004	..........a	-327.66
	25	6.71667	2.30927E-001	2.32457E-001	2.36356E-004	..........a	-327.66
	26	6.975	2.31427E-001	2.32950E-001	2.33956E-004	..........a	-327.66
	27	7.23333	2.31924E-001	2.33450E-001	2.28756E-004	..........a	-327.66
	28	7.49167	2.32420E-001	2.33950E-001	2.30822E-004	..........a	-327.66
	29	7.75	2.32915E-001	2.34448E-001	2.35356E-004	..........a	-327.66
	30	8.00833	2.33412E-001	2.34926E-001	2.35756E-004	..........a	-327.66
	31	8.26667	2.33908E-001	2.35421E-001	2.35022E-004	..........a	-327.66
	32	8.525	2.34402E-001	2.35916E-001	2.29222E-004	..........a	-327.66
	33	8.78333	2.34893E-001	2.36392E-001	2.27822E-004	..........a	-327.66
	34	9.04167	2.35383E-001	2.36875E-001	2.27956E-004	..........a	-327.66
	35	9.3	2.35870E-001	2.37358E-001	2.27822E-004	..........a	-327.66
	36	9.5583	2.36355E-001	2.37851E-001	2.32422E-004	..........a	-327.66
	37	9.8167	2.36839E-001	2.38329E-001	2.23556E-004	..........a	-327.66
	38	10.075	2.37324E-001	2.38807E-001	2.25756E-004	..........a	-327.66
EOC	QUANT	0.2373237	Open Circuit (V)
PSTATMODEL	IQUANT	7	Pstat Model
PSTATSECTION	LABEL	REF600P-43058	Pstat Section
PSTATSERIALNO	LABEL	43058	Pstat Serial Number
CTRLMODE	IQUANT	1	Control Mode
ELECTROMETER	IQUANT	0	RE=0 or CS=1
IESTAB	IQUANT	2	I/E Stability
CASPEED	IQUANT	4	Control Amp Speed
CONVENTION	IQUANT	1	Current Convention
ICHRANGE	IQUANT	2	Ich Range
ICHRANGEMODE	TOGGLE	F	Ich Auto Range
ICHOFFSETENABLE	TOGGLE	F	Ich Offset Enable
ICHOFFSET	QUANT	0	Ich Offset (V)
ICHFILTER	IQUANT	2	Ich Filter
VCHRANGE	IQUANT	2	Vch Range
VCHRANGEMODE	TOGGLE	F	Vch Auto Range
VCHOFFSETENABLE	TOGGLE	F	Vch Offset Enable
VCHOFFSET	QUANT	0	Vch Offset (V)
VCHFILTER	IQUANT	2	Vch Filter
ACHRANGE	IQUANT	2	Ach Range
ACHOFFSETENABLE	TOGGLE	F	Ach Offset Enable
ACHOFFSET	QUANT	0	Ach Offset (V)
ACHFILTER	IQUANT	1	Ach Filter
IERANGELOWERLIMIT	IQUANT	1	I/E Range Lower Limit
IERANGEMODE	TOGGLE	F	I/E AutoRange
IERANGE	IQUANT	4	I/E Range
POSFEEDENABLE	TOGGLE	F	Positive Feedback IR Comp
POSFEEDRESISTANCE	QUANT	0	Positive Feedback Resistance (ohm)
ACHSELECT	IQUANT	4	Ach Select
SENSECABLEID	IQUANT	7	Sense Cable ID
PWRCABLEID	IQUANT	7	Power Cable ID
DCCALDATE	LABEL	12/18/2023	DC Calibration Date
ACCALDATE	LABEL	12/18/2023	AC Calibration Date
THERMOSELECT	IQUANT	1	Thermo Select
FRAMEWORKVERSION	LABEL	7.8.4	Framework Version
INSTRUMENTVERSION	LABEL	4.42	Instrument Version
CURVE1	TABLE
	Pt	T	Vf	Im	Vu	Sig	Ach	IERange	Over	Temp
	#	s	V vs. Ref.	A	V	V	V	#	bits	deg C
	0	0.2	2.37327E-001	1.54494E-011	0.00000E+000	2.37300E-001	9.70422E-004	4	..........a	-327.66
	1	0.4	2.27207E-001	-2.73031E-012	0.00000E+000	2.27300E-001	9.73522E-004	4	..........a	-327.66
	2	0.6	2.17314E-001	-8.06251E-012	0.00000E+000	2.17300E-001	9.75822E-004	4	..........a	-327.66
	3	0.8	2.07277E-001	-1.52298E-011	0.00000E+000	2.07300E-001	9.79122E-004	4	..........a	-327.66
	4	1	1.97493E-001	-2.10170E-011	0.00000E+000	1.97300E-001	9.80722E-004	4	..........a	-327.66
	5	1.2	1.87321E-001	-2.47812E-011	0.00000E+000	1.87300E-001	9.77122E-004	4	..........a	-327.66
	6	1.4	1.77297E-001	-2.96483E-011	0.00000E+000	1.77300E-001	9.79522E-004	4	..........a	-327.66
	7	1.6	1.67316E-001	-3.47125E-011	0.00000E+000	1.67300E-001	9.81022E-004	4	..........a	-327.66
	8	1.8	1.57372E-001	-3.75166E-011	0.00000E+000	1.57300E-001	9.63222E-004	4	..........a	-327.66
	9	2	1.47372E-001	-3.95617E-011	0.00000E+000	1.47300E-001	9.76022E-004	4	..........a	-327.66
	10	2.2	1.37364E-001	-4.24398E-011	0.00000E+000	1.37300E-001	9.74922E-004	4	..........a	-327.66
	11	2.4	1.27311E-001	-4.64330E-011	0.00000E+000	1.27300E-001	9.79722E-004	4	..........a	-327.66
	12	2.6	1.17380E-001	-4.89721E-011	0.00000E+000	1.17300E-001	9.65822E-004	4	..........a	-327.66
	13	2.8	1.07336E-001	-5.25882E-011	0.00000E+000	1.07300E-001	9.91422E-004	4	..........a	-327.66
	14	3	9.73150E-002	-5.50333E-011	0.00000E+000	9.73000E-002	9.79022E-004	4	..........a	-327.66
	15	3.2	8.73641E-002	-5.80664E-011	0.00000E+000	8.73000E-002	9.57222E-004	4	..........a	-327.66
	16	3.4	7.74461E-002	-6.18676E-011	0.00000E+000	7.73000E-002	9.87922E-004	4	..........a	-327.66
	17	3.6	6.72866E-002	-6.40307E-011	0.00000E+000	6.73000E-002	9.81922E-004	4	..........a	-327.66
	18	3.8	5.73127E-002	-6.56397E-011	0.00000E+000	5.73000E-002	9.79522E-004	4	..........a	-327.66
	19	4	4.73220E-002	-6.98499E-011	0.00000E+000	4.73000E-002	9.76322E-004	4	..........a	-327.66
	20	4.2	3.73745E-002	-7.15219E-011	0.00000E+000	3.73000E-002	9.77622E-004	4	..........a	-327.66
	21	4.4	2.73461E-002	-7.44281E-011	0.00000E+000	2.73000E-002	9.78922E-004	4	..........a	-327.66
	22	4.6	1.72558E-002	-7.76202E-011	0.00000E+000	1.73000E-002	9.82822E-004	4	..........a	-327.66
	23	4.8	7.37239E-003	-8.06693E-011	0.00000E+000	7.30000E-003	9.57022E-004	4	..........a	-327.66
	24	5	-2.61811E-003	-8.37894E-011	0.00000E+000	-2.69999E-003	9.73222E-004	4	..........a	-327.66
	25	5.2	-1.26334E-002	-8.67545E-011	0.00000E+000	-1.27000E-002	9.68822E-004	4	..........a	-327.66
	26	5.4	-2.27158E-002	-9.00667E-011	0.00000E+000	-2.27000E-002	9.70022E-004	4	..........a	-327.66
	27	5.6	-3.27308E-002	-9.38798E-011	0.00000E+000	-3.27000E-002	9.89022E-004	4	..........a	-327.66
	28	5.8	-4.26235E-002	-9.62439E-011	0.00000E+000	-4.27000E-002	9.78222E-004	4	..........a	-327.66
	29	6	-5.26838E-002	-1.00320E-010	0.00000E+000	-5.27000E-002	9.71822E-004	4	..........a	-327.66
	30	6.2	-6.25540E-002	-1.03197E-010	0.00000E+000	-6.27000E-002	9.74422E-004	4	..........a	-327.66
	31	6.4	-7.26489E-002	-1.06883E-010	0.00000E+000	-7.27000E-002	9.65322E-004	4	..........a	-327.66
	32	6.6	-8.26481E-002	-1.11491E-010	0.00000E+000	-8.27000E-002	9.73922E-004	4	..........a	-327.66
	33	6.8	-9.26589E-002	-1.15407E-010	0.00000E+000	-9.27000E-002	9.61622E-004	4	..........a	-327.66
	34	7	-1.02714E-001	-1.18987E-010	0.00000E+000	-1.02700E-001	9.73522E-004	4	..........a	-327.66
	35	7.2	-1.12678E-001	-1.23643E-010	0.00000E+000	-1.12700E-001	9.86322E-004	4	..........a	-327.66
	36	7.4	-1.22644E-001	-1.27736E-010	0.00000E+000	-1.22700E-001	9.56422E-004	4	..........a	-327.66
	37	7.6	-1.32745E-001	-1.33910E-010	0.00000E+000	-1.32700E-001	9.72422E-004	4	..........a	-327.66
	38	7.8	-1.42684E-001	-1.37386E-010	0.00000E+000	-1.42700E-001	9.74222E-004	4	..........a	-327.66
	39	8	-1.52696E-001	-1.43495E-010	0.00000E+000	-1.52700E-001	9.66022E-004	4	..........a	-327.66
	40	8.2	-1.62530E-001	-1.48770E-010	0.00000E+000	-1.62700E-001	9.67022E-004	4	..........a	-327.66
	41	8.4	-1.72676E-001	-1.54744E-010	0.00000E+000	-1.72700E-001	9.70722E-004	4	..........a	-327.66
	42	8.6	-1.82713E-001	-1.61243E-010	0.00000E+000	-1.82700E-001	9.83022E-004	4	..........a	-327.66
	43	8.8	-1.92646E-001	-1.66919E-010	0.00000E+000	-1.92700E-001	9.71922E-004	4	..........a	-327.66
	44	9	-2.02666E-001	-1.74670E-010	0.00000E+000	-2.02700E-001	9.66922E-004	4	..........a	-327.66
	45	9.2	-2.12637E-001	-1.82371E-010	0.00000E+000	-2.12700E-001	9.62022E-004	4	..........a	-327.66
	46	9.4	-2.22667E-001	-1.90409E-010	0.00000E+000	-2.22700E-001	9.66322E-004	4	..........a	-327.66
	47	9.6	-2.32672E-001	-1.99138E-010	0.00000E+000	-2.32700E-001	9.81722E-004	4	..........a	-327.66
	48	9.8	-2.42656E-001	-2.08157E-010	0.00000E+000	-2.42700E-001	9.74422E-004	4	..........a	-327.66
	49	10	-2.52647E-001	-2.18251E-010	0.00000E+000	-2.52700E-001	9.73222E-004	4	..........a	-327.66
	50	10.2	-2.62646E-001	-2.28672E-010	0.00000E+000	-2.62700E-001	9.83322E-004	4	..........a	-327.66
	51	10.4	-2.72607E-001	-2.39177E-010	0.00000E+000	-2.72700E-001	9.62122E-004	4	..........a	-327.66
	52	10.6	-2.82558E-001	-2.50822E-010	0.00000E+000	-2.82700E-001	9.83222E-004	4	..........a	-327.66
	53	10.8	-2.92695E-001	-2.63760E-010	0.00000E+000	-2.92700E-001	9.71822E-004	4	..........a	-327.66
	54	11	-3.02644E-001	-2.77894E-010	0.00000E+000	-3.02700E-001	9.77222E-004	4	..........a	-327.66
	55	11.2	-3.12621E-001	-2.92193E-010	0.00000E+000	-3.12700E-001	9.53022E-004	4	..........a	-327.66
	56	11.4	-3.22600E-001	-3.04523E-010	0.00000E+000	-3.22700E-001	9.54422E-004	4	..........a	-327.66
	57	11.6	-3.32663E-001	-3.21562E-010	0.00000E+000	-3.32700E-001	9.74022E-004	4	..........a	-327.66
	58	11.8	-3.42616E-001	-3.33293E-010	0.00000E+000	-3.42700E-001	9.66022E-004	4	..........a	-327.66
	59	12	-3.52607E-001	-3.49837E-010	0.00000E+000	-3.52700E-001	9.76822E-004	4	..........a	-327.66
	60	12.2	-3.62555E-001	-3.56231E-010	0.00000E+000	-3.62700E-001	9.66922E-004	4	..........a	-327.66
	61	12.4	-3.72619E-001	-3.84708E-010	0.00000E+000	-3.72700E-001	9.75522E-004	4	..........a	-327.66
	62	12.6	-3.82636E-001	-3.99494E-010	0.00000E+000	-3.82700E-001	9.87322E-004	4	..........a	-327.66
	63	12.8	-3.92659E-001	-4.19589E-010	0.00000E+000	-3.92700E-001	9.61222E-004	4	..........a	-327.66
	64	13	-4.02594E-001	-4.35131E-010	0.00000E+000	-4.02700E-001	9.60422E-004	4	..........a	-327.66
	65	13.2	-4.12602E-001	-4.53583E-010	0.00000E+000	-4.12700E-001	9.76222E-004	4	..........a	-327.66
	66	13.4	-4.22549E-001	-4.71365E-010	0.00000E+000	-4.22700E-001	9.71222E-004	4	..........a	-327.66
	67	13.6	-4.32591E-001	-4.89652E-010	0.00000E+000	-4.32700E-001	9.77222E-004	4	..........a	-327.66
	68	13.8	-4.42526E-001	-5.11538E-010	0.00000E+000	-4.42700E-001	9.63222E-004	4	..........a	-327.66
	69	14	-4.52596E-001	-5.30075E-010	0.00000E+000	-4.52700E-001	9.74922E-004	4	..........a	-327.66
	70	14.2	-4.62526E-001	-5.50531E-010	0.00000E+000	-4.62700E-001	9.64522E-004	4	..........a	-327.66
	71	14.4	-4.72588E-001	-5.71593E-010	0.00000E+000	-4.72700E-001	9.61322E-004	4	..........a	-327.66
	72	14.6	-4.82557E-001	-5.93681E-010	0.00000E+000	-4.82700E-001	9.62522E-004	4	..........a	-327.66
	73	14.8	-4.92595E-001	-6.16140E-010	0.00000E+000	-4.92700E-001	9.72522E-004	4	..........a	-327.66
	74	15	-5.02613E-001	-6.40794E-010	0.00000E+000	-5.02700E-001	9.72622E-004	4	..........a	-327.66
	75	15.2	-5.12613E-001	-6.65273E-010	0.00000E+000	-5.12700E-001	9.79922E-004	4	..........a	-327.66
	76	15.4	-5.22529E-001	-6.90966E-010	0.00000E+000	-5.22700E-001	9.74122E-004	4	..........a	-327.66
	77	15.6	-5.32614E-001	-7.18127E-010	0.00000E+000	-5.32700E-001	9.71922E-004	4	..........a	-327.66
	78	15.8	-5.42650E-001	-7.46363E-010	0.00000E+000	-5.42700E-001	9.68122E-004	4	..........a	-327.66
	79	16	-5.52594E-001	-7.74974E-010	0.00000E+000	-5.52700E-001	9.73922E-004	4	..........a	-327.66
	80	16.2	-5.62574E-001	-8.09144E-010	0.00000E+000	-5.62700E-001	9.58522E-004	4	..........a	-327.66
	81	16.4	-5.72591E-001	-8.42242E-010	0.00000E+000	-5.72700E-001	9.84822E-004	4	..........a	-327.66
	82	16.6	-5.82583E-001	-8.78355E-010	0.00000E+000	-5.82700E-001	9.89322E-004	4	..........a	-327.66
	83	16.8	-5.92595E-001	-9.18607E-010	0.00000E+000	-5.92700E-001	9.59722E-004	4	..........a	-327.66
	84	17	-6.02583E-001	-9.61372E-010	0.00000E+000	-6.02700E-001	9.66822E-004	4	..........a	-327.66
	85	17.2	-5.92597E-001	-8.21681E-010	0.00000E+000	-5.92700E-001	9.69222E-004	4	..........a	-327.66
	86	17.4	-5.82645E-001	-7.25266E-010	0.00000E+000	-5.82700E-001	9.82222E-004	4	..........a	-327.66
	87	17.6	-5.72612E-001	-6.48706E-010	0.00000E+000	-5.72700E-001	9.60622E-004	4	..........a	-327.66
	88	17.8	-5.62576E-001	-5.83779E-010	0.00000E+000	-5.62700E-001	9.73222E-004	4	..........a	-327.66
	89	18	-5.52604E-001	-5.24579E-010	0.00000E+000	-5.52700E-001	9.75222E-004	4	..........a	-327.66
	90	18.2	-5.42548E-001	-4.73692E-010	0.00000E+000	-5.42700E-001	9.58222E-004	4	..........a	-327.66
	91	18.4	-5.32598E-001	-4.25807E-010	0.00000E+000	-5.32700E-001	9.81822E-004	4	..........a	-327.66
	92	18.6	-5.22588E-001	-3.82168E-010	0.00000E+000	-5.22700E-001	9.57822E-004	4	..........a	-327.66
	93	18.8	-5.12595E-001	-3.42104E-010	0.00000E+000	-5.12700E-001	9.75922E-004	4	..........a	-327.66
	94	19	-5.02554E-001	-3.07178E-010	0.00000E+000	-5.02700E-001	9.64122E-004	4	..........a	-327.66
	95	19.2	-4.92637E-001	-2.73698E-010	0.00000E+000	-4.92700E-001	9.71022E-004	4	..........a	-327.66
	96	19.4	-4.82551E-001	-2.41740E-010	0.00000E+000	-4.82700E-001	9.65622E-004	4	..........a	-327.66
	97	19.6	-4.72600E-001	-2.12321E-010	0.00000E+000	-4.72700E-001	9.66122E-004	4	..........a	-327.66
	98	19.8	-4.62653E-001	-1.85512E-010	0.00000E+000	-4.62700E-001	9.76922E-004	4	..........a	-327.66
	99	20	-4.52613E-001	-1.61361E-010	0.00000E+000	-4.52700E-001	9.66022E-004	4	..........a	-327.66
	100	20.2	-4.42564E-001	-1.38449E-010	0.00000E+000	-4.42700E-001	9.85622E-004	4	..........a	-327.66
	101	20.4	-4.32615E-001	-1.16760E-010	0.00000E+000	-4.32700E-001	9.71322E-004	4	..........a	-327.66
	102	20.6	-4.22597E-001	-9.56449E-011	0.00000E+000	-4.22700E-001	9.69122E-004	4	..........a	-327.66
	103	20.8	-4.12612E-001	-7.73312E-011	0.00000E+000	-4.12700E-001	9.73922E-004	4	..........a	-327.66
	104	21	-4.02599E-001	-5.99415E-011	0.00000E+000	-4.02700E-001	9.56522E-004	4	..........a	-327.66
	105	21.2	-3.92643E-001	-4.31209E-011	0.00000E+000	-3.92700E-001	9.78722E-004	4	..........a	-327.66
	106	21.4	-3.82662E-001	-2.76273E-011	0.00000E+000	-3.82700E-001	9.64022E-004	4	..........a	-327.66
	107	21.6	-3.72617E-001	-1.27957E-011	0.00000E+000	-3.72700E-001	9.60822E-004	4	..........a	-327.66
	108	21.8	-3.62547E-001	4.09815E-013	0.00000E+000	-3.62700E-001	9.60822E-004	4	..........a	-327.66
	109	22	-3.52629E-001	1.28503E-011	0.00000E+000	-3.52700E-001	9.66522E-004	4	..........a	-327.66
	110	22.2	-3.42607E-001	2.56328E-011	0.00000E+000	-3.42700E-001	9.68022E-004	4	..........a	-327.66
	111	22.4	-3.32637E-001	3.71532E-011	0.00000E+000	-3.32700E-001	9.68322E-004	4	..........a	-327.66
	112	22.6	-3.22607E-001	4.72846E-011	0.00000E+000	-3.22700E-001	9.55222E-004	4	..........a	-327.66
	113	22.8	-3.12621E-001	5.72200E-011	0.00000E+000	-3.12700E-001	9.61122E-004	4	..........a	-327.66
	114	23	-3.02657E-001	6.64754E-011	0.00000E+000	-3.02700E-001	9.76322E-004	4	..........a	-327.66
	115	23.2	-2.92968E-001	7.42416E-011	0.00000E+000	-2.92700E-001	9.65622E-004	4	..........a	-327.66
	116	23.4	-2.82596E-001	8.31400E-011	0.00000E+000	-2.82700E-001	9.71922E-004	4	..........a	-327.66
	117	23.6	-2.72602E-001	8.98052E-011	0.00000E+000	-2.72700E-001	9.80822E-004	4	..........a	-327.66
	118	23.8	-2.62655E-001	9.58505E-011	0.00000E+000	-2.62700E-001	9.87422E-004	4	..........a	-327.66
	119	24	-2.52640E-001	1.02892E-010	0.00000E+000	-2.52700E-001	9.72922E-004	4	..........a	-327.66
	120	24.2	-2.42522E-001	1.07821E-010	0.00000E+000	-2.42700E-001	9.84022E-004	4	..........a	-327.66
	121	24.4	-2.32711E-001	1.13740E-010	0.00000E+000	-2.32700E-001	9.93622E-004	4	..........a	-327.66
	122	24.6	-2.22639E-001	1.18885E-010	0.00000E+000	-2.22700E-001	9.81322E-004	4	..........a	-327.66
	123	24.8	-2.12654E-001	1.24496E-010	0.00000E+000	-2.12700E-001	9.65922E-004	4	..........a	-327.66
	124	25	-2.02623E-001	1.26853E-010	0.00000E+000	-2.02700E-001	9.77022E-004	4	..........a	-327.66
	125	25.2	-1.92632E-001	1.30159E-010	0.00000E+000	-1.92700E-001	9.64722E-004	4	..........a	-327.66
	126	25.4	-1.82714E-001	1.32043E-010	0.00000E+000	-1.82700E-001	9.79122E-004	4	..........a	-327.66
	127	25.6	-1.72641E-001	1.34173E-010	0.00000E+000	-1.72700E-001	9.83722E-004	4	..........a	-327.66
	128	25.8	-1.62488E-001	1.36092E-010	0.00000E+000	-1.62700E-001	9.62422E-004	4	..........a	-327.66
	129	26	-1.52649E-001	1.37133E-010	0.00000E+000	-1.52700E-001	9.88022E-004	4	..........a	-327.66
	130	26.2	-1.42664E-001	1.38017E-010	0.00000E+000	-1.42700E-001	9.75822E-004	4	..........a	-327.66
	131	26.4	-1.32684E-001	1.38957E-010	0.00000E+000	-1.32700E-001	9.68922E-004	4	..........a	-327.66
	132	26.6	-1.22650E-001	1.40036E-010	0.00000E+000	-1.22700E-001	9.80122E-004	4	..........a	-327.66
	133	26.8	-1.12637E-001	1.40824E-010	0.00000E+000	-1.12700E-001	9.76522E-004	4	..........a	-327.66
	134	27	-1.02746E-001	1.41598E-010	0.00000E+000	-1.02700E-001	9.85222E-004	4	..........a	-327.66
	135	27.2	-9.26583E-002	1.41529E-010	0.00000E+000	-9.27000E-002	9.75522E-004	4	..........a	-327.66
	136	27.4	-8.26036E-002	1.42852E-010	0.00000E+000	-8.27000E-002	9.75122E-004	4	..........a	-327.66
	137	27.6	-7.26673E-002	1.42580E-010	0.00000E+000	-7.27000E-002	9.73822E-004	4	..........a	-327.66
	138	27.8	-6.27816E-002	1.45149E-010	0.00000E+000	-6.27000E-002	9.74622E-004	4	..........a	-327.66
	139	28	-5.26916E-002	1.42796E-010	0.00000E+000	-5.27000E-002	9.77122E-004	4	..........a	-327.66
	140	28.2	-4.26479E-002	1.43154E-010	0.00000E+000	-4.27000E-002	9.55722E-004	4	..........a	-327.66
	141	28.4	-3.26804E-002	1.43286E-010	0.00000E+000	-3.27000E-002	9.82422E-004	4	..........a	-327.66
	142	28.6	-2.26888E-002	1.43703E-010	0.00000E+000	-2.27000E-002	9.75522E-004	4	..........a	-327.66
	143	28.8	-1.26874E-002	1.46878E-010	0.00000E+000	-1.27000E-002	9.87922E-004	4	..........a	-327.66
	144	29	-2.64336E-003	1.44916E-010	0.00000E+000	-2.69999E-003	9.75322E-004	4	..........a	-327.66
	145	29.2	7.36444E-003	1.48993E-010	0.00000E+000	7.30000E-003	9.78922E-004	4	..........a	-327.66
	146	29.4	1.72779E-002	1.44616E-010	0.00000E+000	1.73000E-002	9.90822E-004	4	..........a	-327.66
	147	29.6	2.73207E-002	1.44671E-010	0.00000E+000	2.73000E-002	9.69922E-004	4	..........a	-327.66
	148	29.8	3.73644E-002	1.46051E-010	0.00000E+000	3.73000E-002	9.69622E-004	4	..........a	-327.66
	149	30	4.72810E-002	1.45364E-010	0.00000E+000	4.73000E-002	9.89422E-004	4	..........a	-327.66
	150	30.2	5.73196E-002	1.46554E-010	0.00000E+000	5.73000E-002	9.80422E-004	4	..........a	-327.66
	151	30.4	6.73615E-002	1.45563E-010	0.00000E+000	6.73000E-002	9.78022E-004	4	..........a	-327.66
	152	30.6	7.73123E-002	1.47472E-010	0.00000E+000	7.73000E-002	9.78322E-004	4	..........a	-327.66
	153	30.8	8.73488E-002	1.47319E-010	0.00000E+000	8.73000E-002	9.73222E-004	4	..........a	-327.66
	154	31	9.72505E-002	1.48071E-010	0.00000E+000	9.73000E-002	9.61822E-004	4	..........a	-327.66
	155	31.2	1.07351E-001	1.47645E-010	0.00000E+000	1.07300E-001	9.76922E-004	4	..........a	-327.66
	156	31.4	1.17262E-001	1.48235E-010	0.00000E+000	1.17300E-001	9.79022E-004	4	..........a	-327.66
	157	31.6	1.27290E-001	1.48544E-010	0.00000E+000	1.27300E-001	9.78622E-004	4	..........a	-327.66
	158	31.8	1.37331E-001	1.52697E-010	0.00000E+000	1.37300E-001	9.85922E-004	4	..........a	-327.66
	159	32	1.47363E-001	1.51078E-010	0.00000E+000	1.47300E-001	9.72722E-004	4	..........a	-327.66
	160	32.2	1.57386E-001	1.51660E-010	0.00000E+000	1.57300E-001	9.72922E-004	4	..........a	-327.66
	161	32.4	1.67405E-001	1.58919E-010	0.00000E+000	1.67300E-001	9.71722E-004	4	..........a	-327.66
	162	32.6	1.77301E-001	1.58316E-010	0.00000E+000	1.77300E-001	9.76522E-004	4	..........a	-327.66
	163	32.8	1.87381E-001	1.59564E-010	0.00000E+000	1.87300E-001	9.73222E-004	4	..........a	-327.66
	164	33	1.97405E-001	1.56331E-010	0.00000E+000	1.97300E-001	9.63922E-004	4	..........a	-327.66
	165	33.2	2.07260E-001	1.57635E-010	0.00000E+000	2.07300E-001	9.84522E-004	4	..........a	-327.66
	166	33.4	2.17343E-001	1.62943E-010	0.00000E+000	2.17300E-001	9.76522E-004	4	..........a	-327.66
	167	33.6	2.27303E-001	1.64533E-010	0.00000E+000	2.27300E-001	9.80922E-004	4	..........a	-327.66
	168	33.8	2.37361E-001	1.65828E-010	0.00000E+000	2.37300E-001	9.81822E-004	4	..........a	-327.66
	169	34	2.47266E-001	1.67393E-010	0.00000E+000	2.47300E-001	9.94822E-004	4	..........a	-327.66
	170	34.2	2.57275E-001	1.70323E-010	0.00000E+000	2.57300E-001	9.97422E-004	4	..........a	-327.66
	171	34.4	2.67334E-001	1.72001E-010	0.00000E+000	2.67300E-001	9.79122E-004	4	..........a	-327.66
	172	34.6	2.77350E-001	1.74436E-010	0.00000E+000	2.77300E-001	9.74822E-004	4	..........a	-327.66
	173	34.8	2.87282E-001	1.78457E-010	0.00000E+000	2.87300E-001	9.83822E-004	4	..........a	-327.66
	174	35	2.97284E-001	1.80594E-010	0.00000E+000	2.97300E-001	9.79922E-004	4	..........a	-327.66
	175	35.2	3.07289E-001	1.84646E-010	0.00000E+000	3.07300E-001	9.76422E-004	4	..........a	-327.66
	176	35.4	3.17352E-001	1.84934E-010	0.00000E+000	3.17300E-001	9.81422E-004	4	..........a	-327.66
	177	35.6	3.27327E-001	1.86308E-010	0.00000E+000	3.27300E-001	9.84522E-004	4	..........a	-327.66
	178	35.8	3.37312E-001	1.91650E-010	0.00000E+000	3.37300E-001	9.68522E-004	4	..........a	-327.66
	179	36	3.46979E-001	1.90184E-010	0.00000E+000	3.47300E-001	9.73722E-004	4	..........a	-327.66
	180	36.2	3.57401E-001	1.94845E-010	0.00000E+000	3.57300E-001	9.66822E-004	4	..........a	-327.66
	181	36.4	3.67346E-001	1.97245E-010	0.00000E+000	3.67300E-001	9.74022E-004	4	..........a	-327.66
	182	36.6	3.77301E-001	2.00057E-010	0.00000E+000	3.77300E-001	9.85922E-004	4	..........a	-327.66
	183	36.8	3.87327E-001	2.01117E-010	0.00000E+000	3.87300E-001	9.83222E-004	4	..........a	-327.66
	184	37	3.97480E-001	2.03130E-010	0.00000E+000	3.97300E-001	9.96622E-004	4	..........a	-327.66
	185	37.2	4.07285E-001	2.05227E-010	0.00000E+000	4.07300E-001	9.92122E-004	4	..........a	-327.66
	186	37.4	4.17276E-001	2.09192E-010	0.00000E+000	4.17300E-001	9.74122E-004	4	..........a	-327.66
	187	37.6	4.27256E-001	2.12446E-010	0.00000E+000	4.27300E-001	9.95622E-004	4	..........a	-327.66
	188	37.8	4.37316E-001	2.14620E-010	0.00000E+000	4.37300E-001	9.65722E-004	4	..........a	-327.66
	189	38	4.47334E-001	2.17632E-010	0.00000E+000	4.47300E-001	9.75222E-004	4	..........a	-327.66
	190	38.2	4.57250E-001	2.18569E-010	0.00000E+000	4.57300E-001	9.91422E-004	4	..........a	-327.66
	191	38.4	4.67253E-001	2.20176E-010	0.00000E+000	4.67300E-001	9.84622E-004	4	..........a	-327.66
	192	38.6	4.77390E-001	2.24489E-010	0.00000E+000	4.77300E-001	9.85422E-004	4	..........a	-327.66
	193	38.8	4.87243E-001	2.29146E-010	0.00000E+000	4.87300E-001	9.75622E-004	4	..........a	-327.66
	194	39	4.97247E-001	2.33722E-010	0.00000E+000	4.97300E-001	9.93222E-004	4	..........a	-327.66
	195	39.2	5.07124E-001	2.36388E-010	0.00000E+000	5.07300E-001	9.81122E-004	4	..........a	-327.66
	196	39.4	5.17276E-001	2.41120E-010	0.00000E+000	5.17300E-001	9.73122E-004	4	..........a	-327.66
	197	39.6	5.27332E-001	2.45539E-010	0.00000E+000	5.27300E-001	9.76622E-004	4	..........a	-327.66
	198	39.8	5.37185E-001	2.49499E-010	0.00000E+000	5.37300E-001	9.80922E-004	4	..........a	-327.66
	199	40	5.47212E-001	2.53527E-010	0.00000E+000	5.47300E-001	9.81722E-004	4	..........a	-327.66
	200	40.2	5.57305E-001	2.58498E-010	0.00000E+000	5.57300E-001	9.82122E-004	4	..........a	-327.66
	201	40.4	5.67176E-001	2.62997E-010	0.00000E+000	5.67300E-001	9.95022E-004	4	..........a	-327.66
	202	40.6	5.77227E-001	2.68557E-010	0.00000E+000	5.77300E-001	9.72322E-004	4	..........a	-327.66
	203	40.8	5.87185E-001	2.73263E-010	0.00000E+000	5.87300E-001	9.76522E-004	4	..........a	-327.66
	204	41	5.97258E-001	2.78825E-010	0.00000E+000	5.97300E-001	9.64222E-004	4	..........a	-327.66
	205	41.2	6.07217E-001	2.84740E-010	0.00000E+000	6.07300E-001	9.94322E-004	4	..........a	-327.66
	206	41.4	6.17155E-001	2.90428E-010	0.00000E+000	6.17300E-001	9.68522E-004	4	..........a	-327.66
	207	41.6	6.27173E-001	2.95613E-010	0.00000E+000	6.27300E-001	9.70722E-004	4	..........a	-327.66
	208	41.8	6.37211E-001	3.02416E-010	0.00000E+000	6.37300E-001	9.79822E-004	4	..........a	-327.66
	209	42	6.47266E-001	3.09293E-010	0.00000E+000	6.47300E-001	9.87822E-004	4	..........a	-327.66
	210	42.2	6.57156E-001	3.16497E-010	0.00000E+000	6.57300E-001	9.79622E-004	4	..........a	-327.66
	211	42.4	6.67194E-001	3.24082E-010	0.00000E+000	6.67300E-001	9.98122E-004	4	..........a	-327.66
	212	42.6	6.77226E-001	3.30930E-010	0.00000E+000	6.77300E-001	9.83822E-004	4	..........a	-327.66
	213	42.8	6.87228E-001	3.38753E-010	0.00000E+000	6.87300E-001	9.80622E-004	4	..........a	-327.66
	214	43	6.97205E-001	3.46574E-010	0.00000E+000	6.97300E-001	9.87322E-004	4	..........a	-327.66
	215	43.2	7.07261E-001	3.55473E-010	0.00000E+000	7.07300E-001	9.81322E-004	4	..........a	-327.66
	216	43.4	7.17214E-001	3.65365E-010	0.00000E+000	7.17300E-001	9.80622E-004	4	..........a	-327.66
	217	43.6	7.27259E-001	3.75919E-010	0.00000E+000	7.27300E-001	9.79622E-004	4	..........a	-327.66
	218	43.8	7.37169E-001	3.87256E-010	0.00000E+000	7.37300E-001	9.81822E-004	4	..........a	-327.66
	219	44	7.47239E-001	3.99834E-010	0.00000E+000	7.47300E-001	9.88122E-004	4	..........a	-327.66
	220	44.2	7.57260E-001	4.13278E-010	0.00000E+000	7.57300E-001	9.68322E-004	4	..........a	-327.66
	221	44.4	7.67248E-001	4.28433E-010	0.00000E+000	7.67300E-001	9.93722E-004	4	..........a	-327.66
	222	44.6	7.77235E-001	4.43848E-010	0.00000E+000	7.77300E-001	9.98222E-004	4	..........a	-327.66
	223	44.8	7.87241E-001	4.61852E-010	0.00000E+000	7.87300E-001	9.77122E-004	4	..........a	-327.66
	224	45	7.97224E-001	4.81332E-010	0.00000E+000	7.97300E-001	9.79922E-004	4	..........a	-327.66
CURVE2	TABLE
	Pt	T	Vf	Im	Vu	Sig	Ach	IERange	Over	Temp
	#	s	V vs. Ref.	A	V	V	V	#	bits	deg C
	225	45.2	7.89908E-001	3.81398E-010	0.00000E+000	7.90000E-001	9.78322E-004	4	..........a	-327.66
	226	45.4	7.79952E-001	3.04676E-010	0.00000E+000	7.80000E-001	9.83122E-004	4	..........a	-327.66
	227	45.6	7.69900E-001	2.52278E-010	0.00000E+000	7.70000E-001	9.77122E-004	4	..........a	-327.66
	228	45.8	7.59959E-001	2.15158E-010	0.00000E+000	7.60000E-001	9.86422E-004	4	..........a	-327.66
	229	46	7.49964E-001	1.84734E-010	0.00000E+000	7.50000E-001	9.83522E-004	4	..........a	-327.66
	230	46.2	7.40021E-001	1.61264E-010	0.00000E+000	7.40000E-001	9.91822E-004	4	..........a	-327.66
	231	46.4	7.30020E-001	1.39681E-010	0.00000E+000	7.30000E-001	9.85022E-004	4	..........a	-327.66
	232	46.6	7.19849E-001	1.24265E-010	0.00000E+000	7.20000E-001	9.70522E-004	4	..........a	-327.66
	233	46.8	7.09884E-001	1.09716E-010	0.00000E+000	7.10000E-001	9.80322E-004	4	..........a	-327.66
	234	47	6.99969E-001	9.40874E-011	0.00000E+000	7.00000E-001	9.78422E-004	4	..........a	-327.66
	235	47.2	6.89914E-001	8.61391E-011	0.00000E+000	6.90000E-001	9.75322E-004	4	..........a	-327.66
	236	47.4	6.79794E-001	7.45577E-011	0.00000E+000	6.80000E-001	9.68922E-004	4	..........a	-327.66
	237	47.6	6.69861E-001	6.51453E-011	0.00000E+000	6.70000E-001	9.67222E-004	4	..........a	-327.66
	238	47.8	6.60024E-001	5.75480E-011	0.00000E+000	6.60000E-001	9.78122E-004	4	..........a	-327.66
	239	48	6.49889E-001	4.87427E-011	0.00000E+000	6.50000E-001	9.72322E-004	4	..........a	-327.66
	240	48.2	6.39884E-001	4.08674E-011	0.00000E+000	6.40000E-001	9.70622E-004	4	..........a	-327.66
	241	48.4	6.29849E-001	3.37131E-011	0.00000E+000	6.30000E-001	9.82022E-004	4	..........a	-327.66
	242	48.6	6.19979E-001	2.69118E-011	0.00000E+000	6.20000E-001	9.77022E-004	4	..........a	-327.66
	243	48.8	6.09930E-001	2.25997E-011	0.00000E+000	6.10000E-001	9.82722E-004	4	..........a	-327.66
	244	49	5.99960E-001	1.50564E-011	0.00000E+000	6.00000E-001	9.80722E-004	4	..........a	-327.66
	245	49.2	5.89979E-001	9.51116E-012	0.00000E+000	5.90000E-001	9.80622E-004	4	..........a	-327.66
	246	49.4	5.79973E-001	3.72594E-012	0.00000E+000	5.80000E-001	9.76522E-004	4	..........a	-327.66
	247	49.6	5.69927E-001	-2.70130E-012	0.00000E+000	5.70000E-001	9.79422E-004	4	..........a	-327.66
	248	49.8	5.59848E-001	-7.65249E-012	0.00000E+000	5.60000E-001	9.83522E-004	4	..........a	-327.66
	249	50	5.49937E-001	-1.12406E-011	0.00000E+000	5.50000E-001	9.58522E-004	4	..........a	-327.66
	250	50.2	5.40008E-001	-1.72179E-011	0.00000E+000	5.40000E-001	9.87222E-004	4	..........a	-327.66
	251	50.4	5.30020E-001	-2.15790E-011	0.00000E+000	5.30000E-001	9.67522E-004	4	..........a	-327.66
	252	50.6	5.19953E-001	-2.63892E-011	0.00000E+000	5.20000E-001	9.82322E-004	4	..........a	-327.66
	253	50.8	5.09912E-001	-3.17194E-011	0.00000E+000	5.10000E-001	9.79522E-004	4	..........a	-327.66
	254	51	5.00021E-001	-3.59876E-011	0.00000E+000	5.00000E-001	9.80322E-004	4	..........a	-327.66
	255	51.2	4.89992E-001	-3.89107E-011	0.00000E+000	4.90000E-001	9.78522E-004	4	..........a	-327.66
	256	51.4	4.79975E-001	-4.23558E-011	0.00000E+000	4.80000E-001	9.65922E-004	4	..........a	-327.66
	257	51.6	4.69923E-001	-4.67800E-011	0.00000E+000	4.70000E-001	9.80322E-004	4	..........a	-327.66
	258	51.8	4.60014E-001	-5.01441E-011	0.00000E+000	4.60000E-001	9.87522E-004	4	..........a	-327.66
	259	52	4.50050E-001	-5.37873E-011	0.00000E+000	4.50000E-001	9.72122E-004	4	..........a	-327.66
	260	52.2	4.39964E-001	-5.64454E-011	0.00000E+000	4.40000E-001	9.84922E-004	4	..........a	-327.66
	261	52.4	4.29946E-001	-6.08055E-011	0.00000E+000	4.30000E-001	1.00282E-003	4	..........a	-327.66
	262	52.6	4.20015E-001	-6.46247E-011	0.00000E+000	4.20000E-001	9.80222E-004	4	..........a	-327.66
	263	52.8	4.09965E-001	-6.82338E-011	0.00000E+000	4.10000E-001	9.78922E-004	4	..........a	-327.66
	264	53	3.99956E-001	-7.08219E-011	0.00000E+000	4.00000E-001	9.90822E-004	4	..........a	-327.66
	265	53.2	3.89986E-001	-7.33610E-011	0.00000E+000	3.90000E-001	9.74422E-004	4	..........a	-327.66
	266	53.4	3.80031E-001	-7.68201E-011	0.00000E+000	3.80000E-001	9.67322E-004	4	..........a	-327.66
	267	53.6	3.69979E-001	-8.09183E-011	0.00000E+000	3.70000E-001	9.62822E-004	4	..........a	-327.66
	268	53.8	3.59944E-001	-8.38514E-011	0.00000E+000	3.60000E-001	9.83422E-004	4	..........a	-327.66
	269	54	3.50000E-001	-8.65285E-011	0.00000E+000	3.50000E-001	9.83322E-004	4	..........a	-327.66
	270	54.2	3.40063E-001	-8.88636E-011	0.00000E+000	3.40000E-001	9.94322E-004	4	..........a	-327.66
	271	54.4	3.30006E-001	-9.23337E-011	0.00000E+000	3.30000E-001	9.69922E-004	4	..........a	-327.66
	272	54.6	3.19974E-001	-9.51058E-011	0.00000E+000	3.20000E-001	9.91622E-004	4	..........a	-327.66
	273	54.8	3.09974E-001	-9.79800E-011	0.00000E+000	3.10000E-001	9.92022E-004	4	..........a	-327.66
	274	55	3.00027E-001	-1.00502E-010	0.00000E+000	3.00000E-001	1.00202E-003	4	..........a	-327.66
	275	55.2	2.90017E-001	-1.02613E-010	0.00000E+000	2.90000E-001	9.74422E-004	4	..........a	-327.66
	276	55.4	2.79992E-001	-1.04362E-010	0.00000E+000	2.80000E-001	9.97222E-004	4	..........a	-327.66
	277	55.6	2.70022E-001	-1.06643E-010	0.00000E+000	2.70000E-001	9.90022E-004	4	..........a	-327.66
	278	55.8	2.60025E-001	-1.08268E-010	0.00000E+000	2.60000E-001	9.88922E-004	4	..........a	-327.66
	279	56	2.49948E-001	-1.10545E-010	0.00000E+000	2.50000E-001	9.71622E-004	4	..........a	-327.66
	280	56.2	2.40009E-001	-1.12904E-010	0.00000E+000	2.40000E-001	9.80022E-004	4	..........a	-327.66
	281	56.4	2.29965E-001	-1.14572E-010	0.00000E+000	2.30000E-001	9.95822E-004	4	..........a	-327.66
	282	56.6	2.20026E-001	-1.15728E-010	0.00000E+000	2.20000E-001	9.93922E-004	4	..........a	-327.66
	283	56.8	2.10024E-001	-1.17606E-010	0.00000E+000	2.10000E-001	9.87222E-004	4	..........a	-327.66
	284	57	2.00031E-001	-1.18734E-010	0.00000E+000	2.00000E-001	9.96022E-004	4	..........a	-327.66
	285	57.2	1.90046E-001	-1.19722E-010	0.00000E+000	1.90000E-001	9.83622E-004	4	..........a	-327.66
	286	57.4	1.80054E-001	-1.20674E-010	0.00000E+000	1.80000E-001	9.94322E-004	4	..........a	-327.66
	287	57.6	1.70208E-001	-1.21733E-010	0.00000E+000	1.70000E-001	9.94022E-004	4	..........a	-327.66
	288	57.8	1.60042E-001	-1.22601E-010	0.00000E+000	1.60000E-001	9.68122E-004	4	..........a	-327.66
	289	58	1.50005E-001	-1.23789E-010	0.00000E+000	1.50000E-001	9.98822E-004	4	..........a	-327.66
	290	58.2	1.40083E-001	-1.24839E-010	0.00000E+000	1.40000E-001	9.84422E-004	4	..........a	-327.66
	291	58.4	1.30063E-001	-1.26658E-010	0.00000E+000	1.30000E-001	9.72422E-004	4	..........a	-327.66
	292	58.6	1.20032E-001	-1.27483E-010	0.00000E+000	1.20000E-001	9.93322E-004	4	..........a	-327.66
	293	58.8	1.10023E-001	-1.30033E-010	0.00000E+000	1.10000E-001	9.98822E-004	4	..........a	-327.66
	294	59	9.99957E-002	-1.30824E-010	0.00000E+000	1.00000E-001	9.94322E-004	4	..........a	-327.66
	295	59.2	9.01048E-002	-1.32722E-010	0.00000E+000	9.00000E-002	9.81922E-004	4	..........a	-327.66
	296	59.4	7.99235E-002	-1.35518E-010	0.00000E+000	8.00000E-002	9.82522E-004	4	..........a	-327.66
	297	59.6	6.99649E-002	-1.36071E-010	0.00000E+000	7.00000E-002	9.90622E-004	4	..........a	-327.66
	298	59.8	6.00562E-002	-1.38879E-010	0.00000E+000	6.00000E-002	9.93722E-004	4	..........a	-327.66
	299	60	5.00048E-002	-1.41085E-010	0.00000E+000	5.00000E-002	9.83022E-004	4	..........a	-327.66
	300	60.2	3.99552E-002	-1.44437E-010	0.00000E+000	4.00000E-002	9.66922E-004	4	..........a	-327.66
	301	60.4	2.99969E-002	-1.47000E-010	0.00000E+000	3.00000E-002	1.00722E-003	4	..........a	-327.66
	302	60.6	1.99971E-002	-1.50012E-010	0.00000E+000	2.00000E-002	9.99422E-004	4	..........a	-327.66
	303	60.8	1.00766E-002	-1.52210E-010	0.00000E+000	1.00000E-002	9.85122E-004	4	..........a	-327.66
	304	61	3.57408E-005	-1.55901E-010	0.00000E+000	7.45058E-009	9.94722E-004	4	..........a	-327.66
	305	61.2	-1.00610E-002	-1.59238E-010	0.00000E+000	-1.00000E-002	9.76022E-004	4	..........a	-327.66
	306	61.4	-1.99466E-002	-1.62585E-010	0.00000E+000	-2.00000E-002	9.95422E-004	4	..........a	-327.66
	307	61.6	-2.99292E-002	-1.66446E-010	0.00000E+000	-3.00000E-002	9.65022E-004	4	..........a	-327.66
	308	61.8	-3.99512E-002	-1.70819E-010	0.00000E+000	-4.00000E-002	9.91222E-004	4	..........a	-327.66
	309	62	-5.00437E-002	-1.75592E-010	0.00000E+000	-5.00000E-002	9.72922E-004	4	..........a	-327.66
	310	62.2	-5.99634E-002	-1.79746E-010	0.00000E+000	-6.00000E-002	1.00092E-003	4	..........a	-327.66
	311	62.4	-6.99438E-002	-1.83746E-010	0.00000E+000	-7.00000E-002	9.85722E-004	4	..........a	-327.66
	312	62.6	-8.00019E-002	-1.89212E-010	0.00000E+000	-8.00000E-002	9.88422E-004	4	..........a	-327.66
	313	62.8	-8.99984E-002	-1.94345E-010	0.00000E+000	-9.00000E-002	9.94822E-004	4	..........a	-327.66
	314	63	-9.99705E-002	-1.99316E-010	0.00000E+000	-1.00000E-001	9.90622E-004	4	..........a	-327.66
	315	63.2	-1.10035E-001	-2.04644E-010	0.00000E+000	-1.10000E-001	9.84922E-004	4	..........a	-327.66
	316	63.4	-1.19995E-001	-2.09946E-010	0.00000E+000	-1.20000E-001	9.78422E-004	4	..........a	-327.66
	317	63.6	-1.29987E-001	-2.15387E-010	0.00000E+000	-1.30000E-001	9.89622E-004	4	..........a	-327.66
	318	63.8	-1.39902E-001	-2.21812E-010	0.00000E+000	-1.40000E-001	9.80022E-004	4	..........a	-327.66
	319	64	-1.49951E-001	-2.27965E-010	0.00000E+000	-1.50000E-001	9.68222E-004	4	..........a	-327.66
	320	64.2	-1.59926E-001	-2.33656E-010	0.00000E+000	-1.60000E-001	9.92022E-004	4	..........a	-327.66
	321	64.4	-1.69971E-001	-2.40138E-010	0.00000E+000	-1.70000E-001	9.80922E-004	4	..........a	-327.66
	322	64.6	-1.79943E-001	-2.47361E-010	0.00000E+000	-1.80000E-001	9.81522E-004	4	..........a	-327.66
	323	64.8	-1.90043E-001	-2.54669E-010	0.00000E+000	-1.90000E-001	9.69222E-004	4	..........a	-327.66
	324	65	-2.00064E-001	-2.62194E-010	0.00000E+000	-2.00000E-001	9.69122E-004	4	..........a	-327.66
	325	65.2	-2.09914E-001	-2.67872E-010	0.00000E+000	-2.10000E-001	9.66822E-004	4	..........a	-327.66
	326	65.4	-2.19906E-001	-2.80322E-010	0.00000E+000	-2.20000E-001	9.77322E-004	4	..........a	-327.66
	327	65.6	-2.29929E-001	-2.91673E-010	0.00000E+000	-2.30000E-001	9.92222E-004	4	..........a	-327.66
	328	65.8	-2.39868E-001	-2.97414E-010	0.00000E+000	-2.40000E-001	9.68822E-004	4	..........a	-327.66
	329	66	-2.49905E-001	-3.08514E-010	0.00000E+000	-2.50000E-001	9.73122E-004	4	..........a	-327.66
	330	66.2	-2.59862E-001	-3.17710E-010	0.00000E+000	-2.60000E-001	9.85122E-004	4	..........a	-327.66
	331	66.4	-2.69911E-001	-3.30111E-010	0.00000E+000	-2.70000E-001	9.77322E-004	4	..........a	-327.66
	332	66.6	-2.79877E-001	-3.41520E-010	0.00000E+000	-2.80000E-001	9.94622E-004	4	..........a	-327.66
	333	66.8	-2.89999E-001	-3.52596E-010	0.00000E+000	-2.90000E-001	9.65222E-004	4	..........a	-327.66
	334	67	-2.99870E-001	-3.59173E-010	0.00000E+000	-3.00000E-001	9.74122E-004	4	..........a	-327.66
	335	67.2	-3.09904E-001	-3.79496E-010	0.00000E+000	-3.10000E-001	9.56522E-004	4	..........a	-327.66
	336	67.4	-3.19870E-001	-3.93127E-010	0.00000E+000	-3.20000E-001	9.73722E-004	4	..........a	-327.66
	337	67.6	-3.29930E-001	-4.07903E-010	0.00000E+000	-3.30000E-001	9.82722E-004	4	..........a	-327.66
	338	67.8	-3.39888E-001	-4.21349E-010	0.00000E+000	-3.40000E-001	9.84222E-004	4	..........a	-327.66
	339	68	-3.49887E-001	-4.36565E-010	0.00000E+000	-3.50000E-001	9.69322E-004	4	..........a	-327.66
	340	68.2	-3.59919E-001	-4.52210E-010	0.00000E+000	-3.60000E-001	9.74222E-004	4	..........a	-327.66
	341	68.4	-3.69832E-001	-4.65510E-010	0.00000E+000	-3.70000E-001	9.81322E-004	4	..........a	-327.66
	342	68.6	-3.79902E-001	-4.81980E-010	0.00000E+000	-3.80000E-001	9.75022E-004	4	..........a	-327.66
	343	68.8	-3.89919E-001	-4.97164E-010	0.00000E+000	-3.90000E-001	9.67722E-004	4	..........a	-327.66
	344	69	-3.99918E-001	-5.14039E-010	0.00000E+000	-4.00000E-001	9.83822E-004	4	..........a	-327.66
	345	69.2	-4.09940E-001	-5.29500E-010	0.00000E+000	-4.10000E-001	9.81122E-004	4	..........a	-327.66
	346	69.4	-4.19847E-001	-5.47613E-010	0.00000E+000	-4.20000E-001	9.66022E-004	4	..........a	-327.66
	347	69.6	-4.29863E-001	-5.64487E-010	0.00000E+000	-4.30000E-001	9.72522E-004	4	..........a	-327.66
	348	69.8	-4.39875E-001	-5.82068E-010	0.00000E+000	-4.40000E-001	9.76222E-004	4	..........a	-327.66
	349	70	-4.49881E-001	-5.99108E-010	0.00000E+000	-4.50000E-001	9.67222E-004	4	..........a	-327.66
	350	70.2	-4.59846E-001	-6.17550E-010	0.00000E+000	-4.60000E-001	9.66222E-004	4	..........a	-327.66
	351	70.4	-4.69836E-001	-6.37826E-010	0.00000E+000	-4.70000E-001	9.67922E-004	4	..........a	-327.66
	352	70.6	-4.79892E-001	-6.57909E-010	0.00000E+000	-4.80000E-001	9.82122E-004	4	..........a	-327.66
	353	70.8	-4.89869E-001	-6.78080E-010	0.00000E+000	-4.90000E-001	9.80022E-004	4	..........a	-327.66
[...]
	921	184.4	-5.69897E-001	-9.59206E-010	0.00000E+000	-5.70000E-001	9.79522E-004	4	..........a	-327.66
	922	184.6	-5.79859E-001	-9.90760E-010	0.00000E+000	-5.80000E-001	9.62622E-004	4	..........a	-327.66
	923	184.8	-5.89879E-001	-1.03273E-009	0.00000E+000	-5.90000E-001	9.75022E-004	4	..........a	-327.66
	924	185	-5.99840E-001	-1.07478E-009	0.00000E+000	-6.00000E-001	9.77622E-004	4	..........a	-327.66
	925	185.2	-5.89864E-001	-8.63421E-010	0.00000E+000	-5.90000E-001	9.69322E-004	4	..........a	-327.66
	926	185.4	-5.79859E-001	-7.29341E-010	0.00000E+000	-5.80000E-001	9.89622E-004	4	..........a	-327.66
	927	185.6	-5.69906E-001	-6.28279E-010	0.00000E+000	-5.70000E-001	9.85022E-004	4	..........a	-327.66
	928	185.8	-5.59887E-001	-5.49123E-010	0.00000E+000	-5.60000E-001	9.87822E-004	4	..........a	-327.66
	929	186	-5.49974E-001	-4.81817E-010	0.00000E+000	-5.50000E-001	9.71022E-004	4	..........a	-327.66
	930	186.2	-5.39861E-001	-4.31152E-010	0.00000E+000	-5.40000E-001	1.00102E-003	4	..........a	-327.66
	931	186.4	-5.29861E-001	-3.84652E-010	0.00000E+000	-5.30000E-001	9.81422E-004	4	..........a	-327.66
	932	186.6	-5.19851E-001	-3.46260E-010	0.00000E+000	-5.20000E-001	9.85322E-004	4	..........a	-327.66
	933	186.8	-5.09851E-001	-3.12555E-010	0.00000E+000	-5.10000E-001	9.54622E-004	4	..........a	-327.66
	934	187	-4.99893E-001	-2.83620E-010	0.00000E+000	-5.00000E-001	9.70922E-004	4	..........a	-327.66
	935	187.2	-4.89928E-001	-2.51781E-010	0.00000E+000	-4.90000E-001	9.81422E-004	4	..........a	-327.66
	936	187.4	-4.79882E-001	-2.25624E-010	0.00000E+000	-4.80000E-001	9.69822E-004	4	..........a	-327.66
	937	187.6	-4.69882E-001	-2.01782E-010	0.00000E+000	-4.70000E-001	9.69622E-004	4	..........a	-327.66
	938	187.8	-4.59906E-001	-1.79189E-010	0.00000E+000	-4.60000E-001	9.85922E-004	4	..........a	-327.66
	939	188	-4.49890E-001	-1.57918E-010	0.00000E+000	-4.50000E-001	9.83722E-004	4	..........a	-327.66
	940	188.2	-4.39984E-001	-1.38031E-010	0.00000E+000	-4.40000E-001	9.76822E-004	4	..........a	-327.66
	941	188.4	-4.29884E-001	-1.18684E-010	0.00000E+000	-4.30000E-001	9.79022E-004	4	..........a	-327.66
	942	188.6	-4.19878E-001	-1.00300E-010	0.00000E+000	-4.20000E-001	9.86522E-004	4	..........a	-327.66
	943	188.8	-4.09953E-001	-8.24334E-011	0.00000E+000	-4.10000E-001	9.91022E-004	4	..........a	-327.66
	944	189	-3.99933E-001	-6.58787E-011	0.00000E+000	-4.00000E-001	9.76022E-004	4	..........a	-327.66
	945	189.2	-3.89924E-001	-4.96471E-011	0.00000E+000	-3.90000E-001	9.88622E-004	4	..........a	-327.66
	946	189.4	-3.79920E-001	-3.54536E-011	0.00000E+000	-3.80000E-001	1.00222E-003	4	..........a	-327.66
	947	189.6	-3.69997E-001	-1.90719E-011	0.00000E+000	-3.70000E-001	9.70822E-004	4	..........a	-327.66
	948	189.8	-3.59998E-001	-4.39737E-012	0.00000E+000	-3.60000E-001	9.93822E-004	4	..........a	-327.66
	949	190	-3.49918E-001	8.68013E-012	0.00000E+000	-3.50000E-001	9.85622E-004	4	..........a	-327.66
	950	190.2	-3.39927E-001	2.18346E-011	0.00000E+000	-3.40000E-001	9.89722E-004	4	..........a	-327.66
	951	190.4	-3.29978E-001	3.31191E-011	0.00000E+000	-3.30000E-001	9.81922E-004	4	..........a	-327.66
	952	190.6	-3.19882E-001	4.50945E-011	0.00000E+000	-3.20000E-001	9.75422E-004	4	..........a	-327.66
	953	190.8	-3.09901E-001	5.60679E-011	0.00000E+000	-3.10000E-001	9.89022E-004	4	..........a	-327.66
	954	191	-2.99916E-001	6.67764E-011	0.00000E+000	-3.00000E-001	9.79522E-004	4	..........a	-327.66
	955	191.2	-2.89983E-001	7.69928E-011	0.00000E+000	-2.90000E-001	9.81122E-004	4	..........a	-327.66
	956	191.4	-2.79901E-001	8.61511E-011	0.00000E+000	-2.80000E-001	9.78022E-004	4	..........a	-327.66
	957	191.6	-2.69910E-001	9.35094E-011	0.00000E+000	-2.70000E-001	9.79422E-004	4	..........a	-327.66
	958	191.8	-2.59936E-001	1.02717E-010	0.00000E+000	-2.60000E-001	9.98522E-004	4	..........a	-327.66
	959	192	-2.49996E-001	1.11213E-010	0.00000E+000	-2.50000E-001	9.90522E-004	4	..........a	-327.66
	960	192.2	-2.40027E-001	1.17659E-010	0.00000E+000	-2.40000E-001	9.67522E-004	4	..........a	-327.66
	961	192.4	-2.30007E-001	1.25934E-010	0.00000E+000	-2.30000E-001	9.65522E-004	4	..........a	-327.66
	962	192.6	-2.19919E-001	1.29427E-010	0.00000E+000	-2.20000E-001	9.77922E-004	4	..........a	-327.66
	963	192.8	-2.09961E-001	1.35409E-010	0.00000E+000	-2.10000E-001	9.93922E-004	4	..........a	-327.66
	964	193	-1.99963E-001	1.39585E-010	0.00000E+000	-2.00000E-001	9.89622E-004	4	..........a	-327.66
	965	193.2	-1.90166E-001	1.44636E-010	0.00000E+000	-1.90000E-001	9.77622E-004	4	..........a	-327.66
	966	193.4	-1.79977E-001	1.47454E-010	0.00000E+000	-1.80000E-001	9.91422E-004	4	..........a	-327.66
	967	193.6	-1.69997E-001	1.52646E-010	0.00000E+000	-1.70000E-001	9.83822E-004	4	..........a	-327.66
	968	193.8	-1.59958E-001	1.51528E-010	0.00000E+000	-1.60000E-001	9.93322E-004	4	..........a	-327.66
	969	194	-1.49949E-001	1.53222E-010	0.00000E+000	-1.50000E-001	9.80422E-004	4	..........a	-327.66
	970	194.2	-1.39843E-001	1.59539E-010	0.00000E+000	-1.40000E-001	9.83822E-004	4	..........a	-327.66
	971	194.4	-1.30098E-001	1.59430E-010	0.00000E+000	-1.30000E-001	9.69822E-004	4	..........a	-327.66
	972	194.6	-1.19933E-001	1.60003E-010	0.00000E+000	-1.20000E-001	9.79322E-004	4	..........a	-327.66
	973	194.8	-1.09961E-001	1.56403E-010	0.00000E+000	-1.10000E-001	9.80122E-004	4	..........a	-327.66
	974	195	-9.99674E-002	1.57299E-010	0.00000E+000	-1.00000E-001	9.76922E-004	4	..........a	-327.66
	975	195.2	-8.99698E-002	1.60880E-010	0.00000E+000	-9.00000E-002	9.91122E-004	4	..........a	-327.66
	976	195.4	-7.99317E-002	1.60742E-010	0.00000E+000	-8.00000E-002	9.71322E-004	4	..........a	-327.66
	977	195.6	-6.99611E-002	1.58669E-010	0.00000E+000	-7.00000E-002	9.84722E-004	4	..........a	-327.66
	978	195.8	-5.99799E-002	1.58387E-010	0.00000E+000	-6.00000E-002	9.84422E-004	4	..........a	-327.66
	979	196	-5.00128E-002	1.58497E-010	0.00000E+000	-5.00000E-002	1.00502E-003	4	..........a	-327.66
	980	196.2	-3.99341E-002	1.60896E-010	0.00000E+000	-4.00000E-002	9.79422E-004	4	..........a	-327.66
	981	196.4	-3.00291E-002	1.61122E-010	0.00000E+000	-3.00000E-002	9.71622E-004	4	..........a	-327.66
	982	196.6	-1.99580E-002	1.57846E-010	0.00000E+000	-2.00000E-002	9.80122E-004	4	..........a	-327.66
	983	196.8	-1.00260E-002	1.58470E-010	0.00000E+000	-1.00000E-002	9.67222E-004	4	..........a	-327.66
	984	197	7.63408E-005	1.60530E-010	0.00000E+000	7.45058E-009	9.83622E-004	4	..........a	-327.66
	985	197.2	1.00684E-002	1.60489E-010	0.00000E+000	1.00000E-002	9.72122E-004	4	..........a	-327.66
	986	197.4	2.00908E-002	1.60334E-010	0.00000E+000	2.00000E-002	9.96422E-004	4	..........a	-327.66
	987	197.6	3.00085E-002	1.57083E-010	0.00000E+000	3.00000E-002	9.88122E-004	4	..........a	-327.66
	988	197.8	3.98105E-002	1.59848E-010	0.00000E+000	4.00000E-002	9.79922E-004	4	..........a	-327.66
	989	198	5.00113E-002	1.60093E-010	0.00000E+000	5.00000E-002	9.65122E-004	4	..........a	-327.66
	990	198.2	6.00902E-002	1.60661E-010	0.00000E+000	6.00000E-002	9.86622E-004	4	..........a	-327.66
	991	198.4	6.99960E-002	1.57582E-010	0.00000E+000	7.00000E-002	9.79722E-004	4	..........a	-327.66
	992	198.6	8.00142E-002	1.57399E-010	0.00000E+000	8.00000E-002	9.80922E-004	4	..........a	-327.66
	993	198.8	8.99832E-002	1.61473E-010	0.00000E+000	9.00000E-002	9.74722E-004	4	..........a	-327.66
	994	199	1.00063E-001	1.62521E-010	0.00000E+000	1.00000E-001	9.74822E-004	4	..........a	-327.66
	995	199.2	1.10050E-001	1.63337E-010	0.00000E+000	1.10000E-001	9.68722E-004	4	..........a	-327.66
	996	199.4	1.19979E-001	1.62353E-010	0.00000E+000	1.20000E-001	9.94522E-004	4	..........a	-327.66
	997	199.6	1.30073E-001	1.63682E-010	0.00000E+000	1.30000E-001	9.74922E-004	4	..........a	-327.66
	998	199.8	1.40087E-001	1.66874E-010	0.00000E+000	1.40000E-001	9.75822E-004	4	..........a	-327.66
	999	200	1.50048E-001	1.68582E-010	0.00000E+000	1.50000E-001	9.94822E-004	4	..........a	-327.66
	1000	200.2	1.60014E-001	1.69703E-010	0.00000E+000	1.60000E-001	9.72922E-004	4	..........a	-327.66
	1001	200.4	1.70097E-001	1.72215E-010	0.00000E+000	1.70000E-001	9.74822E-004	4	..........a	-327.66
	1002	200.6	1.80070E-001	1.74652E-010	0.00000E+000	1.80000E-001	9.71022E-004	4	..........a	-327.66
	1003	200.8	1.90055E-001	1.78898E-010	0.00000E+000	1.90000E-001	9.85422E-004	4	..........a	-327.66
	1004	201	2.00037E-001	1.80736E-010	0.00000E+000	2.00000E-001	9.86022E-004	4	..........a	-327.66
	1005	201.2	2.09953E-001	1.89026E-010	0.00000E+000	2.10000E-001	9.71722E-004	4	..........a	-327.66
	1006	201.4	2.19646E-001	1.86303E-010	0.00000E+000	2.20000E-001	9.72522E-004	4	..........a	-327.66
	1007	201.6	2.29906E-001	1.92156E-010	0.00000E+000	2.30000E-001	9.83022E-004	4	..........a	-327.66
	1008	201.8	2.39993E-001	1.92883E-010	0.00000E+000	2.40000E-001	9.66822E-004	4	..........a	-327.66
	1009	202	2.50044E-001	1.96543E-010	0.00000E+000	2.50000E-001	9.82722E-004	4	..........a	-327.66
	1010	202.2	2.60034E-001	2.00287E-010	0.00000E+000	2.60000E-001	9.95122E-004	4	..........a	-327.66
	1011	202.4	2.69990E-001	2.03201E-010	0.00000E+000	2.70000E-001	9.82022E-004	4	..........a	-327.66
	1012	202.6	2.79985E-001	2.06643E-010	0.00000E+000	2.80000E-001	9.98922E-004	4	..........a	-327.66
	1013	202.8	2.89995E-001	2.09760E-010	0.00000E+000	2.90000E-001	9.78322E-004	4	..........a	-327.66
	1014	203	3.00036E-001	2.13663E-010	0.00000E+000	3.00000E-001	9.91922E-004	4	..........a	-327.66
	1015	203.2	3.10007E-001	2.16011E-010	0.00000E+000	3.10000E-001	9.81222E-004	4	..........a	-327.66
	1016	203.4	3.20011E-001	2.17528E-010	0.00000E+000	3.20000E-001	9.94422E-004	4	..........a	-327.66
	1017	203.6	3.30042E-001	2.19712E-010	0.00000E+000	3.30000E-001	9.62622E-004	4	..........a	-327.66
	1018	203.8	3.40044E-001	2.21216E-010	0.00000E+000	3.40000E-001	9.78622E-004	4	..........a	-327.66
	1019	204	3.49988E-001	2.23265E-010	0.00000E+000	3.50000E-001	9.86822E-004	4	..........a	-327.66
	1020	204.2	3.59979E-001	2.25644E-010	0.00000E+000	3.60000E-001	9.90922E-004	4	..........a	-327.66
	1021	204.4	3.70011E-001	2.27479E-010	0.00000E+000	3.70000E-001	9.85922E-004	4	..........a	-327.66
	1022	204.6	3.79984E-001	2.29089E-010	0.00000E+000	3.80000E-001	9.79422E-004	4	..........a	-327.66
	1023	204.8	3.89962E-001	2.30625E-010	0.00000E+000	3.90000E-001	9.92422E-004	4	..........a	-327.66
	1024	205	3.99985E-001	2.32206E-010	0.00000E+000	4.00000E-001	9.77322E-004	4	..........a	-327.66
	1025	205.2	4.09973E-001	2.34173E-010	0.00000E+000	4.10000E-001	9.85522E-004	4	..........a	-327.66
	1026	205.4	4.20017E-001	2.34591E-010	0.00000E+000	4.20000E-001	9.82222E-004	4	..........a	-327.66
	1027	205.6	4.29920E-001	2.35888E-010	0.00000E+000	4.30000E-001	9.76022E-004	4	..........a	-327.66
	1028	205.8	4.39885E-001	2.35944E-010	0.00000E+000	4.40000E-001	9.94722E-004	4	..........a	-327.66
	1029	206	4.49885E-001	2.37548E-010	0.00000E+000	4.50000E-001	9.81222E-004	4	..........a	-327.66
	1030	206.2	4.59945E-001	2.38559E-010	0.00000E+000	4.60000E-001	9.99222E-004	4	..........a	-327.66
	1031	206.4	4.69944E-001	2.40350E-010	0.00000E+000	4.70000E-001	9.90722E-004	4	..........a	-327.66
	1032	206.6	4.79875E-001	2.42036E-010	0.00000E+000	4.80000E-001	9.74822E-004	4	..........a	-327.66
	1033	206.8	4.89977E-001	2.44450E-010	0.00000E+000	4.90000E-001	9.81922E-004	4	..........a	-327.66
	1034	207	5.00012E-001	2.45933E-010	0.00000E+000	5.00000E-001	9.75222E-004	4	..........a	-327.66
	1035	207.2	5.09910E-001	2.46874E-010	0.00000E+000	5.10000E-001	9.84222E-004	4	..........a	-327.66
	1036	207.4	5.19870E-001	2.49480E-010	0.00000E+000	5.20000E-001	9.85522E-004	4	..........a	-327.66
	1037	207.6	5.29963E-001	2.51929E-010	0.00000E+000	5.30000E-001	9.89822E-004	4	..........a	-327.66
	1038	207.8	5.39947E-001	2.54050E-010	0.00000E+000	5.40000E-001	9.89122E-004	4	..........a	-327.66
	1039	208	5.49918E-001	2.56467E-010	0.00000E+000	5.50000E-001	9.59122E-004	4	..........a	-327.66
	1040	208.2	5.59912E-001	2.58971E-010	0.00000E+000	5.60000E-001	9.88622E-004	4	..........a	-327.66
	1041	208.4	5.69939E-001	2.62216E-010	0.00000E+000	5.70000E-001	9.82522E-004	4	..........a	-327.66
	1042	208.6	5.79923E-001	2.65099E-010	0.00000E+000	5.80000E-001	9.87522E-004	4	..........a	-327.66
	1043	208.8	5.89908E-001	2.68109E-010	0.00000E+000	5.90000E-001	9.73022E-004	4	..........a	-327.66
	1044	209	5.99918E-001	2.72423E-010	0.00000E+000	6.00000E-001	9.78022E-004	4	..........a	-327.66
	1045	209.2	6.09913E-001	2.75819E-010	0.00000E+000	6.10000E-001	9.65322E-004	4	..........a	-327.66
	1046	209.4	6.19980E-001	2.80747E-010	0.00000E+000	6.20000E-001	9.91522E-004	4	..........a	-327.66
	1047	209.6	6.29888E-001	2.85099E-010	0.00000E+000	6.30000E-001	9.68622E-004	4	..........a	-327.66
	1048	209.8	6.39906E-001	2.90037E-010	0.00000E+000	6.40000E-001	9.77722E-004	4	..........a	-327.66
	1049	210	6.49943E-001	2.96040E-010	0.00000E+000	6.50000E-001	9.79922E-004	4	..........a	-327.66
	1050	210.2	6.60001E-001	3.01399E-010	0.00000E+000	6.60000E-001	9.90622E-004	4	..........a	-327.66
	1051	210.4	6.69879E-001	3.07832E-010	0.00000E+000	6.70000E-001	9.97122E-004	4	..........a	-327.66
	1052	210.6	6.79981E-001	3.15405E-010	0.00000E+000	6.80000E-001	9.72422E-004	4	..........a	-327.66
	1053	210.8	6.89878E-001	3.22437E-010	0.00000E+000	6.90000E-001	9.72022E-004	4	..........a	-327.66
	1054	211	6.99981E-001	3.30826E-010	0.00000E+000	7.00000E-001	9.79022E-004	4	..........a	-327.66
	1055	211.2	7.09867E-001	3.39386E-010	0.00000E+000	7.10000E-001	9.86422E-004	4	..........a	-327.66
	1056	211.4	7.19949E-001	3.49199E-010	0.00000E+000	7.20000E-001	9.96322E-004	4	..........a	-327.66
	1057	211.6	7.30053E-001	3.60274E-010	0.00000E+000	7.30000E-001	9.72122E-004	4	..........a	-327.66
	1058	211.8	7.39968E-001	3.71470E-010	0.00000E+000	7.40000E-001	9.87922E-004	4	..........a	-327.66
	1059	212	7.49901E-001	3.84314E-010	0.00000E+000	7.50000E-001	9.82822E-004	4	..........a	-327.66
	1060	212.2	7.59966E-001	3.98727E-010	0.00000E+000	7.60000E-001	9.79322E-004	4	..........a	-327.66
	1061	212.4	7.69904E-001	4.13775E-010	0.00000E+000	7.70000E-001	9.68722E-004	4	..........a	-327.66
	1062	212.6	7.79953E-001	4.32583E-010	0.00000E+000	7.80000E-001	9.77422E-004	4	..........a	-327.66
	1063	212.8	7.89914E-001	4.52339E-010	0.00000E+000	7.90000E-001	1.00542E-003	4	..........a	-327.66
	1064	213	7.99945E-001	4.73438E-010	0.00000E+000	8.00000E-001	9.76922E-004	4	..........a	-327.66
CURVE5	TABLE
	Pt	T	Vf	Im	Vu	Sig	Ach	IERange	Over	Temp
	#	s	V vs. Ref.	A	V	V	V	#	bits	deg C
	1065	213.2	7.89842E-001	3.52377E-010	0.00000E+000	7.90000E-001	9.79822E-004	4	..........a	-327.66
	1066	213.4	7.79964E-001	2.81516E-010	0.00000E+000	7.80000E-001	9.89722E-004	4	..........a	-327.66
	1067	213.6	7.69981E-001	2.32119E-010	0.00000E+000	7.70000E-001	9.83322E-004	4	..........a	-327.66
	1068	213.8	7.59958E-001	1.93562E-010	0.00000E+000	7.60000E-001	9.77422E-004	4	..........a	-327.66
	1069	214	7.49930E-001	1.64786E-010	0.00000E+000	7.50000E-001	9.76122E-004	4	..........a	-327.66
	1070	214.2	7.39999E-001	1.38681E-010	0.00000E+000	7.40000E-001	1.00182E-003	4	..........a	-327.66
	1071	214.4	7.29968E-001	1.21458E-010	0.00000E+000	7.30000E-001	9.90322E-004	4	..........a	-327.66
	1072	214.6	7.19972E-001	1.02837E-010	0.00000E+000	7.20000E-001	9.98922E-004	4	..........a	-327.66
	1073	214.8	7.09954E-001	8.80492E-011	0.00000E+000	7.10000E-001	1.00092E-003	4	..........a	-327.66
	1074	215	6.99982E-001	7.40006E-011	0.00000E+000	7.00000E-001	9.85422E-004	4	..........a	-327.66
	1075	215.2	6.89882E-001	6.21002E-011	0.00000E+000	6.90000E-001	9.70122E-004	4	..........a	-327.66
	1076	215.4	6.79819E-001	5.32448E-011	0.00000E+000	6.80000E-001	9.73222E-004	4	..........a	-327.66
	1077	215.6	6.69928E-001	4.30855E-011	0.00000E+000	6.70000E-001	9.87622E-004	4	..........a	-327.66
	1078	215.8	6.60026E-001	3.58732E-011	0.00000E+000	6.60000E-001	9.80622E-004	4	..........a	-327.66
	1079	216	6.49890E-001	3.06520E-011	0.00000E+000	6.50000E-001	9.84322E-004	4	..........a	-327.66
	1080	216.2	6.39904E-001	2.13756E-011	0.00000E+000	6.40000E-001	1.01172E-003	4	..........a	-327.66
	1081	216.4	6.29879E-001	1.45044E-011	0.00000E+000	6.30000E-001	9.73922E-004	4	..........a	-327.66
	1082	216.6	6.19994E-001	9.29616E-012	0.00000E+000	6.20000E-001	9.83222E-004	4	..........a	-327.66
	1083	216.8	6.09924E-001	3.59794E-012	0.00000E+000	6.10000E-001	9.77222E-004	4	..........a	-327.66
	1084	217	5.99897E-001	-2.50230E-012	0.00000E+000	6.00000E-001	9.52822E-004	4	..........a	-327.66
	1085	217.2	5.89978E-001	-6.39745E-012	0.00000E+000	5.90000E-001	9.83622E-004	4	..........a	-327.66
	1086	217.4	5.80014E-001	-9.83358E-012	0.00000E+000	5.80000E-001	9.86622E-004	4	..........a	-327.66
	1087	217.6	5.69924E-001	-1.61618E-011	0.00000E+000	5.70000E-001	9.68322E-004	4	..........a	-327.66
	1088	217.8	5.59859E-001	-2.04800E-011	0.00000E+000	5.60000E-001	9.81222E-004	4	..........a	-327.66
	1089	218	5.49983E-001	-2.36931E-011	0.00000E+000	5.50000E-001	9.78122E-004	4	..........a	-327.66
	1090	218.2	5.40008E-001	-2.80603E-011	0.00000E+000	5.40000E-001	9.85422E-004	4	..........a	-327.66
	1091	218.4	5.29965E-001	-3.32455E-011	0.00000E+000	5.30000E-001	9.83522E-004	4	..........a	-327.66
	1092	218.6	5.19970E-001	-3.66236E-011	0.00000E+000	5.20000E-001	9.68222E-004	4	..........a	-327.66
	1093	218.8	5.09980E-001	-3.90687E-011	0.00000E+000	5.10000E-001	9.85822E-004	4	..........a	-327.66
	1094	219	5.00071E-001	-4.25008E-011	0.00000E+000	5.00000E-001	9.89422E-004	4	..........a	-327.66
	1095	219.2	4.89914E-001	-4.71650E-011	0.00000E+000	4.90000E-001	9.75022E-004	4	..........a	-327.66
	1096	219.4	4.79983E-001	-5.13942E-011	0.00000E+000	4.80000E-001	9.74022E-004	4	..........a	-327.66
	1097	219.6	4.69981E-001	-5.44813E-011	0.00000E+000	4.70000E-001	1.00052E-003	4	..........a	-327.66
	1098	219.8	4.60028E-001	-5.77214E-011	0.00000E+000	4.60000E-001	9.82122E-004	4	..........a	-327.66
	1099	220	4.49962E-001	-6.26686E-011	0.00000E+000	4.50000E-001	9.76222E-004	4	..........a	-327.66
	1100	220.2	4.39968E-001	-6.53087E-011	0.00000E+000	4.40000E-001	9.94822E-004	4	..........a	-327.66
	1101	220.4	4.29991E-001	-6.97299E-011	0.00000E+000	4.30000E-001	9.94722E-004	4	..........a	-327.66
	1102	220.6	4.20023E-001	-7.30250E-011	0.00000E+000	4.20000E-001	9.73522E-004	4	..........a	-327.66
	1103	220.8	4.09901E-001	-7.77262E-011	0.00000E+000	4.10000E-001	9.82822E-004	4	..........a	-327.66
	1104	221	3.99974E-001	-8.12643E-011	0.00000E+000	4.00000E-001	9.79522E-004	4	..........a	-327.66
	1105	221.2	3.89986E-001	-8.47225E-011	0.00000E+000	3.90000E-001	1.00472E-003	4	..........a	-327.66
	1106	221.4	3.80033E-001	-8.78876E-011	0.00000E+000	3.80000E-001	9.83122E-004	4	..........a	-327.66
	1107	221.6	3.70006E-001	-9.12177E-011	0.00000E+000	3.70000E-001	9.79222E-004	4	..........a	-327.66
	1108	221.8	3.60001E-001	-9.51589E-011	0.00000E+000	3.60000E-001	9.90922E-004	4	..........a	-327.66
	1109	222	3.49979E-001	-9.87750E-011	0.00000E+000	3.50000E-001	9.80722E-004	4	..........a	-327.66
	1110	222.2	3.40056E-001	-1.00672E-010	0.00000E+000	3.40000E-001	9.77422E-004	4	..........a	-327.66
	1111	222.4	3.30024E-001	-1.04353E-010	0.00000E+000	3.30000E-001	9.87522E-004	4	..........a	-327.66
	1112	222.6	3.19992E-001	-1.07619E-010	0.00000E+000	3.20000E-001	9.85122E-004	4	..........a	-327.66
	1113	222.8	3.09965E-001	-1.10705E-010	0.00000E+000	3.10000E-001	9.91522E-004	4	..........a	-327.66
	1114	223	3.00029E-001	-1.13414E-010	0.00000E+000	3.00000E-001	9.73122E-004	4	..........a	-327.66
	1115	223.2	2.90009E-001	-1.16128E-010	0.00000E+000	2.90000E-001	9.76622E-004	4	..........a	-327.66
	1116	223.4	2.79997E-001	-1.18384E-010	0.00000E+000	2.80000E-001	9.83222E-004	4	..........a	-327.66
	1117	223.6	2.70015E-001	-1.20508E-010	0.00000E+000	2.70000E-001	9.63722E-004	4	..........a	-327.66
	1118	223.8	2.60019E-001	-1.22994E-010	0.00000E+000	2.60000E-001	9.79722E-004	4	..........a	-327.66
	1119	224	2.50041E-001	-1.24773E-010	0.00000E+000	2.50000E-001	9.85522E-004	4	..........a	-327.66
	1120	224.2	2.39962E-001	-1.27588E-010	0.00000E+000	2.40000E-001	9.84822E-004	4	..........a	-327.66