File: data/raw/batch_data/20240321_ZZK_GM0016_HL03_E16_CV50.DTA
EXPLAIN
TAG	CV
TITLE	LABEL	Cyclic Voltammetry	Test &Identifier
DATE	LABEL	3/21/2024	Date
TIME	LABEL	20:02:12	Time
NOTES	NOTES	1	&Notes...

PSTAT	PSTAT	REF600P-43058	Potentiostat
VINIT	POTEN	0.00000E+000	T	Initial &E (V)
VLIMIT1	POTEN	-6.00000E-001	F	Scan Limit &1 (V)
VLIMIT2	POTEN	8.00000E-001	F	Scan Limit &2 (V)
VFINAL	POTEN	0.00000E+000	T	Final &E (V)
SCANRATE	QUANT	4.99999E+001	&Scan Rate (mV/s)
STEPSIZE	QUANT	1.00000E+001	St&ep Size (mV)
CYCLES	IQUANT	4	C&ycles (#)
IMODE	SELECTOR	1	I/E Range &Mode
IRANGE	QUANT	1.00000E-005	&Max Current (mA)
AREA	QUANT	1.00000E+000	Electrode &Area (cm^2)
ELECTRODETYPE	SELECTOR	0	Electrode Type
STRIPPING	TOGGLE	F	Used for Stripping
POLARITY	TOGGLE	F	Signal Polarity
CONDIT	TWOPARAM	F	1.50000E+001	0.00000E+000	Conditionin&g	Time(s)	E(V)
DELAY	TWOPARAM	T	1.00000E+001	0.00000E+000	Init. De&lay	Time(s)	Stab.(mV/s)
EQDELAY	QUANT	1.00000E+001	Equil. &Time (s)
IRCOMP	SELECTOR	0	IRCom&p
PFCOR	QUANT	5.00000E+001	PF Corr. (ohm)
SAMPLINGMODE	SELECTOR	1	Sampling &Mode
OCVCURVE	TABLE	39
	Pt	T	Vf	Vm	Ach	Over	Temp
	#	s	V vs. Ref.	V	V	bits	deg C
	0	0.258333	1.39084E-001	1.39084E-001	2.45822E-004	..........a	-327.66
	1	0.516667	1.39096E-001	1.39730E-001	2.52956E-004	..........a	-327.66
	2	0.775	1.39173E-001	1.40380E-001	2.50756E-004	..........a	-327.66
	3	1.03333	1.39392E-001	1.41039E-001	2.48089E-004	..........a	-327.66
	4	1.29167	1.39793E-001	1.41697E-001	2.47089E-004	..........a	-327.66
	5	1.55	1.40341E-001	1.42345E-001	2.42622E-004	..........a	-327.66
	6	1.80833	1.40970E-001	1.42993E-001	2.45889E-004	..........a	-327.66
	7	2.06667	1.41627E-001	1.43637E-001	2.38289E-004	..........a	-327.66
	8	2.325	1.42286E-001	1.44281E-001	2.43622E-004	..........a	-327.66
	9	2.58333	1.42939E-001	1.44928E-001	2.50822E-004	..........a	-327.66
	10	2.84167	1.43587E-001	1.45562E-001	2.58022E-004	..........a	-327.66
	11	3.1	1.44231E-001	1.46193E-001	2.56156E-004	..........a	-327.66
	12	3.35833	1.44872E-001	1.46829E-001	2.30689E-004	..........a	-327.66
	13	3.61667	1.45510E-001	1.47455E-001	2.48422E-004	..........a	-327.66
	14	3.875	1.46144E-001	1.48083E-001	2.34222E-004	..........a	-327.66
	15	4.13333	1.46776E-001	1.48703E-001	2.41822E-004	..........a	-327.66
	16	4.39167	1.47405E-001	1.49322E-001	2.50556E-004	..........a	-327.66
	17	4.65	1.48030E-001	1.49926E-001	2.49356E-004	..........a	-327.66
	18	4.90833	1.48652E-001	1.50546E-001	2.42622E-004	..........a	-327.66
	19	5.16667	1.49269E-001	1.51152E-001	2.51022E-004	..........a	-327.66
	20	5.425	1.49882E-001	1.51754E-001	2.35156E-004	..........a	-327.66
	21	5.68333	1.50494E-001	1.52358E-001	2.37356E-004	..........a	-327.66
	22	5.94167	1.51101E-001	1.52955E-001	2.52422E-004	..........a	-327.66
	23	6.2	1.51706E-001	1.53546E-001	2.45089E-004	..........a	-327.66
	24	6.45833	1.52308E-001	1.54143E-001	2.47156E-004	..........a	-327.66
	25	6.71667	1.52906E-001	1.54729E-001	2.38956E-004	..........a	-327.66
	26	6.975	1.53500E-001	1.55312E-001	2.39489E-004	..........a	-327.66
	27	7.23333	1.54092E-001	1.55895E-001	2.42889E-004	..........a	-327.66
	28	7.49167	1.54681E-001	1.56475E-001	2.44022E-004	..........a	-327.66
	29	7.75	1.55266E-001	1.57048E-001	2.44289E-004	..........a	-327.66
	30	8.00833	1.55847E-001	1.57617E-001	2.45422E-004	..........a	-327.66
	31	8.26667	1.56426E-001	1.58188E-001	2.38489E-004	..........a	-327.66
	32	8.525	1.57001E-001	1.58766E-001	2.49489E-004	..........a	-327.66
	33	8.78333	1.57574E-001	1.59324E-001	2.44289E-004	..........a	-327.66
	34	9.04167	1.58145E-001	1.59880E-001	2.42956E-004	..........a	-327.66
	35	9.3	1.58713E-001	1.60433E-001	2.54289E-004	..........a	-327.66
	36	9.5583	1.59276E-001	1.60989E-001	2.49089E-004	..........a	-327.66
	37	9.8167	1.59835E-001	1.61538E-001	2.47022E-004	..........a	-327.66
	38	10.075	1.60390E-001	1.62094E-001	2.44756E-004	..........a	-327.66
EOC	QUANT	0.1603904	Open Circuit (V)
PSTATMODEL	IQUANT	7	Pstat Model
PSTATSECTION	LABEL	REF600P-43058	Pstat Section
PSTATSERIALNO	LABEL	43058	Pstat Serial Number
CTRLMODE	IQUANT	1	Control Mode
ELECTROMETER	IQUANT	0	RE=0 or CS=1
IESTAB	IQUANT	2	I/E Stability
CASPEED	IQUANT	4	Control Amp Speed
CONVENTION	IQUANT	1	Current Convention
ICHRANGE	IQUANT	2	Ich Range
ICHRANGEMODE	TOGGLE	F	Ich Auto Range
ICHOFFSETENABLE	TOGGLE	F	Ich Offset Enable
ICHOFFSET	QUANT	0	Ich Offset (V)
ICHFILTER	IQUANT	2	Ich Filter
VCHRANGE	IQUANT	2	Vch Range
VCHRANGEMODE	TOGGLE	F	Vch Auto Range
VCHOFFSETENABLE	TOGGLE	F	Vch Offset Enable
VCHOFFSET	QUANT	0	Vch Offset (V)
VCHFILTER	IQUANT	2	Vch Filter
ACHRANGE	IQUANT	2	Ach Range
ACHOFFSETENABLE	TOGGLE	F	Ach Offset Enable
ACHOFFSET	QUANT	0	Ach Offset (V)
ACHFILTER	IQUANT	1	Ach Filter
IERANGELOWERLIMIT	IQUANT	1	I/E Range Lower Limit
IERANGEMODE	TOGGLE	F	I/E AutoRange
IERANGE	IQUANT	4	I/E Range
POSFEEDENABLE	TOGGLE	F	Positive Feedback IR Comp
POSFEEDRESISTANCE	QUANT	0	Positive Feedback Resistance (ohm)
ACHSELECT	IQUANT	4	Ach Select
SENSECABLEID	IQUANT	7	Sense Cable ID
PWRCABLEID	IQUANT	7	Power Cable ID
DCCALDATE	LABEL	12/18/2023	DC Calibration Date
ACCALDATE	LABEL	12/18/2023	AC Calibration Date
THERMOSELECT	IQUANT	1	Thermo Select
FRAMEWORKVERSION	LABEL	7.8.4	Framework Version
INSTRUMENTVERSION	LABEL	4.42	Instrument Version
CURVE1	TABLE
	Pt	T	Vf	Im	Vu	Sig	Ach	IERange	Over	Temp
	#	s	V vs. Ref.	A	V	V	V	#	bits	deg C
	0	0.2	1.60483E-001	3.85303E-011	0.00000E+000	1.60400E-001	9.88822E-004	4	..........a	-327.66
	1	0.4	1.50458E-001	6.20904E-012	0.00000E+000	1.50400E-001	1.00062E-003	4	..........a	-327.66
	2	0.6	1.40446E-001	-5.67142E-012	0.00000E+000	1.40400E-001	9.84322E-004	4	..........a	-327.66
	3	0.8	1.30458E-001	-1.15346E-011	0.00000E+000	1.30400E-001	1.00772E-003	4	..........a	-327.66
	4	1	1.20450E-001	-1.83639E-011	0.00000E+000	1.20400E-001	9.85622E-004	4	..........a	-327.66
	5	1.2	1.10384E-001	-2.31161E-011	0.00000E+000	1.10400E-001	9.88022E-004	4	..........a	-327.66
	6	1.4	1.00390E-001	-2.72062E-011	0.00000E+000	1.00400E-001	1.00982E-003	4	..........a	-327.66
	7	1.6	9.04360E-002	-3.15714E-011	0.00000E+000	9.04000E-002	9.89722E-004	4	..........a	-327.66
	8	1.8	8.04337E-002	-3.50475E-011	0.00000E+000	8.04000E-002	9.88022E-004	4	..........a	-327.66
	9	2	7.04280E-002	-3.74896E-011	0.00000E+000	7.04000E-002	1.01912E-003	4	..........a	-327.66
	10	2.2	6.04510E-002	-3.89077E-011	0.00000E+000	6.04000E-002	9.86122E-004	4	..........a	-327.66
	11	2.4	5.04692E-002	-4.09478E-011	0.00000E+000	5.04000E-002	9.92422E-004	4	..........a	-327.66
	12	2.6	4.04179E-002	-4.41899E-011	0.00000E+000	4.04000E-002	9.75322E-004	4	..........a	-327.66
	13	2.8	3.04459E-002	-4.64270E-011	0.00000E+000	3.04000E-002	1.00272E-003	4	..........a	-327.66
	14	3	2.03856E-002	-4.89341E-011	0.00000E+000	2.04000E-002	1.01362E-003	4	..........a	-327.66
	15	3.2	1.04818E-002	-5.07661E-011	0.00000E+000	1.04000E-002	9.89322E-004	4	..........a	-327.66
	16	3.4	4.41241E-004	-5.27752E-011	0.00000E+000	4.00007E-004	9.78822E-004	4	..........a	-327.66
	17	3.6	-9.52586E-003	-5.50173E-011	0.00000E+000	-9.60000E-003	1.00142E-003	4	..........a	-327.66
	18	3.8	-1.95751E-002	-5.69684E-011	0.00000E+000	-1.96000E-002	9.97422E-004	4	..........a	-327.66
	19	4	-2.95570E-002	-5.97795E-011	0.00000E+000	-2.96000E-002	1.01022E-003	4	..........a	-327.66
	20	4.2	-3.95903E-002	-6.28116E-011	0.00000E+000	-3.96000E-002	9.94422E-004	4	..........a	-327.66
	21	4.4	-4.96179E-002	-6.57347E-011	0.00000E+000	-4.96000E-002	9.93722E-004	4	..........a	-327.66
	22	4.6	-5.95716E-002	-6.86938E-011	0.00000E+000	-5.96000E-002	1.00302E-003	4	..........a	-327.66
	23	4.8	-6.95182E-002	-7.01199E-011	0.00000E+000	-6.96000E-002	9.93022E-004	4	..........a	-327.66
	24	5	-7.95601E-002	-7.34160E-011	0.00000E+000	-7.96000E-002	9.98422E-004	4	..........a	-327.66
	25	5.2	-8.95479E-002	-7.72562E-011	0.00000E+000	-8.96000E-002	9.97522E-004	4	..........a	-327.66
	26	5.4	-9.96215E-002	-8.14343E-011	0.00000E+000	-9.96000E-002	9.96522E-004	4	..........a	-327.66
	27	5.6	-1.09570E-001	-8.56165E-011	0.00000E+000	-1.09600E-001	1.02612E-003	4	..........a	-327.66
	28	5.8	-1.19559E-001	-8.96926E-011	0.00000E+000	-1.19600E-001	9.96922E-004	4	..........a	-327.66
	29	6	-1.29599E-001	-9.43258E-011	0.00000E+000	-1.29600E-001	9.90122E-004	4	..........a	-327.66
	30	6.2	-1.39578E-001	-9.98070E-011	0.00000E+000	-1.39600E-001	9.74922E-004	4	..........a	-327.66
	31	6.4	-1.49546E-001	-1.04706E-010	0.00000E+000	-1.49600E-001	1.00492E-003	4	..........a	-327.66
	32	6.6	-1.59597E-001	-1.09407E-010	0.00000E+000	-1.59600E-001	9.86222E-004	4	..........a	-327.66
	33	6.8	-1.69555E-001	-1.15464E-010	0.00000E+000	-1.69600E-001	9.95622E-004	4	..........a	-327.66
	34	7	-1.79608E-001	-1.21257E-010	0.00000E+000	-1.79600E-001	1.01382E-003	4	..........a	-327.66
	35	7.2	-1.89539E-001	-1.26918E-010	0.00000E+000	-1.89600E-001	1.00292E-003	4	..........a	-327.66
	36	7.4	-1.99585E-001	-1.32263E-010	0.00000E+000	-1.99600E-001	1.00342E-003	4	..........a	-327.66
	37	7.6	-2.09629E-001	-1.39709E-010	0.00000E+000	-2.09600E-001	9.95722E-004	4	..........a	-327.66
	38	7.8	-2.19549E-001	-1.47302E-010	0.00000E+000	-2.19600E-001	9.81322E-004	4	..........a	-327.66
	39	8	-2.29522E-001	-1.55028E-010	0.00000E+000	-2.29600E-001	9.86622E-004	4	..........a	-327.66
	40	8.2	-2.39504E-001	-1.63485E-010	0.00000E+000	-2.39600E-001	9.99822E-004	4	..........a	-327.66
	41	8.4	-2.49528E-001	-1.71868E-010	0.00000E+000	-2.49600E-001	9.86422E-004	4	..........a	-327.66
	42	8.6	-2.59598E-001	-1.81662E-010	0.00000E+000	-2.59600E-001	9.96722E-004	4	..........a	-327.66
	43	8.8	-2.69508E-001	-1.92356E-010	0.00000E+000	-2.69600E-001	9.90422E-004	4	..........a	-327.66
	44	9	-2.79541E-001	-2.03207E-010	0.00000E+000	-2.79600E-001	9.75022E-004	4	..........a	-327.66
	45	9.2	-2.89589E-001	-2.15663E-010	0.00000E+000	-2.89600E-001	1.02002E-003	4	..........a	-327.66
	46	9.4	-2.99536E-001	-2.28361E-010	0.00000E+000	-2.99600E-001	1.01412E-003	4	..........a	-327.66
	47	9.6	-3.09540E-001	-2.42170E-010	0.00000E+000	-3.09600E-001	1.00992E-003	4	..........a	-327.66
	48	9.8	-3.19529E-001	-2.58442E-010	0.00000E+000	-3.19600E-001	1.00222E-003	4	..........a	-327.66
	49	10	-3.29578E-001	-2.75342E-010	0.00000E+000	-3.29600E-001	9.91322E-004	4	..........a	-327.66
	50	10.2	-3.39492E-001	-2.93484E-010	0.00000E+000	-3.39600E-001	9.99522E-004	4	..........a	-327.66
	51	10.4	-3.49514E-001	-3.10618E-010	0.00000E+000	-3.49600E-001	9.85722E-004	4	..........a	-327.66
	52	10.6	-3.59516E-001	-3.33253E-010	0.00000E+000	-3.59600E-001	9.92822E-004	4	..........a	-327.66
	53	10.8	-3.69422E-001	-3.52903E-010	0.00000E+000	-3.69600E-001	1.01752E-003	4	..........a	-327.66
	54	11	-3.79505E-001	-3.79400E-010	0.00000E+000	-3.79600E-001	1.01312E-003	4	..........a	-327.66
	55	11.2	-3.89507E-001	-4.06763E-010	0.00000E+000	-3.89600E-001	1.00872E-003	4	..........a	-327.66
	56	11.4	-3.99485E-001	-4.33649E-010	0.00000E+000	-3.99600E-001	9.76422E-004	4	..........a	-327.66
	57	11.6	-4.09480E-001	-4.63220E-010	0.00000E+000	-4.09600E-001	9.86222E-004	4	..........a	-327.66
	58	11.8	-4.19449E-001	-4.93263E-010	0.00000E+000	-4.19600E-001	1.00242E-003	4	..........a	-327.66
	59	12	-4.29453E-001	-5.25469E-010	0.00000E+000	-4.29600E-001	9.69922E-004	4	..........a	-327.66
	60	12.2	-4.39465E-001	-5.61309E-010	0.00000E+000	-4.39600E-001	9.89522E-004	4	..........a	-327.66
	61	12.4	-4.49476E-001	-5.96769E-010	0.00000E+000	-4.49600E-001	1.02222E-003	4	..........a	-327.66
	62	12.6	-4.59509E-001	-6.34608E-010	0.00000E+000	-4.59600E-001	9.87822E-004	4	..........a	-327.66
	63	12.8	-4.69466E-001	-6.73831E-010	0.00000E+000	-4.69600E-001	9.87322E-004	4	..........a	-327.66
	64	13	-4.79446E-001	-7.13099E-010	0.00000E+000	-4.79600E-001	9.69922E-004	4	..........a	-327.66
	65	13.2	-4.89512E-001	-7.53965E-010	0.00000E+000	-4.89600E-001	1.01992E-003	4	..........a	-327.66
	66	13.4	-4.99481E-001	-7.99063E-010	0.00000E+000	-4.99600E-001	9.95222E-004	4	..........a	-327.66
	67	13.6	-5.09436E-001	-8.37532E-010	0.00000E+000	-5.09600E-001	1.00642E-003	4	..........a	-327.66
	68	13.8	-5.19487E-001	-8.82205E-010	0.00000E+000	-5.19600E-001	1.00372E-003	4	..........a	-327.66
	69	14	-5.29470E-001	-9.28044E-010	0.00000E+000	-5.29600E-001	9.83122E-004	4	..........a	-327.66
	70	14.2	-5.39482E-001	-9.71517E-010	0.00000E+000	-5.39600E-001	9.95722E-004	4	..........a	-327.66
	71	14.4	-5.49470E-001	-1.01862E-009	0.00000E+000	-5.49600E-001	1.01202E-003	4	..........a	-327.66
	72	14.6	-5.59471E-001	-1.06581E-009	0.00000E+000	-5.59600E-001	1.00812E-003	4	..........a	-327.66
	73	14.8	-5.69483E-001	-1.11442E-009	0.00000E+000	-5.69600E-001	9.93322E-004	4	..........a	-327.66
	74	15	-5.79469E-001	-1.16483E-009	0.00000E+000	-5.79600E-001	1.02742E-003	4	..........a	-327.66
	75	15.2	-5.89514E-001	-1.21773E-009	0.00000E+000	-5.89600E-001	1.01722E-003	4	..........a	-327.66
	76	15.4	-5.99444E-001	-1.27341E-009	0.00000E+000	-5.99600E-001	9.83822E-004	4	..........a	-327.66
	77	15.6	-5.89489E-001	-1.02202E-009	0.00000E+000	-5.89600E-001	1.03192E-003	4	..........a	-327.66
	78	15.8	-5.79451E-001	-8.64880E-010	0.00000E+000	-5.79600E-001	9.83422E-004	4	..........a	-327.66
	79	16	-5.69539E-001	-7.62819E-010	0.00000E+000	-5.69600E-001	1.01122E-003	4	..........a	-327.66
	80	16.2	-5.59491E-001	-6.74875E-010	0.00000E+000	-5.59600E-001	9.85922E-004	4	..........a	-327.66
	81	16.4	-5.49509E-001	-5.98433E-010	0.00000E+000	-5.49600E-001	9.79722E-004	4	..........a	-327.66
	82	16.6	-5.39515E-001	-5.34425E-010	0.00000E+000	-5.39600E-001	1.02262E-003	4	..........a	-327.66
	83	16.8	-5.29447E-001	-4.76625E-010	0.00000E+000	-5.29600E-001	1.02072E-003	4	..........a	-327.66
	84	17	-5.19510E-001	-4.26409E-010	0.00000E+000	-5.19600E-001	9.74622E-004	4	..........a	-327.66
	85	17.2	-5.09431E-001	-3.79231E-010	0.00000E+000	-5.09600E-001	1.00252E-003	4	..........a	-327.66
	86	17.4	-4.99477E-001	-3.38152E-010	0.00000E+000	-4.99600E-001	1.00512E-003	4	..........a	-327.66
	87	17.6	-4.89457E-001	-2.99144E-010	0.00000E+000	-4.89600E-001	9.97222E-004	4	..........a	-327.66
	88	17.8	-4.79452E-001	-2.64765E-010	0.00000E+000	-4.79600E-001	9.86522E-004	4	..........a	-327.66
	89	18	-4.69496E-001	-2.29282E-010	0.00000E+000	-4.69600E-001	1.00952E-003	4	..........a	-327.66
	90	18.2	-4.59551E-001	-1.97318E-010	0.00000E+000	-4.59600E-001	1.00532E-003	4	..........a	-327.66
	91	18.4	-4.49483E-001	-1.69163E-010	0.00000E+000	-4.49600E-001	1.00262E-003	4	..........a	-327.66
	92	18.6	-4.39480E-001	-1.41978E-010	0.00000E+000	-4.39600E-001	9.83122E-004	4	..........a	-327.66
	93	18.8	-4.29471E-001	-1.16897E-010	0.00000E+000	-4.29600E-001	9.97122E-004	4	..........a	-327.66
	94	19	-4.19532E-001	-9.30828E-011	0.00000E+000	-4.19600E-001	9.89522E-004	4	..........a	-327.66
	95	19.2	-4.09539E-001	-7.14449E-011	0.00000E+000	-4.09600E-001	1.00052E-003	4	..........a	-327.66
	96	19.4	-3.99513E-001	-5.03541E-011	0.00000E+000	-3.99600E-001	1.00092E-003	4	..........a	-327.66
	97	19.6	-3.89553E-001	-3.22014E-011	0.00000E+000	-3.89600E-001	1.01952E-003	4	..........a	-327.66
	98	19.8	-3.79581E-001	-1.25957E-011	0.00000E+000	-3.79600E-001	1.01462E-003	4	..........a	-327.66
	99	20	-3.69682E-001	3.70994E-012	0.00000E+000	-3.69600E-001	9.94922E-004	4	..........a	-327.66
	100	20.2	-3.59548E-001	1.97216E-011	0.00000E+000	-3.59600E-001	1.00432E-003	4	..........a	-327.66
	101	20.4	-3.49493E-001	3.51291E-011	0.00000E+000	-3.49600E-001	9.91822E-004	4	..........a	-327.66
	102	20.6	-3.39609E-001	4.64216E-011	0.00000E+000	-3.39600E-001	9.99822E-004	4	..........a	-327.66
	103	20.8	-3.29545E-001	5.85871E-011	0.00000E+000	-3.29600E-001	1.00072E-003	4	..........a	-327.66
	104	21	-3.19404E-001	7.01635E-011	0.00000E+000	-3.19600E-001	9.88122E-004	4	..........a	-327.66
	105	21.2	-3.09521E-001	8.13169E-011	0.00000E+000	-3.09600E-001	9.78122E-004	4	..........a	-327.66
	106	21.4	-2.99501E-001	8.97272E-011	0.00000E+000	-2.99600E-001	1.00952E-003	4	..........a	-327.66
	107	21.6	-2.89544E-001	9.68135E-011	0.00000E+000	-2.89600E-001	1.01632E-003	4	..........a	-327.66
	108	21.8	-2.79493E-001	1.06575E-010	0.00000E+000	-2.79600E-001	9.79522E-004	4	..........a	-327.66
	109	22	-2.69487E-001	1.13272E-010	0.00000E+000	-2.69600E-001	9.97022E-004	4	..........a	-327.66
	110	22.2	-2.59568E-001	1.20053E-010	0.00000E+000	-2.59600E-001	1.03252E-003	4	..........a	-327.66
	111	22.4	-2.49533E-001	1.26496E-010	0.00000E+000	-2.49600E-001	1.01672E-003	4	..........a	-327.66
	112	22.6	-2.39495E-001	1.29022E-010	0.00000E+000	-2.39600E-001	9.82722E-004	4	..........a	-327.66
	113	22.8	-2.29500E-001	1.34286E-010	0.00000E+000	-2.29600E-001	9.95522E-004	4	..........a	-327.66
	114	23	-2.19515E-001	1.38072E-010	0.00000E+000	-2.19600E-001	1.01022E-003	4	..........a	-327.66
	115	23.2	-2.09540E-001	1.40554E-010	0.00000E+000	-2.09600E-001	9.83322E-004	4	..........a	-327.66
	116	23.4	-1.99578E-001	1.43649E-010	0.00000E+000	-1.99600E-001	1.01782E-003	4	..........a	-327.66
	117	23.6	-1.89455E-001	1.47460E-010	0.00000E+000	-1.89600E-001	9.86822E-004	4	..........a	-327.66
	118	23.8	-1.79657E-001	1.51262E-010	0.00000E+000	-1.79600E-001	9.82222E-004	4	..........a	-327.66
	119	24	-1.69534E-001	1.56575E-010	0.00000E+000	-1.69600E-001	9.86322E-004	4	..........a	-327.66
	120	24.2	-1.59530E-001	1.55497E-010	0.00000E+000	-1.59600E-001	9.88922E-004	4	..........a	-327.66
	121	24.4	-1.49557E-001	1.55531E-010	0.00000E+000	-1.49600E-001	1.00372E-003	4	..........a	-327.66
	122	24.6	-1.39674E-001	1.61428E-010	0.00000E+000	-1.39600E-001	1.00742E-003	4	..........a	-327.66
	123	24.8	-1.29547E-001	1.62245E-010	0.00000E+000	-1.29600E-001	1.02162E-003	4	..........a	-327.66
	124	25	-1.19561E-001	1.63437E-010	0.00000E+000	-1.19600E-001	9.77422E-004	4	..........a	-327.66
	125	25.2	-1.09580E-001	1.64730E-010	0.00000E+000	-1.09600E-001	1.02562E-003	4	..........a	-327.66
	126	25.4	-9.95865E-002	1.66479E-010	0.00000E+000	-9.96000E-002	1.02322E-003	4	..........a	-327.66
	127	25.6	-8.95252E-002	1.68611E-010	0.00000E+000	-8.96000E-002	9.93422E-004	4	..........a	-327.66
	128	25.8	-7.95373E-002	1.70299E-010	0.00000E+000	-7.96000E-002	9.85922E-004	4	..........a	-327.66
	129	26	-6.95075E-002	1.72718E-010	0.00000E+000	-6.96000E-002	9.83822E-004	4	..........a	-327.66
	130	26.2	-5.95960E-002	1.74279E-010	0.00000E+000	-5.96000E-002	9.78022E-004	4	..........a	-327.66
	131	26.4	-4.95716E-002	1.76805E-010	0.00000E+000	-4.96000E-002	9.96922E-004	4	..........a	-327.66
	132	26.6	-3.95592E-002	1.78910E-010	0.00000E+000	-3.96000E-002	9.85622E-004	4	..........a	-327.66
	133	26.8	-2.95305E-002	1.81475E-010	0.00000E+000	-2.96000E-002	1.01192E-003	4	..........a	-327.66
	134	27	-1.95854E-002	1.84785E-010	0.00000E+000	-1.96000E-002	1.00992E-003	4	..........a	-327.66
	135	27.2	-9.55261E-003	1.85430E-010	0.00000E+000	-9.60000E-003	9.89522E-004	4	..........a	-327.66
	136	27.4	4.41791E-004	1.88805E-010	0.00000E+000	4.00007E-004	9.86222E-004	4	..........a	-327.66
	137	27.6	1.04905E-002	1.89916E-010	0.00000E+000	1.04000E-002	1.00722E-003	4	..........a	-327.66
	138	27.8	2.03994E-002	1.93813E-010	0.00000E+000	2.04000E-002	1.00812E-003	4	..........a	-327.66
	139	28	3.04743E-002	1.96776E-010	0.00000E+000	3.04000E-002	1.02172E-003	4	..........a	-327.66
	140	28.2	3.98001E-002	1.98440E-010	0.00000E+000	4.04000E-002	1.01452E-003	4	..........a	-327.66
	141	28.4	5.04595E-002	2.02577E-010	0.00000E+000	5.04000E-002	9.90022E-004	4	..........a	-327.66
	142	28.6	6.04484E-002	2.05657E-010	0.00000E+000	6.04000E-002	1.01902E-003	4	..........a	-327.66
	143	28.8	7.04310E-002	2.09164E-010	0.00000E+000	7.04000E-002	1.02622E-003	4	..........a	-327.66
	144	29	8.04685E-002	2.12698E-010	0.00000E+000	8.04000E-002	9.98322E-004	4	..........a	-327.66
	145	29.2	9.04945E-002	2.16029E-010	0.00000E+000	9.04000E-002	9.85722E-004	4	..........a	-327.66
	146	29.4	1.00434E-001	2.18373E-010	0.00000E+000	1.00400E-001	1.01192E-003	4	..........a	-327.66
	147	29.6	1.10465E-001	2.20509E-010	0.00000E+000	1.10400E-001	9.95922E-004	4	..........a	-327.66
	148	29.8	1.20529E-001	2.24233E-010	0.00000E+000	1.20400E-001	9.88422E-004	4	..........a	-327.66
	149	30	1.30410E-001	2.27568E-010	0.00000E+000	1.30400E-001	1.03352E-003	4	..........a	-327.66
	150	30.2	1.40445E-001	2.33745E-010	0.00000E+000	1.40400E-001	9.99122E-004	4	..........a	-327.66
	151	30.4	1.50361E-001	2.36966E-010	0.00000E+000	1.50400E-001	1.01162E-003	4	..........a	-327.66
	152	30.6	1.60410E-001	2.42294E-010	0.00000E+000	1.60400E-001	1.02082E-003	4	..........a	-327.66
	153	30.8	1.70378E-001	2.46332E-010	0.00000E+000	1.70400E-001	1.04372E-003	4	..........a	-327.66
	154	31	1.80400E-001	2.51140E-010	0.00000E+000	1.80400E-001	9.87622E-004	4	..........a	-327.66
	155	31.2	1.90380E-001	2.55096E-010	0.00000E+000	1.90400E-001	1.01562E-003	4	..........a	-327.66
	156	31.4	2.00463E-001	2.59509E-010	0.00000E+000	2.00400E-001	9.97722E-004	4	..........a	-327.66
	157	31.6	2.10398E-001	2.64075E-010	0.00000E+000	2.10400E-001	9.99022E-004	4	..........a	-327.66
	158	31.8	2.20325E-001	2.68736E-010	0.00000E+000	2.20400E-001	1.00842E-003	4	..........a	-327.66
	159	32	2.30357E-001	2.74027E-010	0.00000E+000	2.30400E-001	9.99922E-004	4	..........a	-327.66
	160	32.2	2.40416E-001	2.79938E-010	0.00000E+000	2.40400E-001	9.93622E-004	4	..........a	-327.66
	161	32.4	2.50418E-001	2.85331E-010	0.00000E+000	2.50400E-001	1.00642E-003	4	..........a	-327.66
	162	32.6	2.60341E-001	2.91819E-010	0.00000E+000	2.60400E-001	1.02712E-003	4	..........a	-327.66
	163	32.8	2.70433E-001	2.97974E-010	0.00000E+000	2.70400E-001	1.02742E-003	4	..........a	-327.66
	164	33	2.80382E-001	3.04892E-010	0.00000E+000	2.80400E-001	9.96822E-004	4	..........a	-327.66
	165	33.2	2.90446E-001	3.12089E-010	0.00000E+000	2.90400E-001	1.00382E-003	4	..........a	-327.66
	166	33.4	3.00341E-001	3.20096E-010	0.00000E+000	3.00400E-001	1.02672E-003	4	..........a	-327.66
	167	33.6	3.10390E-001	3.28740E-010	0.00000E+000	3.10400E-001	9.91522E-004	4	..........a	-327.66
	168	33.8	3.20406E-001	3.38040E-010	0.00000E+000	3.20400E-001	1.00472E-003	4	..........a	-327.66
	169	34	3.30438E-001	3.48400E-010	0.00000E+000	3.30400E-001	1.00922E-003	4	..........a	-327.66
	170	34.2	3.40398E-001	3.58905E-010	0.00000E+000	3.40400E-001	9.84822E-004	4	..........a	-327.66
	171	34.4	3.50342E-001	3.69950E-010	0.00000E+000	3.50400E-001	1.01202E-003	4	..........a	-327.66
	172	34.6	3.60412E-001	3.82639E-010	0.00000E+000	3.60400E-001	1.01462E-003	4	..........a	-327.66
	173	34.8	3.70444E-001	3.95893E-010	0.00000E+000	3.70400E-001	1.00482E-003	4	..........a	-327.66
	174	35	3.80349E-001	4.08479E-010	0.00000E+000	3.80400E-001	1.00632E-003	4	..........a	-327.66
	175	35.2	3.90401E-001	4.22433E-010	0.00000E+000	3.90400E-001	9.95322E-004	4	..........a	-327.66
	176	35.4	4.00374E-001	4.37398E-010	0.00000E+000	4.00400E-001	1.02452E-003	4	..........a	-327.66
	177	35.6	4.10428E-001	4.51887E-010	0.00000E+000	4.10400E-001	1.00772E-003	4	..........a	-327.66
	178	35.8	4.20370E-001	4.68324E-010	0.00000E+000	4.20400E-001	9.87822E-004	4	..........a	-327.66
	179	36	4.30349E-001	4.83787E-010	0.00000E+000	4.30400E-001	1.01712E-003	4	..........a	-327.66
	180	36.2	4.40341E-001	5.02500E-010	0.00000E+000	4.40400E-001	1.00782E-003	4	..........a	-327.66
	181	36.4	4.50431E-001	5.18658E-010	0.00000E+000	4.50400E-001	1.01462E-003	4	..........a	-327.66
	182	36.6	4.60300E-001	5.36346E-010	0.00000E+000	4.60400E-001	1.01782E-003	4	..........a	-327.66
	183	36.8	4.70398E-001	5.54459E-010	0.00000E+000	4.70400E-001	1.02352E-003	4	..........a	-327.66
	184	37	4.80368E-001	5.72550E-010	0.00000E+000	4.80400E-001	1.02312E-003	4	..........a	-327.66
	185	37.2	4.90426E-001	5.91639E-010	0.00000E+000	4.90400E-001	9.92322E-004	4	..........a	-327.66
	186	37.4	5.00376E-001	6.10198E-010	0.00000E+000	5.00400E-001	9.98722E-004	4	..........a	-327.66
	187	37.6	5.10361E-001	6.32145E-010	0.00000E+000	5.10400E-001	9.87522E-004	4	..........a	-327.66
	188	37.8	5.20360E-001	6.49171E-010	0.00000E+000	5.20400E-001	9.95122E-004	4	..........a	-327.66
	189	38	5.30417E-001	6.68751E-010	0.00000E+000	5.30400E-001	1.00382E-003	4	..........a	-327.66
	190	38.2	5.40358E-001	6.89251E-010	0.00000E+000	5.40400E-001	9.97022E-004	4	..........a	-327.66
	191	38.4	5.50419E-001	7.08978E-010	0.00000E+000	5.50400E-001	1.00202E-003	4	..........a	-327.66
	192	38.6	5.60386E-001	7.28562E-010	0.00000E+000	5.60400E-001	1.00162E-003	4	..........a	-327.66
	193	38.8	5.70398E-001	7.49401E-010	0.00000E+000	5.70400E-001	9.97722E-004	4	..........a	-327.66
	194	39	5.80306E-001	7.70765E-010	0.00000E+000	5.80400E-001	9.97222E-004	4	..........a	-327.66
	195	39.2	5.90351E-001	7.92163E-010	0.00000E+000	5.90400E-001	1.01502E-003	4	..........a	-327.66
	196	39.4	6.00344E-001	8.13534E-010	0.00000E+000	6.00400E-001	9.90922E-004	4	..........a	-327.66
	197	39.6	6.10410E-001	8.35153E-010	0.00000E+000	6.10400E-001	1.00002E-003	4	..........a	-327.66
	198	39.8	6.20310E-001	8.56039E-010	0.00000E+000	6.20400E-001	1.00152E-003	4	..........a	-327.66
	199	40	6.30350E-001	8.77921E-010	0.00000E+000	6.30400E-001	9.88422E-004	4	..........a	-327.66
	200	40.2	6.40294E-001	9.00249E-010	0.00000E+000	6.40400E-001	1.00332E-003	4	..........a	-327.66
	201	40.4	6.50372E-001	9.23648E-010	0.00000E+000	6.50400E-001	9.89722E-004	4	..........a	-327.66
	202	40.6	6.60307E-001	9.47454E-010	0.00000E+000	6.60400E-001	1.02222E-003	4	..........a	-327.66
	203	40.8	6.70331E-001	9.71997E-010	0.00000E+000	6.70400E-001	9.94422E-004	4	..........a	-327.66
	204	41	6.80113E-001	9.97299E-010	0.00000E+000	6.80400E-001	9.83622E-004	4	..........a	-327.66
	205	41.2	6.90396E-001	1.02299E-009	0.00000E+000	6.90400E-001	1.00862E-003	4	..........a	-327.66
	206	41.4	7.00289E-001	1.05064E-009	0.00000E+000	7.00400E-001	9.78122E-004	4	..........a	-327.66
	207	41.6	7.10305E-001	1.07664E-009	0.00000E+000	7.10400E-001	1.00652E-003	4	..........a	-327.66
	208	41.8	7.20327E-001	1.10476E-009	0.00000E+000	7.20400E-001	1.00402E-003	4	..........a	-327.66
	209	42	7.30383E-001	1.13466E-009	0.00000E+000	7.30400E-001	9.99222E-004	4	..........a	-327.66
	210	42.2	7.40275E-001	1.16678E-009	0.00000E+000	7.40400E-001	1.00202E-003	4	..........a	-327.66
	211	42.4	7.50356E-001	1.19693E-009	0.00000E+000	7.50400E-001	1.00912E-003	4	..........a	-327.66
	212	42.6	7.60324E-001	1.22682E-009	0.00000E+000	7.60400E-001	1.00702E-003	4	..........a	-327.66
	213	42.8	7.70396E-001	1.25791E-009	0.00000E+000	7.70400E-001	1.01312E-003	4	..........a	-327.66
	214	43	7.80304E-001	1.28926E-009	0.00000E+000	7.80400E-001	9.77822E-004	4	..........a	-327.66
	215	43.2	7.90302E-001	1.32189E-009	0.00000E+000	7.90400E-001	9.96922E-004	4	..........a	-327.66
	216	43.4	8.00311E-001	1.35506E-009	0.00000E+000	8.00400E-001	9.81822E-004	4	..........a	-327.66
CURVE2	TABLE
	Pt	T	Vf	Im	Vu	Sig	Ach	IERange	Over	Temp
	#	s	V vs. Ref.	A	V	V	V	#	bits	deg C
	217	43.6	7.89900E-001	9.33238E-010	0.00000E+000	7.90000E-001	1.00402E-003	4	..........a	-327.66
	218	43.8	7.79967E-001	6.98300E-010	0.00000E+000	7.80000E-001	9.97322E-004	4	..........a	-327.66
	219	44	7.69903E-001	5.42925E-010	0.00000E+000	7.70000E-001	9.96022E-004	4	..........a	-327.66
	220	44.2	7.59924E-001	4.34355E-010	0.00000E+000	7.60000E-001	1.02222E-003	4	..........a	-327.66
	221	44.4	7.49919E-001	3.50613E-010	0.00000E+000	7.50000E-001	1.00172E-003	4	..........a	-327.66
	222	44.6	7.39974E-001	2.86485E-010	0.00000E+000	7.40000E-001	9.88522E-004	4	..........a	-327.66
	223	44.8	7.30030E-001	2.32911E-010	0.00000E+000	7.30000E-001	9.93522E-004	4	..........a	-327.66
	224	45	7.19912E-001	1.90928E-010	0.00000E+000	7.20000E-001	1.01362E-003	4	..........a	-327.66
	225	45.2	7.09928E-001	1.54114E-010	0.00000E+000	7.10000E-001	1.02122E-003	4	..........a	-327.66
	226	45.4	6.99988E-001	1.23679E-010	0.00000E+000	7.00000E-001	1.00742E-003	4	..........a	-327.66
	227	45.6	6.89934E-001	9.45774E-011	0.00000E+000	6.90000E-001	9.87622E-004	4	..........a	-327.66
	228	45.8	6.79794E-001	7.11025E-011	0.00000E+000	6.80000E-001	9.91422E-004	4	..........a	-327.66
	229	46	6.69905E-001	5.10118E-011	0.00000E+000	6.70000E-001	1.01492E-003	4	..........a	-327.66
	230	46.2	6.60039E-001	3.31541E-011	0.00000E+000	6.60000E-001	9.97422E-004	4	..........a	-327.66
	231	46.4	6.49923E-001	1.38343E-011	0.00000E+000	6.50000E-001	9.89222E-004	4	..........a	-327.66
	232	46.6	6.39909E-001	-2.01209E-013	0.00000E+000	6.40000E-001	9.97822E-004	4	..........a	-327.66
	233	46.8	6.29920E-001	-1.53298E-011	0.00000E+000	6.30000E-001	9.99222E-004	4	..........a	-327.66
	234	47	6.19992E-001	-2.93473E-011	0.00000E+000	6.20000E-001	1.01742E-003	4	..........a	-327.66
	235	47.2	6.09940E-001	-4.11288E-011	0.00000E+000	6.10000E-001	9.91922E-004	4	..........a	-327.66
	236	47.4	5.99980E-001	-5.22502E-011	0.00000E+000	6.00000E-001	9.72822E-004	4	..........a	-327.66
	237	47.6	5.89950E-001	-6.24796E-011	0.00000E+000	5.90000E-001	1.01782E-003	4	..........a	-327.66
	238	47.8	5.80029E-001	-7.22300E-011	0.00000E+000	5.80000E-001	9.93622E-004	4	..........a	-327.66
	239	48	5.69955E-001	-8.07893E-011	0.00000E+000	5.70000E-001	1.00802E-003	4	..........a	-327.66
	240	48.2	5.59954E-001	-8.93026E-011	0.00000E+000	5.60000E-001	1.00952E-003	4	..........a	-327.66
	241	48.4	5.49961E-001	-9.57699E-011	0.00000E+000	5.50000E-001	9.90822E-004	4	..........a	-327.66
	242	48.6	5.40023E-001	-1.03301E-010	0.00000E+000	5.40000E-001	1.00602E-003	4	..........a	-327.66
	243	48.8	5.29957E-001	-1.09477E-010	0.00000E+000	5.30000E-001	9.93822E-004	4	..........a	-327.66
	244	49	5.19980E-001	-1.15419E-010	0.00000E+000	5.20000E-001	9.97922E-004	4	..........a	-327.66
	245	49.2	5.09932E-001	-1.20412E-010	0.00000E+000	5.10000E-001	1.00882E-003	4	..........a	-327.66
	246	49.4	5.00027E-001	-1.25026E-010	0.00000E+000	5.00000E-001	1.00062E-003	4	..........a	-327.66
	247	49.6	4.89954E-001	-1.29709E-010	0.00000E+000	4.90000E-001	9.89422E-004	4	..........a	-327.66
	248	49.8	4.79932E-001	-1.32735E-010	0.00000E+000	4.80000E-001	9.97222E-004	4	..........a	-327.66
	249	50	4.69955E-001	-1.36060E-010	0.00000E+000	4.70000E-001	1.01122E-003	4	..........a	-327.66
	250	50.2	4.59991E-001	-1.38763E-010	0.00000E+000	4.60000E-001	1.00242E-003	4	..........a	-327.66
	251	50.4	4.49983E-001	-1.41987E-010	0.00000E+000	4.50000E-001	9.96922E-004	4	..........a	-327.66
	252	50.6	4.39931E-001	-1.44990E-010	0.00000E+000	4.40000E-001	1.00312E-003	4	..........a	-327.66
	253	50.8	4.29965E-001	-1.46924E-010	0.00000E+000	4.30000E-001	1.01012E-003	4	..........a	-327.66
	254	51	4.20024E-001	-1.48297E-010	0.00000E+000	4.20000E-001	1.00502E-003	4	..........a	-327.66
	255	51.2	4.09959E-001	-1.49981E-010	0.00000E+000	4.10000E-001	9.84922E-004	4	..........a	-327.66
	256	51.4	4.00037E-001	-1.52128E-010	0.00000E+000	4.00000E-001	1.01352E-003	4	..........a	-327.66
	257	51.6	3.89977E-001	-1.52746E-010	0.00000E+000	3.90000E-001	1.00612E-003	4	..........a	-327.66
	258	51.8	3.80024E-001	-1.53453E-010	0.00000E+000	3.80000E-001	1.01792E-003	4	..........a	-327.66
	259	52	3.70003E-001	-1.54360E-010	0.00000E+000	3.70000E-001	9.99922E-004	4	..........a	-327.66
	260	52.2	3.60020E-001	-1.55518E-010	0.00000E+000	3.60000E-001	1.01062E-003	4	..........a	-327.66
	261	52.4	3.49985E-001	-1.55559E-010	0.00000E+000	3.50000E-001	9.81222E-004	4	..........a	-327.66
	262	52.6	3.40058E-001	-1.55833E-010	0.00000E+000	3.40000E-001	9.87822E-004	4	..........a	-327.66
	263	52.8	3.30039E-001	-1.55914E-010	0.00000E+000	3.30000E-001	9.81622E-004	4	..........a	-327.66
	264	53	3.20001E-001	-1.57699E-010	0.00000E+000	3.20000E-001	1.01602E-003	4	..........a	-327.66
	265	53.2	3.09980E-001	-1.57175E-010	0.00000E+000	3.10000E-001	1.02082E-003	4	..........a	-327.66
	266	53.4	3.00021E-001	-1.57311E-010	0.00000E+000	3.00000E-001	9.96022E-004	4	..........a	-327.66
	267	53.6	2.90005E-001	-1.57622E-010	0.00000E+000	2.90000E-001	1.00192E-003	4	..........a	-327.66
	268	53.8	2.80010E-001	-1.58313E-010	0.00000E+000	2.80000E-001	1.00462E-003	4	..........a	-327.66
	269	54	2.69992E-001	-1.58455E-010	0.00000E+000	2.70000E-001	9.86222E-004	4	..........a	-327.66
	270	54.2	2.60027E-001	-1.59321E-010	0.00000E+000	2.60000E-001	1.03572E-003	4	..........a	-327.66
	271	54.4	2.50053E-001	-1.59216E-010	0.00000E+000	2.50000E-001	1.00652E-003	4	..........a	-327.66
	272	54.6	2.40024E-001	-1.59244E-010	0.00000E+000	2.40000E-001	1.00412E-003	4	..........a	-327.66
	273	54.8	2.29978E-001	-1.60353E-010	0.00000E+000	2.30000E-001	9.92122E-004	4	..........a	-327.66
	274	55	2.20026E-001	-1.60675E-010	0.00000E+000	2.20000E-001	9.90522E-004	4	..........a	-327.66
	275	55.2	2.09999E-001	-1.60992E-010	0.00000E+000	2.10000E-001	1.00202E-003	4	..........a	-327.66
	276	55.4	2.00048E-001	-1.61282E-010	0.00000E+000	2.00000E-001	9.96722E-004	4	..........a	-327.66
	277	55.6	1.90041E-001	-1.61588E-010	0.00000E+000	1.90000E-001	1.02232E-003	4	..........a	-327.66
	278	55.8	1.80056E-001	-1.61772E-010	0.00000E+000	1.80000E-001	1.00792E-003	4	..........a	-327.66
	279	56	1.70078E-001	-1.62644E-010	0.00000E+000	1.70000E-001	9.90722E-004	4	..........a	-327.66
	280	56.2	1.60045E-001	-1.62620E-010	0.00000E+000	1.60000E-001	1.00762E-003	4	..........a	-327.66
	281	56.4	1.50018E-001	-1.62797E-010	0.00000E+000	1.50000E-001	1.01572E-003	4	..........a	-327.66
	282	56.6	1.40097E-001	-1.62996E-010	0.00000E+000	1.40000E-001	9.97922E-004	4	..........a	-327.66
	283	56.8	1.30057E-001	-1.63637E-010	0.00000E+000	1.30000E-001	9.88822E-004	4	..........a	-327.66
	284	57	1.20051E-001	-1.64467E-010	0.00000E+000	1.20000E-001	9.99322E-004	4	..........a	-327.66
	285	57.2	1.10041E-001	-1.64252E-010	0.00000E+000	1.10000E-001	9.98422E-004	4	..........a	-327.66
	286	57.4	1.00040E-001	-1.64971E-010	0.00000E+000	1.00000E-001	9.97422E-004	4	..........a	-327.66
	287	57.6	9.00880E-002	-1.65247E-010	0.00000E+000	9.00000E-002	9.89222E-004	4	..........a	-327.66
	288	57.8	8.00370E-002	-1.65040E-010	0.00000E+000	8.00000E-002	1.00562E-003	4	..........a	-327.66
	289	58	7.00012E-002	-1.65967E-010	0.00000E+000	7.00000E-002	9.87822E-004	4	..........a	-327.66
	290	58.2	6.00741E-002	-1.66424E-010	0.00000E+000	6.00000E-002	1.00462E-003	4	..........a	-327.66
	291	58.4	5.00508E-002	-1.67260E-010	0.00000E+000	5.00000E-002	1.00172E-003	4	..........a	-327.66
	292	58.6	4.01129E-002	-1.68730E-010	0.00000E+000	4.00000E-002	9.80722E-004	4	..........a	-327.66
	293	58.8	3.00218E-002	-1.69614E-010	0.00000E+000	3.00000E-002	1.02752E-003	4	..........a	-327.66
	294	59	2.00365E-002	-1.70538E-010	0.00000E+000	2.00000E-002	1.01962E-003	4	..........a	-327.66
	295	59.2	1.00691E-002	-1.72108E-010	0.00000E+000	1.00000E-002	9.85022E-004	4	..........a	-327.66
	296	59.4	3.91908E-005	-1.73501E-010	0.00000E+000	7.45058E-009	1.01512E-003	4	..........a	-327.66
	297	59.6	-1.00275E-002	-1.75441E-010	0.00000E+000	-1.00000E-002	9.90622E-004	4	..........a	-327.66
	298	59.8	-1.99323E-002	-1.77460E-010	0.00000E+000	-2.00000E-002	9.85822E-004	4	..........a	-327.66
	299	60	-2.99541E-002	-1.79792E-010	0.00000E+000	-3.00000E-002	9.85622E-004	4	..........a	-327.66
	300	60.2	-3.99669E-002	-1.82341E-010	0.00000E+000	-4.00000E-002	1.01142E-003	4	..........a	-327.66
	301	60.4	-5.00119E-002	-1.85304E-010	0.00000E+000	-5.00000E-002	9.85922E-004	4	..........a	-327.66
	302	60.6	-5.99783E-002	-1.88598E-010	0.00000E+000	-6.00000E-002	9.98222E-004	4	..........a	-327.66
	303	60.8	-6.99686E-002	-1.91433E-010	0.00000E+000	-7.00000E-002	9.93222E-004	4	..........a	-327.66
	304	61	-8.00007E-002	-1.94434E-010	0.00000E+000	-8.00000E-002	1.01492E-003	4	..........a	-327.66
	305	61.2	-8.99787E-002	-1.98087E-010	0.00000E+000	-9.00000E-002	9.95422E-004	4	..........a	-327.66
	306	61.4	-9.99631E-002	-2.01758E-010	0.00000E+000	-1.00000E-001	9.89122E-004	4	..........a	-327.66
	307	61.6	-1.10003E-001	-2.05485E-010	0.00000E+000	-1.10000E-001	1.00162E-003	4	..........a	-327.66
	308	61.8	-1.19963E-001	-2.10058E-010	0.00000E+000	-1.20000E-001	9.84522E-004	4	..........a	-327.66
	309	62	-1.30004E-001	-2.14389E-010	0.00000E+000	-1.30000E-001	9.81422E-004	4	..........a	-327.66
	310	62.2	-1.39896E-001	-2.18958E-010	0.00000E+000	-1.40000E-001	1.00642E-003	4	..........a	-327.66
	311	62.4	-1.49972E-001	-2.23983E-010	0.00000E+000	-1.50000E-001	9.86822E-004	4	..........a	-327.66
	312	62.6	-1.59933E-001	-2.29815E-010	0.00000E+000	-1.60000E-001	1.00352E-003	4	..........a	-327.66
	313	62.8	-1.69949E-001	-2.35280E-010	0.00000E+000	-1.70000E-001	9.91522E-004	4	..........a	-327.66
	314	63	-1.79939E-001	-2.40792E-010	0.00000E+000	-1.80000E-001	1.00692E-003	4	..........a	-327.66
	315	63.2	-1.89966E-001	-2.47868E-010	0.00000E+000	-1.90000E-001	1.01112E-003	4	..........a	-327.66
	316	63.4	-2.00014E-001	-2.56133E-010	0.00000E+000	-2.00000E-001	9.99622E-004	4	..........a	-327.66
	317	63.6	-2.09890E-001	-2.62973E-010	0.00000E+000	-2.10000E-001	1.01032E-003	4	..........a	-327.66
	318	63.8	-2.19906E-001	-2.70789E-010	0.00000E+000	-2.20000E-001	9.86822E-004	4	..........a	-327.66
	319	64	-2.29911E-001	-2.83918E-010	0.00000E+000	-2.30000E-001	9.85922E-004	4	..........a	-327.66
	320	64.2	-2.39885E-001	-2.92315E-010	0.00000E+000	-2.40000E-001	9.81822E-004	4	..........a	-327.66
	321	64.4	-2.49883E-001	-2.99122E-010	0.00000E+000	-2.50000E-001	1.01062E-003	4	..........a	-327.66
	322	64.6	-2.59850E-001	-3.10270E-010	0.00000E+000	-2.60000E-001	1.01912E-003	4	..........a	-327.66
	323	64.8	-2.69921E-001	-3.25643E-010	0.00000E+000	-2.70000E-001	9.86422E-004	4	..........a	-327.66
	324	65	-2.79875E-001	-3.35934E-010	0.00000E+000	-2.80000E-001	1.01512E-003	4	..........a	-327.66
	325	65.2	-2.89920E-001	-3.47990E-010	0.00000E+000	-2.90000E-001	9.89822E-004	4	..........a	-327.66
	326	65.4	-2.99873E-001	-3.58615E-010	0.00000E+000	-3.00000E-001	1.00732E-003	4	..........a	-327.66
	327	65.6	-3.09895E-001	-3.79652E-010	0.00000E+000	-3.10000E-001	9.85422E-004	4	..........a	-327.66
	328	65.8	-3.19859E-001	-3.97137E-010	0.00000E+000	-3.20000E-001	1.01402E-003	4	..........a	-327.66
	329	66	-3.29904E-001	-4.17045E-010	0.00000E+000	-3.30000E-001	1.00522E-003	4	..........a	-327.66
	330	66.2	-3.39871E-001	-4.33660E-010	0.00000E+000	-3.40000E-001	9.92122E-004	4	..........a	-327.66
	331	66.4	-3.49891E-001	-4.55510E-010	0.00000E+000	-3.50000E-001	9.88022E-004	4	..........a	-327.66
	332	66.6	-3.59857E-001	-4.75576E-010	0.00000E+000	-3.60000E-001	9.86322E-004	4	..........a	-327.66
	333	66.8	-3.69813E-001	-4.99213E-010	0.00000E+000	-3.70000E-001	1.01962E-003	4	..........a	-327.66
	334	67	-3.79865E-001	-5.23333E-010	0.00000E+000	-3.80000E-001	1.00982E-003	4	..........a	-327.66
	335	67.2	-3.89890E-001	-5.50476E-010	0.00000E+000	-3.90000E-001	9.96522E-004	4	..........a	-327.66
	336	67.4	-3.99888E-001	-5.76423E-010	0.00000E+000	-4.00000E-001	1.00272E-003	4	..........a	-327.66
	337	67.6	-4.09889E-001	-6.02901E-010	0.00000E+000	-4.10000E-001	1.01132E-003	4	..........a	-327.66
	338	67.8	-4.19848E-001	-6.32174E-010	0.00000E+000	-4.20000E-001	9.99422E-004	4	..........a	-327.66
	339	68	-4.29864E-001	-6.62662E-010	0.00000E+000	-4.30000E-001	9.92122E-004	4	..........a	-327.66
	340	68.2	-4.39882E-001	-6.93138E-010	0.00000E+000	-4.40000E-001	1.00912E-003	4	..........a	-327.66
	341	68.4	-4.49866E-001	-7.24850E-010	0.00000E+000	-4.50000E-001	9.95822E-004	4	..........a	-327.66
	342	68.6	-4.59891E-001	-7.57778E-010	0.00000E+000	-4.60000E-001	9.86222E-004	4	..........a	-327.66
	343	68.8	-4.69810E-001	-7.93797E-010	0.00000E+000	-4.70000E-001	9.97922E-004	4	..........a	-327.66
	344	69	-4.79850E-001	-8.26556E-010	0.00000E+000	-4.80000E-001	9.99622E-004	4	..........a	-327.66
	345	69.2	-4.89853E-001	-8.58974E-010	0.00000E+000	-4.90000E-001	1.03062E-003	4	..........a	-327.66
	346	69.4	-4.99856E-001	-8.95337E-010	0.00000E+000	-5.00000E-001	9.90522E-004	4	..........a	-327.66
	347	69.6	-5.09841E-001	-9.34371E-010	0.00000E+000	-5.10000E-001	9.73122E-004	4	..........a	-327.66
	348	69.8	-5.19863E-001	-9.70697E-010	0.00000E+000	-5.20000E-001	9.91522E-004	4	..........a	-327.66
	349	70	-5.29854E-001	-1.00474E-009	0.00000E+000	-5.30000E-001	1.01452E-003	4	..........a	-327.66
	350	70.2	-5.39878E-001	-1.04619E-009	0.00000E+000	-5.40000E-001	9.87622E-004	4	..........a	-327.66
	351	70.4	-5.49895E-001	-1.08671E-009	0.00000E+000	-5.50000E-001	9.85422E-004	4	..........a	-327.66
	352	70.6	-5.59874E-001	-1.12823E-009	0.00000E+000	-5.60000E-001	1.00122E-003	4	..........a	-327.66
	353	70.8	-5.69879E-001	-1.17061E-009	0.00000E+000	-5.70000E-001	1.00682E-003	4	..........a	-327.66
[...]
	921	184.4	-5.49897E-001	-6.33324E-010	0.00000E+000	-5.50000E-001	9.83922E-004	4	..........a	-327.66
	922	184.6	-5.39876E-001	-5.71559E-010	0.00000E+000	-5.40000E-001	1.00192E-003	4	..........a	-327.66
	923	184.8	-5.29862E-001	-5.14825E-010	0.00000E+000	-5.30000E-001	1.02102E-003	4	..........a	-327.66
	924	185	-5.19860E-001	-4.67014E-010	0.00000E+000	-5.20000E-001	1.02112E-003	4	..........a	-327.66
	925	185.2	-5.09845E-001	-4.23309E-010	0.00000E+000	-5.10000E-001	9.77422E-004	4	..........a	-327.66
	926	185.4	-4.99871E-001	-3.81243E-010	0.00000E+000	-5.00000E-001	9.99922E-004	4	..........a	-327.66
	927	185.6	-4.89836E-001	-3.43895E-010	0.00000E+000	-4.90000E-001	1.00322E-003	4	..........a	-327.66
	928	185.8	-4.79845E-001	-3.10349E-010	0.00000E+000	-4.80000E-001	9.97822E-004	4	..........a	-327.66
	929	186	-4.69811E-001	-2.79181E-010	0.00000E+000	-4.70000E-001	1.00092E-003	4	..........a	-327.66
	930	186.2	-4.59864E-001	-2.45760E-010	0.00000E+000	-4.60000E-001	1.00842E-003	4	..........a	-327.66
	931	186.4	-4.49870E-001	-2.16958E-010	0.00000E+000	-4.50000E-001	1.00492E-003	4	..........a	-327.66
	932	186.6	-4.39917E-001	-1.89904E-010	0.00000E+000	-4.40000E-001	1.00362E-003	4	..........a	-327.66
	933	186.8	-4.29875E-001	-1.64849E-010	0.00000E+000	-4.30000E-001	9.91822E-004	4	..........a	-327.66
	934	187	-4.19891E-001	-1.39979E-010	0.00000E+000	-4.20000E-001	1.00912E-003	4	..........a	-327.66
	935	187.2	-4.09934E-001	-1.16433E-010	0.00000E+000	-4.10000E-001	1.01632E-003	4	..........a	-327.66
	936	187.4	-3.99889E-001	-9.51089E-011	0.00000E+000	-4.00000E-001	9.79422E-004	4	..........a	-327.66
	937	187.6	-3.89920E-001	-7.42951E-011	0.00000E+000	-3.90000E-001	1.00922E-003	4	..........a	-327.66
	938	187.8	-3.79900E-001	-5.43533E-011	0.00000E+000	-3.80000E-001	1.01522E-003	4	..........a	-327.66
	939	188	-3.69884E-001	-3.63466E-011	0.00000E+000	-3.70000E-001	9.74322E-004	4	..........a	-327.66
	940	188.2	-3.60036E-001	-1.75709E-011	0.00000E+000	-3.60000E-001	1.03392E-003	4	..........a	-327.66
	941	188.4	-3.49920E-001	-1.00224E-012	0.00000E+000	-3.50000E-001	9.85222E-004	4	..........a	-327.66
	942	188.6	-3.39920E-001	1.63084E-011	0.00000E+000	-3.40000E-001	1.00552E-003	4	..........a	-327.66
	943	188.8	-3.29955E-001	2.97119E-011	0.00000E+000	-3.30000E-001	1.00312E-003	4	..........a	-327.66
	944	189	-3.19870E-001	4.56056E-011	0.00000E+000	-3.20000E-001	9.95522E-004	4	..........a	-327.66
	945	189.2	-3.09887E-001	5.88321E-011	0.00000E+000	-3.10000E-001	9.79322E-004	4	..........a	-327.66
	946	189.4	-2.99887E-001	7.24776E-011	0.00000E+000	-3.00000E-001	9.92322E-004	4	..........a	-327.66
	947	189.6	-2.89930E-001	8.54121E-011	0.00000E+000	-2.90000E-001	1.02872E-003	4	..........a	-327.66
	948	189.8	-2.79928E-001	9.51414E-011	0.00000E+000	-2.80000E-001	1.00462E-003	4	..........a	-327.66
	949	190	-2.69890E-001	1.06993E-010	0.00000E+000	-2.70000E-001	1.01822E-003	4	..........a	-327.66
	950	190.2	-2.59905E-001	1.18529E-010	0.00000E+000	-2.60000E-001	1.00742E-003	4	..........a	-327.66
	951	190.4	-2.49935E-001	1.29438E-010	0.00000E+000	-2.50000E-001	1.00062E-003	4	..........a	-327.66
	952	190.6	-2.39863E-001	1.36616E-010	0.00000E+000	-2.40000E-001	9.89722E-004	4	..........a	-327.66
	953	190.8	-2.29970E-001	1.46649E-010	0.00000E+000	-2.30000E-001	9.98322E-004	4	..........a	-327.66
	954	191	-2.19911E-001	1.57314E-010	0.00000E+000	-2.20000E-001	1.00212E-003	4	..........a	-327.66
	955	191.2	-2.10002E-001	1.60764E-010	0.00000E+000	-2.10000E-001	9.91822E-004	4	..........a	-327.66
	956	191.4	-1.99981E-001	1.62277E-010	0.00000E+000	-2.00000E-001	1.00122E-003	4	..........a	-327.66
	957	191.6	-1.90068E-001	1.68139E-010	0.00000E+000	-1.90000E-001	9.84822E-004	4	..........a	-327.66
	958	191.8	-1.79953E-001	1.73071E-010	0.00000E+000	-1.80000E-001	1.01092E-003	4	..........a	-327.66
	959	192	-1.69939E-001	1.77862E-010	0.00000E+000	-1.70000E-001	1.00972E-003	4	..........a	-327.66
	960	192.2	-1.59954E-001	1.81194E-010	0.00000E+000	-1.60000E-001	9.93122E-004	4	..........a	-327.66
	961	192.4	-1.49939E-001	1.84816E-010	0.00000E+000	-1.50000E-001	1.00802E-003	4	..........a	-327.66
	962	192.6	-1.39907E-001	1.87197E-010	0.00000E+000	-1.40000E-001	9.95922E-004	4	..........a	-327.66
	963	192.8	-1.30013E-001	1.91292E-010	0.00000E+000	-1.30000E-001	1.00562E-003	4	..........a	-327.66
	964	193	-1.19954E-001	1.93145E-010	0.00000E+000	-1.20000E-001	1.01082E-003	4	..........a	-327.66
	965	193.2	-1.09993E-001	1.95776E-010	0.00000E+000	-1.10000E-001	1.01052E-003	4	..........a	-327.66
	966	193.4	-9.99116E-002	1.97859E-010	0.00000E+000	-1.00000E-001	9.93122E-004	4	..........a	-327.66
	967	193.6	-8.99283E-002	2.00226E-010	0.00000E+000	-9.00000E-002	1.00102E-003	4	..........a	-327.66
	968	193.8	-7.99368E-002	2.01706E-010	0.00000E+000	-8.00000E-002	1.02872E-003	4	..........a	-327.66
	969	194	-6.99127E-002	2.03092E-010	0.00000E+000	-7.00000E-002	1.00572E-003	4	..........a	-327.66
	970	194.2	-5.99109E-002	2.04939E-010	0.00000E+000	-6.00000E-002	9.92322E-004	4	..........a	-327.66
	971	194.4	-4.99633E-002	2.06700E-010	0.00000E+000	-5.00000E-002	1.01672E-003	4	..........a	-327.66
	972	194.6	-3.99240E-002	2.08565E-010	0.00000E+000	-4.00000E-002	1.00112E-003	4	..........a	-327.66
	973	194.8	-2.99522E-002	2.10060E-010	0.00000E+000	-3.00000E-002	9.89022E-004	4	..........a	-327.66
	974	195	-1.98978E-002	2.12703E-010	0.00000E+000	-2.00000E-002	9.87322E-004	4	..........a	-327.66
	975	195.2	-9.91491E-003	2.14940E-010	0.00000E+000	-1.00000E-002	9.97022E-004	4	..........a	-327.66
	976	195.4	8.21408E-005	2.15711E-010	0.00000E+000	7.45058E-009	9.94322E-004	4	..........a	-327.66
	977	195.6	1.01104E-002	2.16599E-010	0.00000E+000	1.00000E-002	1.00572E-003	4	..........a	-327.66
	978	195.8	2.00979E-002	2.18042E-010	0.00000E+000	2.00000E-002	1.00142E-003	4	..........a	-327.66
	979	196	3.00525E-002	2.19370E-010	0.00000E+000	3.00000E-002	1.01282E-003	4	..........a	-327.66
	980	196.2	3.97958E-002	2.19842E-010	0.00000E+000	4.00000E-002	1.01192E-003	4	..........a	-327.66
	981	196.4	5.00840E-002	2.21920E-010	0.00000E+000	5.00000E-002	9.90322E-004	4	..........a	-327.66
	982	196.6	6.00705E-002	2.24583E-010	0.00000E+000	6.00000E-002	1.00622E-003	4	..........a	-327.66
	983	196.8	6.99985E-002	2.26011E-010	0.00000E+000	7.00000E-002	1.01602E-003	4	..........a	-327.66
	984	197	8.00019E-002	2.28376E-010	0.00000E+000	8.00000E-002	1.00132E-003	4	..........a	-327.66
	985	197.2	9.02425E-002	2.31941E-010	0.00000E+000	9.00000E-002	1.01612E-003	4	..........a	-327.66
	986	197.4	9.99914E-002	2.35012E-010	0.00000E+000	1.00000E-001	9.98722E-004	4	..........a	-327.66
	987	197.6	1.10038E-001	2.37773E-010	0.00000E+000	1.10000E-001	1.03742E-003	4	..........a	-327.66
	988	197.8	1.19964E-001	2.41142E-010	0.00000E+000	1.20000E-001	9.98722E-004	4	..........a	-327.66
	989	198	1.30067E-001	2.44295E-010	0.00000E+000	1.30000E-001	1.00182E-003	4	..........a	-327.66
	990	198.2	1.40089E-001	2.48061E-010	0.00000E+000	1.40000E-001	1.00222E-003	4	..........a	-327.66
	991	198.4	1.49985E-001	2.51916E-010	0.00000E+000	1.50000E-001	1.02562E-003	4	..........a	-327.66
	992	198.6	1.59966E-001	2.55368E-010	0.00000E+000	1.60000E-001	1.01102E-003	4	..........a	-327.66
	993	198.8	1.70154E-001	2.58887E-010	0.00000E+000	1.70000E-001	9.86622E-004	4	..........a	-327.66
	994	199	1.79965E-001	2.62970E-010	0.00000E+000	1.80000E-001	1.01152E-003	4	..........a	-327.66
	995	199.2	1.90012E-001	2.67267E-010	0.00000E+000	1.90000E-001	1.00812E-003	4	..........a	-327.66
	996	199.4	1.99994E-001	2.71793E-010	0.00000E+000	2.00000E-001	1.02902E-003	4	..........a	-327.66
	997	199.6	2.09992E-001	2.75357E-010	0.00000E+000	2.10000E-001	9.85222E-004	4	..........a	-327.66
	998	199.8	2.20001E-001	2.79051E-010	0.00000E+000	2.20000E-001	1.01502E-003	4	..........a	-327.66
	999	200	2.29944E-001	2.82575E-010	0.00000E+000	2.30000E-001	9.99822E-004	4	..........a	-327.66
	1000	200.2	2.40013E-001	2.86770E-010	0.00000E+000	2.40000E-001	9.94322E-004	4	..........a	-327.66
	1001	200.4	2.50054E-001	2.90319E-010	0.00000E+000	2.50000E-001	9.92322E-004	4	..........a	-327.66
	1002	200.6	2.59993E-001	2.92995E-010	0.00000E+000	2.60000E-001	1.00232E-003	4	..........a	-327.66
	1003	200.8	2.69965E-001	2.96287E-010	0.00000E+000	2.70000E-001	9.84722E-004	4	..........a	-327.66
	1004	201	2.79941E-001	2.99577E-010	0.00000E+000	2.80000E-001	1.01362E-003	4	..........a	-327.66
	1005	201.2	2.90006E-001	3.01841E-010	0.00000E+000	2.90000E-001	1.00342E-003	4	..........a	-327.66
	1006	201.4	2.99987E-001	3.04249E-010	0.00000E+000	3.00000E-001	1.00122E-003	4	..........a	-327.66
	1007	201.6	3.09966E-001	3.07148E-010	0.00000E+000	3.10000E-001	1.00762E-003	4	..........a	-327.66
	1008	201.8	3.19992E-001	3.08966E-010	0.00000E+000	3.20000E-001	9.91422E-004	4	..........a	-327.66
	1009	202	3.29997E-001	3.11347E-010	0.00000E+000	3.30000E-001	9.90822E-004	4	..........a	-327.66
	1010	202.2	3.40058E-001	3.13795E-010	0.00000E+000	3.40000E-001	1.01622E-003	4	..........a	-327.66
	1011	202.4	3.49951E-001	3.15189E-010	0.00000E+000	3.50000E-001	1.00232E-003	4	..........a	-327.66
	1012	202.6	3.59994E-001	3.17635E-010	0.00000E+000	3.60000E-001	1.01912E-003	4	..........a	-327.66
	1013	202.8	3.70012E-001	3.19548E-010	0.00000E+000	3.70000E-001	9.91422E-004	4	..........a	-327.66
	1014	203	3.80009E-001	3.21354E-010	0.00000E+000	3.80000E-001	1.02262E-003	4	..........a	-327.66
	1015	203.2	3.89970E-001	3.23448E-010	0.00000E+000	3.90000E-001	1.00832E-003	4	..........a	-327.66
	1016	203.4	4.00006E-001	3.24666E-010	0.00000E+000	4.00000E-001	1.01142E-003	4	..........a	-327.66
	1017	203.6	4.09950E-001	3.26799E-010	0.00000E+000	4.10000E-001	9.89922E-004	4	..........a	-327.66
	1018	203.8	4.20036E-001	3.29715E-010	0.00000E+000	4.20000E-001	1.01002E-003	4	..........a	-327.66
	1019	204	4.29935E-001	3.31912E-010	0.00000E+000	4.30000E-001	9.99522E-004	4	..........a	-327.66
	1020	204.2	4.39986E-001	3.33900E-010	0.00000E+000	4.40000E-001	1.00522E-003	4	..........a	-327.66
	1021	204.4	4.49983E-001	3.36380E-010	0.00000E+000	4.50000E-001	9.77922E-004	4	..........a	-327.66
	1022	204.6	4.60022E-001	3.39754E-010	0.00000E+000	4.60000E-001	1.01902E-003	4	..........a	-327.66
	1023	204.8	4.69959E-001	3.42219E-010	0.00000E+000	4.70000E-001	1.01572E-003	4	..........a	-327.66
	1024	205	4.79980E-001	3.45146E-010	0.00000E+000	4.80000E-001	1.01292E-003	4	..........a	-327.66
	1025	205.2	4.89970E-001	3.48894E-010	0.00000E+000	4.90000E-001	1.00202E-003	4	..........a	-327.66
	1026	205.4	5.00053E-001	3.52285E-010	0.00000E+000	5.00000E-001	1.01852E-003	4	..........a	-327.66
	1027	205.6	5.09938E-001	3.55947E-010	0.00000E+000	5.10000E-001	1.01262E-003	4	..........a	-327.66
	1028	205.8	5.19986E-001	3.60619E-010	0.00000E+000	5.20000E-001	1.02292E-003	4	..........a	-327.66
	1029	206	5.29982E-001	3.66819E-010	0.00000E+000	5.30000E-001	9.79922E-004	4	..........a	-327.66
	1030	206.2	5.40014E-001	3.72163E-010	0.00000E+000	5.40000E-001	1.00762E-003	4	..........a	-327.66
	1031	206.4	5.49968E-001	3.78691E-010	0.00000E+000	5.50000E-001	9.98322E-004	4	..........a	-327.66
	1032	206.6	5.59947E-001	3.84993E-010	0.00000E+000	5.60000E-001	1.00592E-003	4	..........a	-327.66
	1033	206.8	5.69964E-001	3.92338E-010	0.00000E+000	5.70000E-001	1.00482E-003	4	..........a	-327.66
	1034	207	5.80015E-001	4.00669E-010	0.00000E+000	5.80000E-001	1.00312E-003	4	..........a	-327.66
	1035	207.2	5.89942E-001	4.09360E-010	0.00000E+000	5.90000E-001	1.00822E-003	4	..........a	-327.66
	1036	207.4	5.99993E-001	4.19723E-010	0.00000E+000	6.00000E-001	1.00342E-003	4	..........a	-327.66
	1037	207.6	6.09975E-001	4.31514E-010	0.00000E+000	6.10000E-001	9.78122E-004	4	..........a	-327.66
	1038	207.8	6.20000E-001	4.43594E-010	0.00000E+000	6.20000E-001	1.00572E-003	4	..........a	-327.66
	1039	208	6.29898E-001	4.56875E-010	0.00000E+000	6.30000E-001	1.01602E-003	4	..........a	-327.66
	1040	208.2	6.39960E-001	4.72175E-010	0.00000E+000	6.40000E-001	1.02972E-003	4	..........a	-327.66
	1041	208.4	6.49934E-001	4.89342E-010	0.00000E+000	6.50000E-001	9.85322E-004	4	..........a	-327.66
	1042	208.6	6.60018E-001	5.07796E-010	0.00000E+000	6.60000E-001	1.00172E-003	4	..........a	-327.66
	1043	208.8	6.69910E-001	5.27873E-010	0.00000E+000	6.70000E-001	9.97322E-004	4	..........a	-327.66
	1044	209	6.79781E-001	5.50871E-010	0.00000E+000	6.80000E-001	9.96022E-004	4	..........a	-327.66
	1045	209.2	6.89914E-001	5.74210E-010	0.00000E+000	6.90000E-001	9.92722E-004	4	..........a	-327.66
	1046	209.4	6.99991E-001	5.99834E-010	0.00000E+000	7.00000E-001	1.02192E-003	4	..........a	-327.66
	1047	209.6	7.09882E-001	6.29161E-010	0.00000E+000	7.10000E-001	1.01532E-003	4	..........a	-327.66
	1048	209.8	7.19966E-001	6.58122E-010	0.00000E+000	7.20000E-001	1.00232E-003	4	..........a	-327.66
	1049	210	7.29966E-001	6.90582E-010	0.00000E+000	7.30000E-001	9.98122E-004	4	..........a	-327.66
	1050	210.2	7.40010E-001	7.24820E-010	0.00000E+000	7.40000E-001	9.96722E-004	4	..........a	-327.66
	1051	210.4	7.49927E-001	7.61694E-010	0.00000E+000	7.50000E-001	1.00882E-003	4	..........a	-327.66
	1052	210.6	7.59941E-001	8.00830E-010	0.00000E+000	7.60000E-001	1.00052E-003	4	..........a	-327.66
	1053	210.8	7.69905E-001	8.42589E-010	0.00000E+000	7.70000E-001	1.00232E-003	4	..........a	-327.66
	1054	211	7.79971E-001	8.87613E-010	0.00000E+000	7.80000E-001	1.00052E-003	4	..........a	-327.66
	1055	211.2	7.89911E-001	9.34452E-010	0.00000E+000	7.90000E-001	9.90922E-004	4	..........a	-327.66
	1056	211.4	7.99945E-001	9.84503E-010	0.00000E+000	8.00000E-001	1.01392E-003	4	..........a	-327.66
CURVE5	TABLE
	Pt	T	Vf	Im	Vu	Sig	Ach	IERange	Over	Temp
	#	s	V vs. Ref.	A	V	V	V	#	bits	deg C
	1057	211.6	7.89840E-001	6.69569E-010	0.00000E+000	7.90000E-001	1.00792E-003	4	..........a	-327.66
	1058	211.8	7.79980E-001	4.89385E-010	0.00000E+000	7.80000E-001	1.00912E-003	4	..........a	-327.66
	1059	212	7.69948E-001	3.77045E-010	0.00000E+000	7.70000E-001	9.82522E-004	4	..........a	-327.66
	1060	212.2	7.59895E-001	2.97992E-010	0.00000E+000	7.60000E-001	9.96122E-004	4	..........a	-327.66
	1061	212.4	7.49953E-001	2.38233E-010	0.00000E+000	7.50000E-001	1.00342E-003	4	..........a	-327.66
	1062	212.6	7.40005E-001	1.91790E-010	0.00000E+000	7.40000E-001	1.01462E-003	4	..........a	-327.66
	1063	212.8	7.29938E-001	1.59227E-010	0.00000E+000	7.30000E-001	9.95222E-004	4	..........a	-327.66
	1064	213	7.19894E-001	1.25280E-010	0.00000E+000	7.20000E-001	9.81722E-004	4	..........a	-327.66
	1065	213.2	7.09930E-001	9.91656E-011	0.00000E+000	7.10000E-001	1.01212E-003	4	..........a	-327.66
	1066	213.4	6.99991E-001	7.89158E-011	0.00000E+000	7.00000E-001	1.02842E-003	4	..........a	-327.66
	1067	213.6	6.89911E-001	6.00501E-011	0.00000E+000	6.90000E-001	1.00192E-003	4	..........a	-327.66
	1068	213.8	6.79809E-001	4.47475E-011	0.00000E+000	6.80000E-001	9.93322E-004	4	..........a	-327.66
	1069	214	6.69916E-001	3.01150E-011	0.00000E+000	6.70000E-001	1.03762E-003	4	..........a	-327.66
	1070	214.2	6.60015E-001	2.04056E-011	0.00000E+000	6.60000E-001	1.01642E-003	4	..........a	-327.66
	1071	214.4	6.49932E-001	7.88210E-012	0.00000E+000	6.50000E-001	9.88522E-004	4	..........a	-327.66
	1072	214.6	6.39904E-001	-1.64126E-012	0.00000E+000	6.40000E-001	9.99222E-004	4	..........a	-327.66
	1073	214.8	6.29926E-001	-1.11076E-011	0.00000E+000	6.30000E-001	1.02472E-003	4	..........a	-327.66
	1074	215	6.19999E-001	-2.01490E-011	0.00000E+000	6.20000E-001	9.99922E-004	4	..........a	-327.66
	1075	215.2	6.09986E-001	-2.84203E-011	0.00000E+000	6.10000E-001	1.00282E-003	4	..........a	-327.66
	1076	215.4	5.99982E-001	-3.57996E-011	0.00000E+000	6.00000E-001	9.81122E-004	4	..........a	-327.66
	1077	215.6	5.89952E-001	-4.10058E-011	0.00000E+000	5.90000E-001	1.00122E-003	4	..........a	-327.66
	1078	215.8	5.80032E-001	-4.69160E-011	0.00000E+000	5.80000E-001	9.96822E-004	4	..........a	-327.66
	1079	216	5.69966E-001	-5.37163E-011	0.00000E+000	5.70000E-001	1.01052E-003	4	..........a	-327.66
	1080	216.2	5.59986E-001	-5.95505E-011	0.00000E+000	5.60000E-001	9.95922E-004	4	..........a	-327.66
	1081	216.4	5.49973E-001	-6.42707E-011	0.00000E+000	5.50000E-001	1.02762E-003	4	..........a	-327.66
	1082	216.6	5.40020E-001	-6.87618E-011	0.00000E+000	5.40000E-001	1.02742E-003	4	..........a	-327.66
	1083	216.8	5.29959E-001	-7.32220E-011	0.00000E+000	5.30000E-001	9.98022E-004	4	..........a	-327.66
	1084	217	5.19979E-001	-7.72382E-011	0.00000E+000	5.20000E-001	9.94122E-004	4	..........a	-327.66
	1085	217.2	5.09922E-001	-8.16963E-011	0.00000E+000	5.10000E-001	9.97622E-004	4	..........a	-327.66
	1086	217.4	5.00054E-001	-8.51805E-011	0.00000E+000	5.00000E-001	1.01362E-003	4	..........a	-327.66
	1087	217.6	4.89967E-001	-8.92106E-011	0.00000E+000	4.90000E-001	9.93322E-004	4	..........a	-327.66
	1088	217.8	4.79963E-001	-9.37008E-011	0.00000E+000	4.80000E-001	1.01622E-003	4	..........a	-327.66
	1089	218	4.69962E-001	-9.70159E-011	0.00000E+000	4.70000E-001	1.00532E-003	4	..........a	-327.66
	1090	218.2	4.60014E-001	-1.00644E-010	0.00000E+000	4.60000E-001	1.01362E-003	4	..........a	-327.66
	1091	218.4	4.49969E-001	-1.04221E-010	0.00000E+000	4.50000E-001	9.99322E-004	4	..........a	-327.66
	1092	218.6	4.39986E-001	-1.07057E-010	0.00000E+000	4.40000E-001	1.01402E-003	4	..........a	-327.66
	1093	218.8	4.29948E-001	-1.09942E-010	0.00000E+000	4.30000E-001	1.01792E-003	4	..........a	-327.66
	1094	219	4.20024E-001	-1.12303E-010	0.00000E+000	4.20000E-001	1.02022E-003	4	..........a	-327.66
	1095	219.2	4.09954E-001	-1.16045E-010	0.00000E+000	4.10000E-001	1.00842E-003	4	..........a	-327.66
	1096	219.4	4.00064E-001	-1.17801E-010	0.00000E+000	4.00000E-001	9.92122E-004	4	..........a	-327.66
	1097	219.6	3.89980E-001	-1.20882E-010	0.00000E+000	3.90000E-001	1.02032E-003	4	..........a	-327.66
	1098	219.8	3.80016E-001	-1.23251E-010	0.00000E+000	3.80000E-001	1.02202E-003	4	..........a	-327.66
	1099	220	3.70008E-001	-1.25274E-010	0.00000E+000	3.70000E-001	9.90322E-004	4	..........a	-327.66
	1100	220.2	3.59944E-001	-1.28564E-010	0.00000E+000	3.60000E-001	9.94422E-004	4	..........a	-327.66
	1101	220.4	3.49955E-001	-1.30633E-010	0.00000E+000	3.50000E-001	9.98722E-004	4	..........a	-327.66
	1102	220.6	3.40043E-001	-1.33587E-010	0.00000E+000	3.40000E-001	9.95222E-004	4	..........a	-327.66
	1103	220.8	3.29998E-001	-1.36166E-010	0.00000E+000	3.30000E-001	1.00792E-003	4	..........a	-327.66
	1104	221	3.19909E-001	-1.38503E-010	0.00000E+000	3.20000E-001	1.01912E-003	4	..........a	-327.66
	1105	221.2	3.09975E-001	-1.40442E-010	0.00000E+000	3.10000E-001	1.01492E-003	4	..........a	-327.66
	1106	221.4	2.99998E-001	-1.42732E-010	0.00000E+000	3.00000E-001	9.97422E-004	4	..........a	-327.66
	1107	221.6	2.89995E-001	-1.45193E-010	0.00000E+000	2.90000E-001	9.93422E-004	4	..........a	-327.66
	1108	221.8	2.79981E-001	-1.47542E-010	0.00000E+000	2.80000E-001	1.02432E-003	4	..........a	-327.66
	1109	222	2.69973E-001	-1.49703E-010	0.00000E+000	2.70000E-001	1.01192E-003	4	..........a	-327.66
	1110	222.2	2.60014E-001	-1.51555E-010	0.00000E+000	2.60000E-001	1.03682E-003	4	..........a	-327.66
	1111	222.4	2.50063E-001	-1.53367E-010	0.00000E+000	2.50000E-001	9.97722E-004	4	..........a	-327.66
	1112	222.6	2.40019E-001	-1.54897E-010	0.00000E+000	2.40000E-001	1.02282E-003	4	..........a	-327.66
	1113	222.8	2.29976E-001	-1.56278E-010	0.00000E+000	2.30000E-001	1.02692E-003	4	..........a	-327.66
	1114	223	2.20018E-001	-1.57949E-010	0.00000E+000	2.20000E-001	1.01652E-003	4	..........a	-327.66
	1115	223.2	2.10003E-001	-1.58749E-010	0.00000E+000	2.10000E-001	9.97922E-004	4	..........a	-327.66
	1116	223.4	2.00044E-001	-1.59406E-010	0.00000E+000	2.00000E-001	1.00642E-003	4	..........a	-327.66
	1117	223.6	1.90043E-001	-1.60307E-010	0.00000E+000	1.90000E-001	1.01712E-003	4	..........a	-327.66
	1118	223.8	1.80051E-001	-1.61205E-010	0.00000E+000	1.80000E-001	1.02422E-003	4	..........a	-327.66
	1119	224	1.70082E-001	-1.61640E-010	0.00000E+000	1.70000E-001	1.01492E-003	4	..........a	-327.66
	1120	224.2	1.60038E-001	-1.62416E-010	0.00000E+000	1.60000E-001	1.01232E-003	4	..........a	-327.66