File: data/raw/batch_data/20240509_ZZM_GM0016_HL03_E10_CV50.DTA
EXPLAIN
TAG	CV
TITLE	LABEL	Cyclic Voltammetry	Test &Identifier
DATE	LABEL	5/9/2024	Date
TIME	LABEL	14:30:38	Time
NOTES	NOTES	1	&Notes...

PSTAT	PSTAT	REF600P-43058	Potentiostat
VINIT	POTEN	0.00000E+000	T	Initial &E (V)
VLIMIT1	POTEN	8.00000E-001	F	Scan Limit &1 (V)
VLIMIT2	POTEN	-6.00000E-001	F	Scan Limit &2 (V)
VFINAL	POTEN	0.00000E+000	T	Final &E (V)
SCANRATE	QUANT	4.99999E+001	&Scan Rate (mV/s)
STEPSIZE	QUANT	1.00000E+001	St&ep Size (mV)
CYCLES	IQUANT	4	C&ycles (#)
IMODE	SELECTOR	0	I/E Range &Mode
IRANGE	QUANT	1.00000E-005	&Max Current (mA)
AREA	QUANT	1.00000E+000	Electrode &Area (cm^2)
ELECTRODETYPE	SELECTOR	0	Electrode Type
STRIPPING	TOGGLE	F	Used for Stripping
POLARITY	TOGGLE	F	Signal Polarity
CONDIT	TWOPARAM	F	1.50000E+001	0.00000E+000	Conditionin&g	Time(s)	E(V)
DELAY	TWOPARAM	T	1.00000E+001	0.00000E+000	Init. De&lay	Time(s)	Stab.(mV/s)
EQDELAY	QUANT	1.00000E+001	Equil. &Time (s)
IRCOMP	SELECTOR	0	IRCom&p
PFCOR	QUANT	5.00000E+001	PF Corr. (ohm)
SAMPLINGMODE	SELECTOR	1	Sampling &Mode
OCVCURVE	TABLE	39
	Pt	T	Vf	Vm	Ach	Over	Temp
	#	s	V vs. Ref.	V	V	bits	deg C
	0	0.258333	-2.21066E-001	-2.21066E-001	2.30326E-004	..........a	-327.66
	1	0.516667	-2.21071E-001	-2.21322E-001	2.38259E-004	..........a	-327.66
	2	0.775	-2.21101E-001	-2.21585E-001	2.32792E-004	..........a	-327.66
	3	1.03333	-2.21189E-001	-2.21840E-001	2.32992E-004	..........a	-327.66
	4	1.29167	-2.21348E-001	-2.22094E-001	2.26926E-004	..........a	-327.66
	5	1.55	-2.21565E-001	-2.22349E-001	2.40192E-004	..........a	-327.66
	6	1.80833	-2.21811E-001	-2.22597E-001	2.28326E-004	..........a	-327.66
	7	2.06667	-2.22068E-001	-2.22858E-001	2.23192E-004	..........a	-327.66
	8	2.325	-2.22325E-001	-2.23100E-001	2.24326E-004	..........a	-327.66
	9	2.58333	-2.22580E-001	-2.23356E-001	2.19592E-004	..........a	-327.66
	10	2.84167	-2.22833E-001	-2.23605E-001	2.32392E-004	..........a	-327.66
	11	3.1	-2.23084E-001	-2.23849E-001	2.32392E-004	..........a	-327.66
	12	3.35833	-2.23334E-001	-2.24095E-001	2.39126E-004	..........a	-327.66
	13	3.61667	-2.23583E-001	-2.24331E-001	2.27526E-004	..........a	-327.66
	14	3.875	-2.23829E-001	-2.24577E-001	2.24592E-004	..........a	-327.66
	15	4.13333	-2.24073E-001	-2.24814E-001	2.34726E-004	..........a	-327.66
	16	4.39167	-2.24315E-001	-2.25054E-001	2.31526E-004	..........a	-327.66
	17	4.65	-2.24556E-001	-2.25291E-001	2.35059E-004	..........a	-327.66
	18	4.90833	-2.24795E-001	-2.25531E-001	2.30392E-004	..........a	-327.66
	19	5.16667	-2.25035E-001	-2.25768E-001	2.22459E-004	..........a	-327.66
	20	5.425	-2.25273E-001	-2.25999E-001	2.35926E-004	..........a	-327.66
	21	5.68333	-2.25511E-001	-2.26235E-001	2.28592E-004	..........a	-327.66
	22	5.94167	-2.25747E-001	-2.26462E-001	2.35059E-004	..........a	-327.66
	23	6.2	-2.25981E-001	-2.26694E-001	2.28059E-004	..........a	-327.66
	24	6.45833	-2.26214E-001	-2.26924E-001	2.25726E-004	..........a	-327.66
	25	6.71667	-2.26445E-001	-2.27143E-001	2.25192E-004	..........a	-327.66
	26	6.975	-2.26675E-001	-2.27368E-001	2.27592E-004	..........a	-327.66
	27	7.23333	-2.26902E-001	-2.27592E-001	2.26792E-004	..........a	-327.66
	28	7.49167	-2.27127E-001	-2.27795E-001	2.27459E-004	..........a	-327.66
	29	7.75	-2.27349E-001	-2.28022E-001	2.40659E-004	..........a	-327.66
	30	8.00833	-2.27568E-001	-2.28250E-001	2.24126E-004	..........a	-327.66
	31	8.26667	-2.27787E-001	-2.28479E-001	2.22259E-004	..........a	-327.66
	32	8.525	-2.28009E-001	-2.28695E-001	2.33526E-004	..........a	-327.66
	33	8.78333	-2.28232E-001	-2.28915E-001	2.44659E-004	..........a	-327.66
	34	9.04167	-2.28456E-001	-2.29138E-001	2.37126E-004	..........a	-327.66
	35	9.3	-2.28678E-001	-2.29361E-001	2.20059E-004	..........a	-327.66
	36	9.5583	-2.28900E-001	-2.29580E-001	2.17392E-004	..........a	-327.66
	37	9.8167	-2.29121E-001	-2.29796E-001	2.33126E-004	..........a	-327.66
	38	10.075	-2.29342E-001	-2.30012E-001	2.30792E-004	..........a	-327.66
EOC	QUANT	-0.2293416	Open Circuit (V)
PSTATMODEL	IQUANT	7	Pstat Model
PSTATSECTION	LABEL	REF600P-43058	Pstat Section
PSTATSERIALNO	LABEL	43058	Pstat Serial Number
CTRLMODE	IQUANT	1	Control Mode
ELECTROMETER	IQUANT	0	RE=0 or CS=1
IESTAB	IQUANT	2	I/E Stability
CASPEED	IQUANT	4	Control Amp Speed
CONVENTION	IQUANT	1	Current Convention
ICHRANGE	IQUANT	2	Ich Range
ICHRANGEMODE	TOGGLE	F	Ich Auto Range
ICHOFFSETENABLE	TOGGLE	F	Ich Offset Enable
ICHOFFSET	QUANT	0	Ich Offset (V)
ICHFILTER	IQUANT	2	Ich Filter
VCHRANGE	IQUANT	2	Vch Range
VCHRANGEMODE	TOGGLE	F	Vch Auto Range
VCHOFFSETENABLE	TOGGLE	F	Vch Offset Enable
VCHOFFSET	QUANT	0	Vch Offset (V)
VCHFILTER	IQUANT	2	Vch Filter
ACHRANGE	IQUANT	2	Ach Range
ACHOFFSETENABLE	TOGGLE	F	Ach Offset Enable
ACHOFFSET	QUANT	0	Ach Offset (V)
ACHFILTER	IQUANT	1	Ach Filter
IERANGELOWERLIMIT	IQUANT	1	I/E Range Lower Limit
IERANGEMODE	TOGGLE	T	I/E AutoRange
IERANGE	IQUANT	4	I/E Range
POSFEEDENABLE	TOGGLE	F	Positive Feedback IR Comp
POSFEEDRESISTANCE	QUANT	0	Positive Feedback Resistance (ohm)
ACHSELECT	IQUANT	4	Ach Select
SENSECABLEID	IQUANT	7	Sense Cable ID
PWRCABLEID	IQUANT	7	Power Cable ID
DCCALDATE	LABEL	3/22/2024	DC Calibration Date
ACCALDATE	LABEL	3/22/2024	AC Calibration Date
THERMOSELECT	IQUANT	1	Thermo Select
FRAMEWORKVERSION	LABEL	7.8.4	Framework Version
INSTRUMENTVERSION	LABEL	4.42	Instrument Version
CURVE1	TABLE
	Pt	T	Vf	Im	Vu	Sig	Ach	IERange	Over	Temp
	#	s	V vs. Ref.	A	V	V	V	#	bits	deg C
	0	0.2	-2.29278E-001	2.55548E-009	0.00000E+000	-2.29350E-001	9.90492E-004	5	..........a	-327.66
	1	0.4	-2.19284E-001	7.58619E-009	0.00000E+000	-2.19350E-001	1.00439E-003	5	..........a	-327.66
	2	0.6	-2.09264E-001	1.10088E-008	0.00000E+000	-2.09350E-001	9.98192E-004	5	..........a	-327.66
	3	0.8	-1.99299E-001	1.39282E-008	0.00000E+000	-1.99350E-001	9.93692E-004	5	..........a	-327.66
	4	1	-1.89191E-001	1.65993E-008	0.00000E+000	-1.89350E-001	1.01569E-003	5	..........a	-327.66
	5	1.2	-1.79336E-001	1.90984E-008	0.00000E+000	-1.79350E-001	9.95092E-004	5	..........a	-327.66
	6	1.4	-1.69308E-001	2.14809E-008	0.00000E+000	-1.69350E-001	9.99692E-004	5	..........a	-327.66
	7	1.6	-1.59310E-001	2.37982E-008	0.00000E+000	-1.59350E-001	9.95692E-004	5	..........a	-327.66
	8	1.8	-1.49255E-001	2.61008E-008	0.00000E+000	-1.49350E-001	9.81792E-004	5	..........a	-327.66
	9	2	-1.39317E-001	2.82955E-008	0.00000E+000	-1.39350E-001	9.76392E-004	5	..........a	-327.66
	10	2.2	-1.29342E-001	3.05040E-008	0.00000E+000	-1.29350E-001	9.74192E-004	5	..........a	-327.66
	11	2.4	-1.19317E-001	3.27407E-008	0.00000E+000	-1.19350E-001	9.79492E-004	5	..........a	-327.66
	12	2.6	-1.09230E-001	3.48666E-008	0.00000E+000	-1.09350E-001	9.91192E-004	5	..........a	-327.66
	13	2.8	-9.93183E-002	3.70447E-008	0.00000E+000	-9.93500E-002	1.00239E-003	5	..........a	-327.66
	14	3	-8.93037E-002	3.91748E-008	0.00000E+000	-8.93500E-002	9.95992E-004	5	..........a	-327.66
	15	3.2	-7.93311E-002	4.13260E-008	0.00000E+000	-7.93500E-002	9.82992E-004	5	..........a	-327.66
	16	3.4	-6.92599E-002	4.35243E-008	0.00000E+000	-6.93500E-002	9.92792E-004	5	..........a	-327.66
	17	3.6	-5.93191E-002	4.56814E-008	0.00000E+000	-5.93500E-002	9.86192E-004	5	..........a	-327.66
	18	3.8	-4.93320E-002	4.79359E-008	0.00000E+000	-4.93500E-002	9.93992E-004	5	..........a	-327.66
	19	4	-3.93457E-002	5.01429E-008	0.00000E+000	-3.93500E-002	9.81392E-004	5	..........a	-327.66
	20	4.2	-2.92379E-002	5.24491E-008	0.00000E+000	-2.93500E-002	9.95092E-004	5	..........a	-327.66
	21	4.4	-1.93430E-002	5.48190E-008	0.00000E+000	-1.93500E-002	9.90392E-004	5	..........a	-327.66
	22	4.6	-9.28596E-003	5.71928E-008	0.00000E+000	-9.34999E-003	1.00869E-003	5	..........a	-327.66
	23	4.8	6.66292E-004	5.96804E-008	0.00000E+000	6.50004E-004	9.86192E-004	5	..........a	-327.66
	24	5	1.07421E-002	6.23045E-008	0.00000E+000	1.06500E-002	9.78092E-004	5	..........a	-327.66
	25	5.2	2.06760E-002	6.50160E-008	0.00000E+000	2.06500E-002	1.00899E-003	5	..........a	-327.66
	26	5.4	3.06804E-002	6.78282E-008	0.00000E+000	3.06500E-002	9.87992E-004	5	..........a	-327.66
	27	5.6	4.06837E-002	7.07860E-008	0.00000E+000	4.06500E-002	9.95692E-004	5	..........a	-327.66
	28	5.8	5.07452E-002	7.39468E-008	0.00000E+000	5.06500E-002	9.86192E-004	5	..........a	-327.66
	29	6	6.06734E-002	7.72161E-008	0.00000E+000	6.06500E-002	9.75492E-004	5	..........a	-327.66
	30	6.2	7.06431E-002	8.06875E-008	0.00000E+000	7.06500E-002	1.01199E-003	5	..........a	-327.66
	31	6.4	8.06695E-002	8.44350E-008	0.00000E+000	8.06500E-002	9.90392E-004	5	..........a	-327.66
	32	6.6	9.07513E-002	8.83542E-008	0.00000E+000	9.06500E-002	1.00249E-003	5	..........a	-327.66
	33	6.8	1.00653E-001	9.24988E-008	0.00000E+000	1.00650E-001	9.84992E-004	5	..........a	-327.66
	34	7	1.10659E-001	9.69687E-008	0.00000E+000	1.10650E-001	9.82092E-004	5	..........a	-327.66
	35	7.2	1.20693E-001	1.01772E-007	0.00000E+000	1.20650E-001	9.78492E-004	5	..........a	-327.66
	36	7.4	1.30757E-001	1.06850E-007	0.00000E+000	1.30650E-001	1.01019E-003	5	..........a	-327.66
	37	7.6	1.40657E-001	1.12224E-007	0.00000E+000	1.40650E-001	1.00169E-003	5	..........a	-327.66
	38	7.8	1.50675E-001	1.18017E-007	0.00000E+000	1.50650E-001	1.01099E-003	5	..........a	-327.66
	39	8	1.60667E-001	1.24065E-007	0.00000E+000	1.60650E-001	9.89992E-004	5	..........a	-327.66
	40	8.2	1.70725E-001	1.30423E-007	0.00000E+000	1.70650E-001	9.74992E-004	5	..........a	-327.66
	41	8.4	1.80643E-001	1.37544E-007	0.00000E+000	1.80650E-001	9.67992E-004	5	..........a	-327.66
	42	8.6	1.90656E-001	1.44960E-007	0.00000E+000	1.90650E-001	9.69292E-004	5	..........a	-327.66
	43	8.8	2.00650E-001	1.51966E-007	0.00000E+000	2.00650E-001	1.00439E-003	5	..........a	-327.66
	44	9	2.10685E-001	1.58248E-007	0.00000E+000	2.10650E-001	9.79792E-004	5	..........a	-327.66
	45	9.2	2.20622E-001	1.64018E-007	0.00000E+000	2.20650E-001	9.88992E-004	5	..........a	-327.66
	46	9.4	2.30547E-001	1.69474E-007	0.00000E+000	2.30650E-001	9.78592E-004	5	..........a	-327.66
	47	9.6	2.40609E-001	1.74479E-007	0.00000E+000	2.40650E-001	9.72892E-004	5	..........a	-327.66
	48	9.8	2.50722E-001	1.78984E-007	0.00000E+000	2.50650E-001	9.83992E-004	5	..........a	-327.66
	49	10	2.60574E-001	1.83195E-007	0.00000E+000	2.60650E-001	9.75492E-004	5	..........a	-327.66
	50	10.2	2.70571E-001	1.87468E-007	0.00000E+000	2.70650E-001	9.71592E-004	5	..........a	-327.66
	51	10.4	2.80583E-001	1.91652E-007	0.00000E+000	2.80650E-001	9.87092E-004	5	..........a	-327.66
	52	10.6	2.90649E-001	1.95798E-007	0.00000E+000	2.90650E-001	9.76192E-004	5	..........a	-327.66
	53	10.8	3.00575E-001	2.00057E-007	0.00000E+000	3.00650E-001	9.93592E-004	5	..........a	-327.66
	54	11	3.10564E-001	2.04624E-007	0.00000E+000	3.10650E-001	9.89792E-004	5	..........a	-327.66
	55	11.2	3.20591E-001	2.09716E-007	0.00000E+000	3.20650E-001	9.97692E-004	5	..........a	-327.66
	56	11.4	3.30700E-001	2.15292E-007	0.00000E+000	3.30650E-001	9.93092E-004	5	..........a	-327.66
	57	11.6	3.40596E-001	2.21297E-007	0.00000E+000	3.40650E-001	9.88592E-004	5	..........a	-327.66
	58	11.8	3.50568E-001	2.27619E-007	0.00000E+000	3.50650E-001	9.81792E-004	5	..........a	-327.66
	59	12	3.60566E-001	2.34335E-007	0.00000E+000	3.60650E-001	9.72992E-004	5	..........a	-327.66
	60	12.2	3.70605E-001	2.41274E-007	0.00000E+000	3.70650E-001	9.65492E-004	5	..........a	-327.66
	61	12.4	3.80548E-001	2.48418E-007	0.00000E+000	3.80650E-001	1.01399E-003	5	..........a	-327.66
	62	12.6	3.90540E-001	2.55768E-007	0.00000E+000	3.90650E-001	9.89492E-004	5	..........a	-327.66
	63	12.8	4.00566E-001	2.63344E-007	0.00000E+000	4.00650E-001	9.87692E-004	5	..........a	-327.66
	64	13	4.10597E-001	2.71006E-007	0.00000E+000	4.10650E-001	9.75792E-004	5	..........a	-327.66
	65	13.2	4.20553E-001	2.78833E-007	0.00000E+000	4.20650E-001	9.83392E-004	5	..........a	-327.66
	66	13.4	4.30485E-001	2.86696E-007	0.00000E+000	4.30650E-001	9.86292E-004	5	..........a	-327.66
	67	13.6	4.40506E-001	2.94504E-007	0.00000E+000	4.40650E-001	9.80092E-004	5	..........a	-327.66
	68	13.8	4.50609E-001	3.02232E-007	0.00000E+000	4.50650E-001	9.79592E-004	5	..........a	-327.66
	69	14	4.60472E-001	3.09817E-007	0.00000E+000	4.60650E-001	9.95492E-004	5	..........a	-327.66
	70	14.2	4.70511E-001	3.17132E-007	0.00000E+000	4.70650E-001	9.85792E-004	5	..........a	-327.66
	71	14.4	4.80486E-001	3.24056E-007	0.00000E+000	4.80650E-001	9.75892E-004	5	..........a	-327.66
	72	14.6	4.90553E-001	3.30698E-007	0.00000E+000	4.90650E-001	9.78092E-004	5	..........a	-327.66
	73	14.8	5.00505E-001	3.36993E-007	0.00000E+000	5.00650E-001	9.91592E-004	5	..........a	-327.66
	74	15	5.10420E-001	3.43055E-007	0.00000E+000	5.10650E-001	9.96492E-004	5	..........a	-327.66
	75	15.2	5.20491E-001	3.49022E-007	0.00000E+000	5.20650E-001	9.92592E-004	5	..........a	-327.66
	76	15.4	5.30579E-001	3.54960E-007	0.00000E+000	5.30650E-001	9.85092E-004	5	..........a	-327.66
	77	15.6	5.40464E-001	3.60735E-007	0.00000E+000	5.40650E-001	9.96992E-004	5	..........a	-327.66
	78	15.8	5.50510E-001	3.66479E-007	0.00000E+000	5.50650E-001	9.90192E-004	5	..........a	-327.66
	79	16	5.60465E-001	3.72372E-007	0.00000E+000	5.60650E-001	9.91092E-004	5	..........a	-327.66
	80	16.2	5.70504E-001	3.77875E-007	0.00000E+000	5.70650E-001	9.75392E-004	5	..........a	-327.66
	81	16.4	5.80420E-001	3.83418E-007	0.00000E+000	5.80650E-001	1.00409E-003	5	..........a	-327.66
	82	16.6	5.90419E-001	3.88971E-007	0.00000E+000	5.90650E-001	9.97692E-004	5	..........a	-327.66
	83	16.8	6.00465E-001	3.94594E-007	0.00000E+000	6.00650E-001	9.84092E-004	5	..........a	-327.66
	84	17	6.10523E-001	4.00391E-007	0.00000E+000	6.10650E-001	9.72892E-004	5	..........a	-327.66
	85	17.2	6.20432E-001	4.05026E-007	0.00000E+000	6.20650E-001	9.90792E-004	5	..........a	-327.66
	86	17.4	6.30368E-001	4.09955E-007	0.00000E+000	6.30650E-001	9.86492E-004	5	..........a	-327.66
	87	17.6	6.40339E-001	4.15150E-007	0.00000E+000	6.40650E-001	1.00959E-003	5	..........a	-327.66
	88	17.8	6.50423E-001	4.20386E-007	0.00000E+000	6.50650E-001	9.76292E-004	5	..........a	-327.66
	89	18	6.60400E-001	4.25582E-007	0.00000E+000	6.60650E-001	1.00319E-003	5	..........a	-327.66
	90	18.2	6.70360E-001	4.30887E-007	0.00000E+000	6.70650E-001	1.00239E-003	5	..........a	-327.66
	91	18.4	6.80333E-001	4.36218E-007	0.00000E+000	6.80650E-001	9.81692E-004	5	..........a	-327.66
	92	18.6	6.90400E-001	4.41629E-007	0.00000E+000	6.90650E-001	9.64892E-004	5	..........a	-327.66
	93	18.8	7.00433E-001	4.47275E-007	0.00000E+000	7.00650E-001	9.94792E-004	5	..........a	-327.66
	94	19	7.10337E-001	4.53134E-007	0.00000E+000	7.10650E-001	9.99492E-004	5	..........a	-327.66
	95	19.2	7.20368E-001	4.59355E-007	0.00000E+000	7.20650E-001	9.94092E-004	5	..........a	-327.66
	96	19.4	7.30462E-001	4.65821E-007	0.00000E+000	7.30650E-001	9.95992E-004	5	..........a	-327.66
	97	19.6	7.40392E-001	4.72389E-007	0.00000E+000	7.40650E-001	9.94892E-004	5	..........a	-327.66
	98	19.8	7.50381E-001	4.79898E-007	0.00000E+000	7.50650E-001	1.00049E-003	5	..........a	-327.66
	99	20	7.60386E-001	4.87809E-007	0.00000E+000	7.60650E-001	9.90292E-004	5	..........a	-327.66
	100	20.2	7.70364E-001	4.96261E-007	0.00000E+000	7.70650E-001	9.96392E-004	5	..........a	-327.66
	101	20.4	7.80396E-001	5.05254E-007	0.00000E+000	7.80650E-001	9.93092E-004	5	..........a	-327.66
	102	20.6	7.90322E-001	5.14978E-007	0.00000E+000	7.90650E-001	9.93392E-004	5	..........a	-327.66
	103	20.8	8.00348E-001	5.25391E-007	0.00000E+000	8.00650E-001	1.00019E-003	5	..........a	-327.66
	104	21	7.90364E-001	4.44857E-007	0.00000E+000	7.90650E-001	9.92592E-004	5	..........a	-327.66
	105	21.2	7.80465E-001	3.89205E-007	0.00000E+000	7.80650E-001	1.00019E-003	5	..........a	-327.66
	106	21.4	7.70474E-001	3.47030E-007	0.00000E+000	7.70650E-001	9.67192E-004	5	..........a	-327.66
	107	21.6	7.60463E-001	3.13320E-007	0.00000E+000	7.60650E-001	9.86192E-004	5	..........a	-327.66
	108	21.8	7.50488E-001	2.85575E-007	0.00000E+000	7.50650E-001	9.92692E-004	5	..........a	-327.66
	109	22	7.40497E-001	2.62290E-007	0.00000E+000	7.40650E-001	9.82492E-004	5	..........a	-327.66
	110	22.2	7.30615E-001	2.42319E-007	0.00000E+000	7.30650E-001	9.85292E-004	5	..........a	-327.66
	111	22.4	7.20516E-001	2.25017E-007	0.00000E+000	7.20650E-001	9.92092E-004	5	..........a	-327.66
	112	22.6	7.10468E-001	2.09791E-007	0.00000E+000	7.10650E-001	9.95992E-004	5	..........a	-327.66
	113	22.8	7.00546E-001	1.96322E-007	0.00000E+000	7.00650E-001	9.78792E-004	5	..........a	-327.66
	114	23	6.90593E-001	1.84189E-007	0.00000E+000	6.90650E-001	9.76692E-004	5	..........a	-327.66
	115	23.2	6.80461E-001	1.73320E-007	0.00000E+000	6.80650E-001	9.77492E-004	5	..........a	-327.66
	116	23.4	6.70495E-001	1.63413E-007	0.00000E+000	6.70650E-001	9.73092E-004	5	..........a	-327.66
	117	23.6	6.60556E-001	1.54469E-007	0.00000E+000	6.60650E-001	9.81992E-004	5	..........a	-327.66
	118	23.8	6.50600E-001	1.46170E-007	0.00000E+000	6.50650E-001	9.78892E-004	5	..........a	-327.66
	119	24	6.40527E-001	1.38519E-007	0.00000E+000	6.40650E-001	1.00179E-003	5	..........a	-327.66
	120	24.2	6.30543E-001	1.31522E-007	0.00000E+000	6.30650E-001	9.70592E-004	5	..........a	-327.66
	121	24.4	6.20546E-001	1.24931E-007	0.00000E+000	6.20650E-001	9.77992E-004	5	..........a	-327.66
	122	24.6	6.10701E-001	1.18786E-007	0.00000E+000	6.10650E-001	9.95492E-004	5	..........a	-327.66
	123	24.8	6.00597E-001	1.13059E-007	0.00000E+000	6.00650E-001	9.62092E-004	5	..........a	-327.66
	124	25	5.90578E-001	1.07682E-007	0.00000E+000	5.90650E-001	9.93892E-004	5	..........a	-327.66
	125	25.2	5.80598E-001	1.02608E-007	0.00000E+000	5.80650E-001	9.75192E-004	5	..........a	-327.66
	126	25.4	5.70673E-001	9.78668E-008	0.00000E+000	5.70650E-001	9.80592E-004	5	..........a	-327.66
	127	25.6	5.60621E-001	9.33011E-008	0.00000E+000	5.60650E-001	9.84492E-004	5	..........a	-327.66
	128	25.8	5.50624E-001	8.89233E-008	0.00000E+000	5.50650E-001	9.80992E-004	5	..........a	-327.66
	129	26	5.40595E-001	8.47890E-008	0.00000E+000	5.40650E-001	9.90292E-004	5	..........a	-327.66
	130	26.2	5.30722E-001	8.07465E-008	0.00000E+000	5.30650E-001	9.92692E-004	5	..........a	-327.66
	131	26.4	5.20616E-001	7.69091E-008	0.00000E+000	5.20650E-001	9.96892E-004	5	..........a	-327.66
	132	26.6	5.10585E-001	7.31521E-008	0.00000E+000	5.10650E-001	1.00169E-003	5	..........a	-327.66
	133	26.8	5.00623E-001	6.95869E-008	0.00000E+000	5.00650E-001	9.90092E-004	5	..........a	-327.66
	134	27	4.90703E-001	6.60803E-008	0.00000E+000	4.90650E-001	9.95892E-004	5	..........a	-327.66
	135	27.2	4.80621E-001	6.26029E-008	0.00000E+000	4.80650E-001	9.78092E-004	5	..........a	-327.66
	136	27.4	4.70605E-001	5.91655E-008	0.00000E+000	4.70650E-001	9.89392E-004	5	..........a	-327.66
	137	27.6	4.60627E-001	5.56856E-008	0.00000E+000	4.60650E-001	9.89692E-004	5	..........a	-327.66
	138	27.8	4.50667E-001	5.22591E-008	0.00000E+000	4.50650E-001	9.72892E-004	5	..........a	-327.66
	139	28	4.40624E-001	4.87634E-008	0.00000E+000	4.40650E-001	9.84192E-004	5	..........a	-327.66
	140	28.2	4.30602E-001	4.53789E-008	0.00000E+000	4.30650E-001	1.00499E-003	5	..........a	-327.66
	141	28.4	4.20631E-001	4.18350E-008	0.00000E+000	4.20650E-001	9.79892E-004	5	..........a	-327.66
	142	28.6	4.10731E-001	3.84572E-008	0.00000E+000	4.10650E-001	9.90592E-004	5	..........a	-327.66
	143	28.8	4.00665E-001	3.50486E-008	0.00000E+000	4.00650E-001	9.79092E-004	5	..........a	-327.66
	144	29	3.90653E-001	3.16923E-008	0.00000E+000	3.90650E-001	9.87792E-004	5	..........a	-327.66
	145	29.2	3.80644E-001	2.83961E-008	0.00000E+000	3.80650E-001	9.85992E-004	5	..........a	-327.66
	146	29.4	3.70711E-001	2.50689E-008	0.00000E+000	3.70650E-001	9.78892E-004	5	..........a	-327.66
	147	29.6	3.60660E-001	2.18041E-008	0.00000E+000	3.60650E-001	9.75792E-004	5	..........a	-327.66
	148	29.8	3.50669E-001	1.86229E-008	0.00000E+000	3.50650E-001	9.87492E-004	5	..........a	-327.66
	149	30	3.40673E-001	1.54703E-008	0.00000E+000	3.40650E-001	9.95392E-004	5	..........a	-327.66
	150	30.2	3.30734E-001	1.24628E-008	0.00000E+000	3.30650E-001	9.97192E-004	5	..........a	-327.66
	151	30.4	3.20721E-001	9.46414E-009	0.00000E+000	3.20650E-001	9.86492E-004	5	..........a	-327.66
	152	30.6	3.10645E-001	6.55862E-009	0.00000E+000	3.10650E-001	9.88292E-004	5	..........a	-327.66
	153	30.8	3.00644E-001	3.79993E-009	0.00000E+000	3.00650E-001	9.93392E-004	5	..........a	-327.66
	154	31	2.90737E-001	1.08158E-009	0.00000E+000	2.90650E-001	9.88392E-004	5	..........a	-327.66
	155	31.2	2.80676E-001	-1.68394E-009	0.00000E+000	2.80650E-001	9.66792E-004	5	..........a	-327.66
	156	31.4	2.70713E-001	-4.21738E-009	0.00000E+000	2.70650E-001	9.70792E-004	5	..........a	-327.66
	157	31.6	2.60677E-001	-6.67193E-009	0.00000E+000	2.60650E-001	9.65592E-004	5	..........a	-327.66
	158	31.8	2.50777E-001	-9.12912E-009	0.00000E+000	2.50650E-001	9.86092E-004	5	..........a	-327.66
	159	32	2.40691E-001	-1.15820E-008	0.00000E+000	2.40650E-001	9.84192E-004	5	..........a	-327.66
	160	32.2	2.30681E-001	-1.38874E-008	0.00000E+000	2.30650E-001	9.81792E-004	5	..........a	-327.66
	161	32.4	2.20682E-001	-1.62185E-008	0.00000E+000	2.20650E-001	9.88192E-004	5	..........a	-327.66
	162	32.6	2.10762E-001	-1.86206E-008	0.00000E+000	2.10650E-001	9.89792E-004	5	..........a	-327.66
	163	32.8	2.00728E-001	-2.10801E-008	0.00000E+000	2.00650E-001	9.86492E-004	5	..........a	-327.66
	164	33	1.90747E-001	-2.35550E-008	0.00000E+000	1.90650E-001	9.88492E-004	5	..........a	-327.66
	165	33.2	1.80713E-001	-2.60275E-008	0.00000E+000	1.80650E-001	9.92292E-004	5	..........a	-327.66
	166	33.4	1.70769E-001	-2.85338E-008	0.00000E+000	1.70650E-001	9.92092E-004	5	..........a	-327.66
	167	33.6	1.60741E-001	-3.10486E-008	0.00000E+000	1.60650E-001	9.82192E-004	5	..........a	-327.66
	168	33.8	1.50726E-001	-3.35704E-008	0.00000E+000	1.50650E-001	9.97892E-004	5	..........a	-327.66
	169	34	1.40749E-001	-3.60203E-008	0.00000E+000	1.40650E-001	9.77392E-004	5	..........a	-327.66
	170	34.2	1.30775E-001	-3.84901E-008	0.00000E+000	1.30650E-001	9.92392E-004	5	..........a	-327.66
	171	34.4	1.20771E-001	-4.09954E-008	0.00000E+000	1.20650E-001	9.87592E-004	5	..........a	-327.66
	172	34.6	1.10765E-001	-4.34078E-008	0.00000E+000	1.10650E-001	9.73992E-004	5	..........a	-327.66
	173	34.8	1.00707E-001	-4.57805E-008	0.00000E+000	1.00650E-001	9.83792E-004	5	..........a	-327.66
	174	35	9.08158E-002	-4.78944E-008	0.00000E+000	9.06500E-002	1.00009E-003	5	..........a	-327.66
	175	35.2	8.07495E-002	-4.99659E-008	0.00000E+000	8.06500E-002	9.77592E-004	5	..........a	-327.66
	176	35.4	7.07290E-002	-5.18187E-008	0.00000E+000	7.06500E-002	9.70292E-004	5	..........a	-327.66
	177	35.6	6.07458E-002	-5.34061E-008	0.00000E+000	6.06500E-002	9.88392E-004	5	..........a	-327.66
	178	35.8	5.07797E-002	-5.48629E-008	0.00000E+000	5.06500E-002	1.00119E-003	5	..........a	-327.66
	179	36	4.06438E-002	-5.61903E-008	0.00000E+000	4.06500E-002	9.63792E-004	5	..........a	-327.66
	180	36.2	3.07137E-002	-5.75261E-008	0.00000E+000	3.06500E-002	9.88492E-004	5	..........a	-327.66
	181	36.4	2.07145E-002	-5.87216E-008	0.00000E+000	2.06500E-002	9.97692E-004	5	..........a	-327.66
	182	36.6	1.08008E-002	-6.35250E-008	0.00000E+000	1.06500E-002	9.92792E-004	5	..........a	-327.66
	183	36.8	7.27792E-004	-6.42588E-008	0.00000E+000	6.50004E-004	9.73792E-004	5	..........a	-327.66
	184	37	-9.26216E-003	-6.79342E-008	0.00000E+000	-9.34999E-003	9.84592E-004	5	..........a	-327.66
	185	37.2	-1.92779E-002	-6.89109E-008	0.00000E+000	-1.93500E-002	9.81092E-004	5	..........a	-327.66
	186	37.4	-2.92100E-002	-6.77174E-008	0.00000E+000	-2.93500E-002	9.77992E-004	5	..........a	-327.66
	187	37.6	-3.92775E-002	-6.76201E-008	0.00000E+000	-3.93500E-002	9.77692E-004	5	..........a	-327.66
	188	37.8	-4.92907E-002	-6.78538E-008	0.00000E+000	-4.93500E-002	9.77492E-004	5	..........a	-327.66
	189	38	-5.92779E-002	-6.89354E-008	0.00000E+000	-5.93500E-002	9.82492E-004	5	..........a	-327.66
	190	38.2	-6.92019E-002	-7.13244E-008	0.00000E+000	-6.93500E-002	9.86792E-004	5	..........a	-327.66
	191	38.4	-7.92562E-002	-7.11672E-008	0.00000E+000	-7.93500E-002	9.76992E-004	5	..........a	-327.66
	192	38.6	-8.92353E-002	-7.22274E-008	0.00000E+000	-8.93500E-002	1.00249E-003	5	..........a	-327.66
	193	38.8	-9.92711E-002	-7.33920E-008	0.00000E+000	-9.93500E-002	9.78492E-004	5	..........a	-327.66
	194	39	-1.09225E-001	-7.47246E-008	0.00000E+000	-1.09350E-001	1.00409E-003	5	..........a	-327.66
	195	39.2	-1.19271E-001	-7.61438E-008	0.00000E+000	-1.19350E-001	9.94592E-004	5	..........a	-327.66
	196	39.4	-1.29297E-001	-7.86335E-008	0.00000E+000	-1.29350E-001	9.99892E-004	5	..........a	-327.66
	197	39.6	-1.39237E-001	-8.00356E-008	0.00000E+000	-1.39350E-001	9.92592E-004	5	..........a	-327.66
	198	39.8	-1.49215E-001	-8.13084E-008	0.00000E+000	-1.49350E-001	9.87792E-004	5	..........a	-327.66
	199	40	-1.59250E-001	-8.35062E-008	0.00000E+000	-1.59350E-001	9.76092E-004	5	..........a	-327.66
	200	40.2	-1.69229E-001	-8.49424E-008	0.00000E+000	-1.69350E-001	9.77792E-004	5	..........a	-327.66
	201	40.4	-1.79280E-001	-8.75139E-008	0.00000E+000	-1.79350E-001	9.82592E-004	5	..........a	-327.66
	202	40.6	-1.89159E-001	-8.94635E-008	0.00000E+000	-1.89350E-001	9.70292E-004	5	..........a	-327.66
	203	40.8	-1.99255E-001	-9.18260E-008	0.00000E+000	-1.99350E-001	9.81892E-004	5	..........a	-327.66
	204	41	-2.09222E-001	-9.44073E-008	0.00000E+000	-2.09350E-001	9.79992E-004	5	..........a	-327.66
	205	41.2	-2.19204E-001	-9.66844E-008	0.00000E+000	-2.19350E-001	9.85292E-004	5	..........a	-327.66
	206	41.4	-2.29181E-001	-9.92197E-008	0.00000E+000	-2.29350E-001	9.87892E-004	5	..........a	-327.66
	207	41.6	-2.39210E-001	-1.01643E-007	0.00000E+000	-2.39350E-001	9.66592E-004	5	..........a	-327.66
	208	41.8	-2.49213E-001	-1.04365E-007	0.00000E+000	-2.49350E-001	9.90592E-004	5	..........a	-327.66
	209	42	-2.59227E-001	-1.06408E-007	0.00000E+000	-2.59350E-001	9.85992E-004	5	..........a	-327.66
	210	42.2	-2.69181E-001	-1.08761E-007	0.00000E+000	-2.69350E-001	9.86192E-004	5	..........a	-327.66
	211	42.4	-2.79186E-001	-1.10932E-007	0.00000E+000	-2.79350E-001	9.76792E-004	5	..........a	-327.66
	212	42.6	-2.89219E-001	-1.13451E-007	0.00000E+000	-2.89350E-001	9.96992E-004	5	..........a	-327.66
	213	42.8	-2.99209E-001	-1.15670E-007	0.00000E+000	-2.99350E-001	9.90992E-004	5	..........a	-327.66
	214	43	-3.09182E-001	-1.17756E-007	0.00000E+000	-3.09350E-001	9.83492E-004	5	..........a	-327.66
	215	43.2	-3.19163E-001	-1.20045E-007	0.00000E+000	-3.19350E-001	9.74792E-004	5	..........a	-327.66
	216	43.4	-3.29214E-001	-1.22338E-007	0.00000E+000	-3.29350E-001	9.70592E-004	5	..........a	-327.66
	217	43.6	-3.39247E-001	-1.24536E-007	0.00000E+000	-3.39350E-001	9.80892E-004	5	..........a	-327.66
	218	43.8	-3.49158E-001	-1.26563E-007	0.00000E+000	-3.49350E-001	9.77392E-004	5	..........a	-327.66
	219	44	-3.59190E-001	-1.28587E-007	0.00000E+000	-3.59350E-001	9.68592E-004	5	..........a	-327.66
	220	44.2	-3.69209E-001	-1.30623E-007	0.00000E+000	-3.69350E-001	9.65692E-004	5	..........a	-327.66
	221	44.4	-3.79205E-001	-1.32914E-007	0.00000E+000	-3.79350E-001	9.99992E-004	5	..........a	-327.66
	222	44.6	-3.89184E-001	-1.35368E-007	0.00000E+000	-3.89350E-001	9.79992E-004	5	..........a	-327.66
	223	44.8	-3.99158E-001	-1.36989E-007	0.00000E+000	-3.99350E-001	9.76992E-004	5	..........a	-327.66
	224	45	-4.09203E-001	-1.39098E-007	0.00000E+000	-4.09350E-001	9.89892E-004	5	..........a	-327.66
	225	45.2	-4.19184E-001	-1.41380E-007	0.00000E+000	-4.19350E-001	9.81592E-004	5	..........a	-327.66
	226	45.4	-4.29121E-001	-1.42954E-007	0.00000E+000	-4.29350E-001	9.66492E-004	5	..........a	-327.66
	227	45.6	-4.39120E-001	-1.45010E-007	0.00000E+000	-4.39350E-001	9.71692E-004	5	..........a	-327.66
	228	45.8	-4.49138E-001	-1.47253E-007	0.00000E+000	-4.49350E-001	9.65992E-004	5	..........a	-327.66
	229	46	-4.59171E-001	-1.49036E-007	0.00000E+000	-4.59350E-001	9.68192E-004	5	..........a	-327.66
	230	46.2	-4.69157E-001	-1.51116E-007	0.00000E+000	-4.69350E-001	9.80492E-004	5	..........a	-327.66
	231	46.4	-4.79103E-001	-1.53139E-007	0.00000E+000	-4.79350E-001	9.70092E-004	5	..........a	-327.66
	232	46.6	-4.89161E-001	-1.55226E-007	0.00000E+000	-4.89350E-001	9.88692E-004	5	..........a	-327.66
	233	46.8	-4.99139E-001	-1.57395E-007	0.00000E+000	-4.99350E-001	9.64492E-004	5	..........a	-327.66
	234	47	-5.09144E-001	-1.59375E-007	0.00000E+000	-5.09350E-001	9.83692E-004	5	..........a	-327.66
	235	47.2	-5.19116E-001	-1.61269E-007	0.00000E+000	-5.19350E-001	9.82992E-004	5	..........a	-327.66
	236	47.4	-5.29130E-001	-1.63646E-007	0.00000E+000	-5.29350E-001	9.73792E-004	5	..........a	-327.66
	237	47.6	-5.39181E-001	-1.65566E-007	0.00000E+000	-5.39350E-001	9.79192E-004	5	..........a	-327.66
	238	47.8	-5.49076E-001	-1.67701E-007	0.00000E+000	-5.49350E-001	9.83892E-004	5	..........a	-327.66
	239	48	-5.59112E-001	-1.70134E-007	0.00000E+000	-5.59350E-001	9.81492E-004	5	..........a	-327.66
	240	48.2	-5.69166E-001	-1.73490E-007	0.00000E+000	-5.69350E-001	9.77292E-004	5	..........a	-327.66
	241	48.4	-5.79123E-001	-1.76237E-007	0.00000E+000	-5.79350E-001	9.87792E-004	5	..........a	-327.66
	242	48.6	-5.89151E-001	-1.79344E-007	0.00000E+000	-5.89350E-001	9.88692E-004	5	..........a	-327.66
	243	48.8	-5.99113E-001	-1.80895E-007	0.00000E+000	-5.99350E-001	9.73492E-004	5	..........a	-327.66
CURVE2	TABLE
	Pt	T	Vf	Im	Vu	Sig	Ach	IERange	Over	Temp
	#	s	V vs. Ref.	A	V	V	V	#	bits	deg C
	244	49	-5.89809E-001	-1.52911E-007	0.00000E+000	-5.90000E-001	9.64892E-004	5	..........a	-327.66
	245	49.2	-5.79779E-001	-1.33689E-007	0.00000E+000	-5.80000E-001	9.71992E-004	5	..........a	-327.66
	246	49.4	-5.69843E-001	-1.19075E-007	0.00000E+000	-5.70000E-001	9.89792E-004	5	..........a	-327.66
	247	49.6	-5.59857E-001	-1.07595E-007	0.00000E+000	-5.60000E-001	9.71992E-004	5	..........a	-327.66
	248	49.8	-5.49845E-001	-9.78927E-008	0.00000E+000	-5.50000E-001	9.75592E-004	5	..........a	-327.66
	249	50	-5.39765E-001	-8.96724E-008	0.00000E+000	-5.40000E-001	9.57792E-004	5	..........a	-327.66
	250	50.2	-5.29836E-001	-8.25067E-008	0.00000E+000	-5.30000E-001	9.62192E-004	5	..........a	-327.66
	251	50.4	-5.19870E-001	-7.58386E-008	0.00000E+000	-5.20000E-001	9.70792E-004	5	..........a	-327.66
	252	50.6	-5.09836E-001	-6.98990E-008	0.00000E+000	-5.10000E-001	9.78292E-004	5	..........a	-327.66
	253	50.8	-4.99820E-001	-6.48906E-008	0.00000E+000	-5.00000E-001	9.64892E-004	5	..........a	-327.66
	254	51	-4.89842E-001	-5.98051E-008	0.00000E+000	-4.90000E-001	9.78192E-004	5	..........a	-327.66
	255	51.2	-4.79841E-001	-5.52048E-008	0.00000E+000	-4.80000E-001	9.76892E-004	5	..........a	-327.66
	256	51.4	-4.69836E-001	-5.07979E-008	0.00000E+000	-4.70000E-001	9.82492E-004	5	..........a	-327.66
	257	51.6	-4.59816E-001	-4.65424E-008	0.00000E+000	-4.60000E-001	9.67192E-004	5	..........a	-327.66
	258	51.8	-4.49841E-001	-4.26616E-008	0.00000E+000	-4.50000E-001	9.71492E-004	5	..........a	-327.66
	259	52	-4.39861E-001	-3.88920E-008	0.00000E+000	-4.40000E-001	9.81692E-004	5	..........a	-327.66
	260	52.2	-4.29850E-001	-3.52895E-008	0.00000E+000	-4.30000E-001	9.70592E-004	5	..........a	-327.66
	261	52.4	-4.19803E-001	-3.19380E-008	0.00000E+000	-4.20000E-001	9.76992E-004	5	..........a	-327.66
	262	52.6	-4.09865E-001	-2.85284E-008	0.00000E+000	-4.10000E-001	9.97592E-004	5	..........a	-327.66
	263	52.8	-3.99862E-001	-2.54265E-008	0.00000E+000	-4.00000E-001	9.54092E-004	5	..........a	-327.66
	264	53	-3.89932E-001	-2.23504E-008	0.00000E+000	-3.90000E-001	9.90892E-004	5	..........a	-327.66
	265	53.2	-3.79844E-001	-1.93264E-008	0.00000E+000	-3.80000E-001	9.81992E-004	5	..........a	-327.66
	266	53.4	-3.69854E-001	-1.65145E-008	0.00000E+000	-3.70000E-001	9.69592E-004	5	..........a	-327.66
	267	53.6	-3.59876E-001	-1.35222E-008	0.00000E+000	-3.60000E-001	9.73292E-004	5	..........a	-327.66
	268	53.8	-3.49874E-001	-1.08210E-008	0.00000E+000	-3.50000E-001	9.69392E-004	5	..........a	-327.66
	269	54	-3.39847E-001	-8.02237E-009	0.00000E+000	-3.40000E-001	9.74192E-004	5	..........a	-327.66
	270	54.2	-3.29888E-001	-5.37796E-009	0.00000E+000	-3.30000E-001	9.88592E-004	5	..........a	-327.66
	271	54.4	-3.19881E-001	-2.72824E-009	0.00000E+000	-3.20000E-001	9.82992E-004	5	..........a	-327.66
	272	54.6	-3.09946E-001	-1.22608E-010	0.00000E+000	-3.10000E-001	9.60392E-004	5	..........a	-327.66
	273	54.8	-2.99899E-001	2.49971E-009	0.00000E+000	-3.00000E-001	9.78592E-004	5	..........a	-327.66
	274	55	-2.89914E-001	4.98584E-009	0.00000E+000	-2.90000E-001	9.87692E-004	5	..........a	-327.66
	275	55.2	-2.79968E-001	7.52587E-009	0.00000E+000	-2.80000E-001	9.75192E-004	5	..........a	-327.66
	276	55.4	-2.69885E-001	9.90076E-009	0.00000E+000	-2.70000E-001	9.85392E-004	5	..........a	-327.66
	277	55.6	-2.59831E-001	1.23894E-008	0.00000E+000	-2.60000E-001	9.73392E-004	5	..........a	-327.66
	278	55.8	-2.49890E-001	1.48236E-008	0.00000E+000	-2.50000E-001	9.76992E-004	5	..........a	-327.66
	279	56	-2.39907E-001	1.71612E-008	0.00000E+000	-2.40000E-001	9.68292E-004	5	..........a	-327.66
	280	56.2	-2.29947E-001	1.95548E-008	0.00000E+000	-2.30000E-001	9.87292E-004	5	..........a	-327.66
	281	56.4	-2.19894E-001	2.18817E-008	0.00000E+000	-2.20000E-001	9.69692E-004	5	..........a	-327.66
	282	56.6	-2.09942E-001	2.42189E-008	0.00000E+000	-2.10000E-001	9.88092E-004	5	..........a	-327.66
	283	56.8	-1.99966E-001	2.64565E-008	0.00000E+000	-2.00000E-001	9.84592E-004	5	..........a	-327.66
	284	57	-1.89942E-001	2.87849E-008	0.00000E+000	-1.90000E-001	9.71292E-004	5	..........a	-327.66
	285	57.2	-1.79956E-001	3.10120E-008	0.00000E+000	-1.80000E-001	9.76892E-004	5	..........a	-327.66
	286	57.4	-1.69926E-001	3.32867E-008	0.00000E+000	-1.70000E-001	9.75092E-004	5	..........a	-327.66
	287	57.6	-1.60001E-001	3.55198E-008	0.00000E+000	-1.60000E-001	9.86092E-004	5	..........a	-327.66
	288	57.8	-1.49967E-001	3.77876E-008	0.00000E+000	-1.50000E-001	9.73992E-004	5	..........a	-327.66
	289	58	-1.39966E-001	4.00033E-008	0.00000E+000	-1.40000E-001	9.68692E-004	5	..........a	-327.66
	290	58.2	-1.29972E-001	4.18867E-008	0.00000E+000	-1.30000E-001	9.98592E-004	5	..........a	-327.66
	291	58.4	-1.20003E-001	4.41926E-008	0.00000E+000	-1.20000E-001	9.75492E-004	5	..........a	-327.66
	292	58.6	-1.09996E-001	4.64935E-008	0.00000E+000	-1.10000E-001	9.83992E-004	5	..........a	-327.66
	293	58.8	-9.99598E-002	4.88633E-008	0.00000E+000	-1.00000E-001	9.69892E-004	5	..........a	-327.66
	294	59	-8.99346E-002	5.11658E-008	0.00000E+000	-9.00000E-002	9.79792E-004	5	..........a	-327.66
	295	59.2	-8.00044E-002	5.34992E-008	0.00000E+000	-8.00000E-002	9.91392E-004	5	..........a	-327.66
	296	59.4	-6.99424E-002	5.57998E-008	0.00000E+000	-7.00000E-002	9.83792E-004	5	..........a	-327.66
	297	59.6	-5.99312E-002	5.80819E-008	0.00000E+000	-6.00000E-002	9.77392E-004	5	..........a	-327.66
	298	59.8	-4.99461E-002	6.04178E-008	0.00000E+000	-5.00000E-002	9.72992E-004	5	..........a	-327.66
	299	60	-3.99583E-002	6.27262E-008	0.00000E+000	-4.00000E-002	9.71292E-004	5	..........a	-327.66
	300	60.2	-2.99860E-002	6.51198E-008	0.00000E+000	-3.00000E-002	9.72992E-004	5	..........a	-327.66
	301	60.4	-1.99538E-002	6.75329E-008	0.00000E+000	-2.00000E-002	9.95592E-004	5	..........a	-327.66
	302	60.6	-9.92151E-003	6.99434E-008	0.00000E+000	-1.00000E-002	9.88592E-004	5	..........a	-327.66
	303	60.8	-1.51084E-005	7.24242E-008	0.00000E+000	7.45058E-009	9.79792E-004	5	..........a	-327.66
	304	61	1.00350E-002	7.49704E-008	0.00000E+000	1.00000E-002	9.89992E-004	5	..........a	-327.66
	305	61.2	2.00932E-002	7.75948E-008	0.00000E+000	2.00000E-002	9.77192E-004	5	..........a	-327.66
	306	61.4	2.99977E-002	8.02504E-008	0.00000E+000	3.00000E-002	9.84192E-004	5	..........a	-327.66
	307	61.6	3.99723E-002	8.30172E-008	0.00000E+000	4.00000E-002	9.90792E-004	5	..........a	-327.66
	308	61.8	4.99783E-002	8.58877E-008	0.00000E+000	5.00000E-002	9.85992E-004	5	..........a	-327.66
	309	62	6.00476E-002	8.88529E-008	0.00000E+000	6.00000E-002	9.88992E-004	5	..........a	-327.66
	310	62.2	6.99853E-002	9.18996E-008	0.00000E+000	7.00000E-002	9.96392E-004	5	..........a	-327.66
	311	62.4	7.99532E-002	9.51001E-008	0.00000E+000	8.00000E-002	9.96692E-004	5	..........a	-327.66
	312	62.6	9.00755E-002	9.84623E-008	0.00000E+000	9.00000E-002	9.72592E-004	5	..........a	-327.66
	313	62.8	1.00035E-001	1.03618E-007	0.00000E+000	1.00000E-001	9.58392E-004	5	..........a	-327.66
	314	63	1.10041E-001	1.06520E-007	0.00000E+000	1.10000E-001	9.92492E-004	5	..........a	-327.66
	315	63.2	1.19986E-001	1.09358E-007	0.00000E+000	1.20000E-001	9.84492E-004	5	..........a	-327.66
	316	63.4	1.30001E-001	1.12934E-007	0.00000E+000	1.30000E-001	9.82192E-004	5	..........a	-327.66
	317	63.6	1.40044E-001	1.16717E-007	0.00000E+000	1.40000E-001	9.75292E-004	5	..........a	-327.66
	318	63.8	1.50008E-001	1.20586E-007	0.00000E+000	1.50000E-001	9.75692E-004	5	..........a	-327.66
	319	64	1.59969E-001	1.24763E-007	0.00000E+000	1.60000E-001	1.00629E-003	5	..........a	-327.66
	320	64.2	1.70015E-001	1.28848E-007	0.00000E+000	1.70000E-001	9.84392E-004	5	..........a	-327.66
	321	64.4	1.79998E-001	1.33059E-007	0.00000E+000	1.80000E-001	9.78192E-004	5	..........a	-327.66
	322	64.6	1.90038E-001	1.37264E-007	0.00000E+000	1.90000E-001	9.77092E-004	5	..........a	-327.66
	323	64.8	1.99959E-001	1.41243E-007	0.00000E+000	2.00000E-001	9.70892E-004	5	..........a	-327.66
	324	65	2.09928E-001	1.44810E-007	0.00000E+000	2.10000E-001	9.83792E-004	5	..........a	-327.66
	325	65.2	2.19961E-001	1.47706E-007	0.00000E+000	2.20000E-001	9.59892E-004	5	..........a	-327.66
	326	65.4	2.29980E-001	1.49911E-007	0.00000E+000	2.30000E-001	9.86092E-004	5	..........a	-327.66
	327	65.6	2.39952E-001	1.51724E-007	0.00000E+000	2.40000E-001	9.58892E-004	5	..........a	-327.66
	328	65.8	2.49957E-001	1.53091E-007	0.00000E+000	2.50000E-001	9.70392E-004	5	..........a	-327.66
	329	66	2.59959E-001	1.54933E-007	0.00000E+000	2.60000E-001	9.82292E-004	5	..........a	-327.66
	330	66.2	2.70030E-001	1.56581E-007	0.00000E+000	2.70000E-001	9.87392E-004	5	..........a	-327.66
	331	66.4	2.79921E-001	1.58484E-007	0.00000E+000	2.80000E-001	9.79192E-004	5	..........a	-327.66
	332	66.6	2.89960E-001	1.60656E-007	0.00000E+000	2.90000E-001	9.79692E-004	5	..........a	-327.66
	333	66.8	2.99947E-001	1.63012E-007	0.00000E+000	3.00000E-001	9.67392E-004	5	..........a	-327.66
	334	67	3.09970E-001	1.65721E-007	0.00000E+000	3.10000E-001	9.88092E-004	5	..........a	-327.66
	335	67.2	3.19933E-001	1.68649E-007	0.00000E+000	3.20000E-001	9.66492E-004	5	..........a	-327.66
	336	67.4	3.29918E-001	1.71798E-007	0.00000E+000	3.30000E-001	9.66492E-004	5	..........a	-327.66
	337	67.6	3.39962E-001	1.74984E-007	0.00000E+000	3.40000E-001	9.63792E-004	5	..........a	-327.66
	338	67.8	3.49969E-001	1.78315E-007	0.00000E+000	3.50000E-001	9.69692E-004	5	..........a	-327.66
	339	68	3.59917E-001	1.81765E-007	0.00000E+000	3.60000E-001	9.70292E-004	5	..........a	-327.66
	340	68.2	3.69934E-001	1.85306E-007	0.00000E+000	3.70000E-001	9.80592E-004	5	..........a	-327.66
	341	68.4	3.79935E-001	1.88883E-007	0.00000E+000	3.80000E-001	9.66792E-004	5	..........a	-327.66
	342	68.6	3.89973E-001	1.92478E-007	0.00000E+000	3.90000E-001	9.65992E-004	5	..........a	-327.66
	343	68.8	3.99924E-001	1.96200E-007	0.00000E+000	4.00000E-001	9.55592E-004	5	..........a	-327.66
	344	69	4.09920E-001	1.99821E-007	0.00000E+000	4.10000E-001	9.92292E-004	5	..........a	-327.66
	345	69.2	4.19897E-001	2.03537E-007	0.00000E+000	4.20000E-001	9.60092E-004	5	..........a	-327.66
	346	69.4	4.29944E-001	2.07379E-007	0.00000E+000	4.30000E-001	9.96392E-004	5	..........a	-327.66
	347	69.6	4.39878E-001	2.11209E-007	0.00000E+000	4.40000E-001	9.67792E-004	5	..........a	-327.66
	348	69.8	4.49896E-001	2.15108E-007	0.00000E+000	4.50000E-001	9.70192E-004	5	..........a	-327.66
	349	70	4.59880E-001	2.19068E-007	0.00000E+000	4.60000E-001	9.68692E-004	5	..........a	-327.66
	350	70.2	4.69937E-001	2.23036E-007	0.00000E+000	4.70000E-001	9.73492E-004	5	..........a	-327.66
	351	70.4	4.79860E-001	2.26970E-007	0.00000E+000	4.80000E-001	9.89192E-004	5	..........a	-327.66
	352	70.6	4.89880E-001	2.30996E-007	0.00000E+000	4.90000E-001	9.84292E-004	5	..........a	-327.66
	353	70.8	4.99896E-001	2.35059E-007	0.00000E+000	5.00000E-001	9.83192E-004	5	..........a	-327.66
	354	71	5.09943E-001	2.39177E-007	0.00000E+000	5.10000E-001	9.86292E-004	5	..........a	-327.66
[...]
	922	184.6	5.89957E-001	2.36964E-007	0.00000E+000	5.90000E-001	9.79592E-004	5	..........a	-327.66
	923	184.8	5.99859E-001	2.41346E-007	0.00000E+000	6.00000E-001	9.81892E-004	5	..........a	-327.66
	924	185	6.09881E-001	2.45870E-007	0.00000E+000	6.10000E-001	9.95892E-004	5	..........a	-327.66
	925	185.2	6.19839E-001	2.50799E-007	0.00000E+000	6.20000E-001	9.89492E-004	5	..........a	-327.66
	926	185.4	6.29941E-001	2.55924E-007	0.00000E+000	6.30000E-001	9.81592E-004	5	..........a	-327.66
	927	185.6	6.39820E-001	2.61358E-007	0.00000E+000	6.40000E-001	9.92692E-004	5	..........a	-327.66
	928	185.8	6.49846E-001	2.67098E-007	0.00000E+000	6.50000E-001	9.83192E-004	5	..........a	-327.66
	929	186	6.59843E-001	2.73239E-007	0.00000E+000	6.60000E-001	9.82292E-004	5	..........a	-327.66
	930	186.2	6.69904E-001	2.79701E-007	0.00000E+000	6.70000E-001	9.89692E-004	5	..........a	-327.66
	931	186.4	6.79863E-001	2.86555E-007	0.00000E+000	6.80000E-001	9.88292E-004	5	..........a	-327.66
	932	186.6	6.89820E-001	2.93930E-007	0.00000E+000	6.90000E-001	9.82592E-004	5	..........a	-327.66
	933	186.8	6.99816E-001	3.01778E-007	0.00000E+000	7.00000E-001	9.77692E-004	5	..........a	-327.66
	934	187	7.09921E-001	3.10140E-007	0.00000E+000	7.10000E-001	9.81492E-004	5	..........a	-327.66
	935	187.2	7.19818E-001	3.19023E-007	0.00000E+000	7.20000E-001	9.71592E-004	5	..........a	-327.66
	936	187.4	7.29803E-001	3.28588E-007	0.00000E+000	7.30000E-001	9.80492E-004	5	..........a	-327.66
	937	187.6	7.39811E-001	3.38974E-007	0.00000E+000	7.40000E-001	9.78992E-004	5	..........a	-327.66
	938	187.8	7.49871E-001	3.50299E-007	0.00000E+000	7.50000E-001	9.73092E-004	5	..........a	-327.66
	939	188	7.59791E-001	3.62664E-007	0.00000E+000	7.60000E-001	9.86492E-004	5	..........a	-327.66
	940	188.2	7.69773E-001	3.76366E-007	0.00000E+000	7.70000E-001	9.99592E-004	5	..........a	-327.66
	941	188.4	7.79780E-001	3.92156E-007	0.00000E+000	7.80000E-001	9.76592E-004	5	..........a	-327.66
	942	188.6	7.89875E-001	4.10750E-007	0.00000E+000	7.90000E-001	9.75792E-004	5	..........a	-327.66
	943	188.8	7.99751E-001	4.31843E-007	0.00000E+000	8.00000E-001	9.86392E-004	5	..........a	-327.66
	944	189	7.89892E-001	3.63373E-007	0.00000E+000	7.90000E-001	9.87692E-004	5	..........a	-327.66
	945	189.2	7.79807E-001	3.17055E-007	0.00000E+000	7.80000E-001	9.57092E-004	5	..........a	-327.66
	946	189.4	7.69867E-001	2.82814E-007	0.00000E+000	7.70000E-001	9.87792E-004	5	..........a	-327.66
	947	189.6	7.59848E-001	2.56201E-007	0.00000E+000	7.60000E-001	9.83692E-004	5	..........a	-327.66
	948	189.8	7.49920E-001	2.34744E-007	0.00000E+000	7.50000E-001	9.71292E-004	5	..........a	-327.66
	949	190	7.39872E-001	2.17012E-007	0.00000E+000	7.40000E-001	9.87592E-004	5	..........a	-327.66
	950	190.2	7.29882E-001	2.01833E-007	0.00000E+000	7.30000E-001	9.91592E-004	5	..........a	-327.66
	951	190.4	7.19868E-001	1.88746E-007	0.00000E+000	7.20000E-001	9.98192E-004	5	..........a	-327.66
	952	190.6	7.09941E-001	1.77151E-007	0.00000E+000	7.10000E-001	9.89892E-004	5	..........a	-327.66
	953	190.8	6.99875E-001	1.66774E-007	0.00000E+000	7.00000E-001	9.86292E-004	5	..........a	-327.66
	954	191	6.89904E-001	1.56881E-007	0.00000E+000	6.90000E-001	9.73792E-004	5	..........a	-327.66
	955	191.2	6.79913E-001	1.47617E-007	0.00000E+000	6.80000E-001	9.71192E-004	5	..........a	-327.66
	956	191.4	6.69952E-001	1.39777E-007	0.00000E+000	6.70000E-001	9.79492E-004	5	..........a	-327.66
	957	191.6	6.59905E-001	1.32436E-007	0.00000E+000	6.60000E-001	9.66592E-004	5	..........a	-327.66
	958	191.8	6.49906E-001	1.25464E-007	0.00000E+000	6.50000E-001	9.79692E-004	5	..........a	-327.66
	959	192	6.39896E-001	1.18837E-007	0.00000E+000	6.40000E-001	9.93192E-004	5	..........a	-327.66
	960	192.2	6.30018E-001	1.12752E-007	0.00000E+000	6.30000E-001	9.69892E-004	5	..........a	-327.66
	961	192.4	6.19914E-001	1.07181E-007	0.00000E+000	6.20000E-001	1.00079E-003	5	..........a	-327.66
	962	192.6	6.09941E-001	1.01956E-007	0.00000E+000	6.10000E-001	9.79592E-004	5	..........a	-327.66
	963	192.8	5.99952E-001	9.70769E-008	0.00000E+000	6.00000E-001	9.84992E-004	5	..........a	-327.66
	964	193	5.90006E-001	9.23707E-008	0.00000E+000	5.90000E-001	9.92292E-004	5	..........a	-327.66
	965	193.2	5.79985E-001	8.80704E-008	0.00000E+000	5.80000E-001	9.69492E-004	5	..........a	-327.66
	966	193.4	5.69931E-001	8.44347E-008	0.00000E+000	5.70000E-001	9.96092E-004	5	..........a	-327.66
	967	193.6	5.59935E-001	8.11020E-008	0.00000E+000	5.60000E-001	9.85492E-004	5	..........a	-327.66
	968	193.8	5.50018E-001	7.80966E-008	0.00000E+000	5.50000E-001	9.84892E-004	5	..........a	-327.66
	969	194	5.39976E-001	7.49371E-008	0.00000E+000	5.40000E-001	9.83192E-004	5	..........a	-327.66
	970	194.2	5.29954E-001	7.17312E-008	0.00000E+000	5.30000E-001	9.86592E-004	5	..........a	-327.66
	971	194.4	5.19958E-001	6.85833E-008	0.00000E+000	5.20000E-001	9.89392E-004	5	..........a	-327.66
	972	194.6	5.09982E-001	6.56002E-008	0.00000E+000	5.10000E-001	9.75492E-004	5	..........a	-327.66
	973	194.8	5.00047E-001	6.25191E-008	0.00000E+000	5.00000E-001	9.75392E-004	5	..........a	-327.66
	974	195	4.89950E-001	5.95745E-008	0.00000E+000	4.90000E-001	9.88092E-004	5	..........a	-327.66
	975	195.2	4.79936E-001	5.66638E-008	0.00000E+000	4.80000E-001	9.89492E-004	5	..........a	-327.66
	976	195.4	4.70019E-001	5.36607E-008	0.00000E+000	4.70000E-001	9.89992E-004	5	..........a	-327.66
	977	195.6	4.60008E-001	5.06480E-008	0.00000E+000	4.60000E-001	9.75792E-004	5	..........a	-327.66
	978	195.8	4.49822E-001	4.75409E-008	0.00000E+000	4.50000E-001	9.72692E-004	5	..........a	-327.66
	979	196	4.39940E-001	4.45252E-008	0.00000E+000	4.40000E-001	9.98992E-004	5	..........a	-327.66
	980	196.2	4.29998E-001	4.14074E-008	0.00000E+000	4.30000E-001	1.00899E-003	5	..........a	-327.66
	981	196.4	4.20015E-001	3.82989E-008	0.00000E+000	4.20000E-001	9.98692E-004	5	..........a	-327.66
	982	196.6	4.09989E-001	3.52153E-008	0.00000E+000	4.10000E-001	9.80892E-004	5	..........a	-327.66
	983	196.8	4.00026E-001	3.21179E-008	0.00000E+000	4.00000E-001	9.83192E-004	5	..........a	-327.66
	984	197	3.90034E-001	2.90186E-008	0.00000E+000	3.90000E-001	1.00349E-003	5	..........a	-327.66
	985	197.2	3.80075E-001	2.59567E-008	0.00000E+000	3.80000E-001	9.66492E-004	5	..........a	-327.66
	986	197.4	3.70028E-001	2.28961E-008	0.00000E+000	3.70000E-001	9.82092E-004	5	..........a	-327.66
	987	197.6	3.59991E-001	1.98591E-008	0.00000E+000	3.60000E-001	9.99292E-004	5	..........a	-327.66
	988	197.8	3.50019E-001	1.68187E-008	0.00000E+000	3.50000E-001	9.93292E-004	5	..........a	-327.66
	989	198	3.40067E-001	1.38386E-008	0.00000E+000	3.40000E-001	9.74692E-004	5	..........a	-327.66
	990	198.2	3.30014E-001	1.09239E-008	0.00000E+000	3.30000E-001	9.78992E-004	5	..........a	-327.66
	991	198.4	3.20037E-001	8.07973E-009	0.00000E+000	3.20000E-001	9.94592E-004	5	..........a	-327.66
	992	198.6	3.10029E-001	5.29144E-009	0.00000E+000	3.10000E-001	9.75692E-004	5	..........a	-327.66
	993	198.8	3.00079E-001	2.73635E-009	0.00000E+000	3.00000E-001	9.67992E-004	5	..........a	-327.66
	994	199	2.90020E-001	1.29761E-010	0.00000E+000	2.90000E-001	9.83992E-004	5	..........a	-327.66
	995	199.2	2.80001E-001	-2.27625E-009	0.00000E+000	2.80000E-001	9.64292E-004	5	..........a	-327.66
	996	199.4	2.70120E-001	-4.49588E-009	0.00000E+000	2.70000E-001	9.70292E-004	5	..........a	-327.66
	997	199.6	2.60069E-001	-6.64135E-009	0.00000E+000	2.60000E-001	9.81392E-004	5	..........a	-327.66
	998	199.8	2.50030E-001	-8.73986E-009	0.00000E+000	2.50000E-001	9.76192E-004	5	..........a	-327.66
	999	200	2.40060E-001	-1.07194E-008	0.00000E+000	2.40000E-001	9.77992E-004	5	..........a	-327.66
	1000	200.2	2.30027E-001	-1.26605E-008	0.00000E+000	2.30000E-001	9.89392E-004	5	..........a	-327.66
	1001	200.4	2.20067E-001	-1.46100E-008	0.00000E+000	2.20000E-001	9.64592E-004	5	..........a	-327.66
	1002	200.6	2.10034E-001	-1.66162E-008	0.00000E+000	2.10000E-001	9.73192E-004	5	..........a	-327.66
	1003	200.8	2.00067E-001	-1.86250E-008	0.00000E+000	2.00000E-001	9.87892E-004	5	..........a	-327.66
	1004	201	1.90124E-001	-2.07817E-008	0.00000E+000	1.90000E-001	9.72292E-004	5	..........a	-327.66
	1005	201.2	1.80128E-001	-2.28425E-008	0.00000E+000	1.80000E-001	9.70192E-004	5	..........a	-327.66
	1006	201.4	1.70113E-001	-2.49165E-008	0.00000E+000	1.70000E-001	9.73792E-004	5	..........a	-327.66
	1007	201.6	1.60067E-001	-2.69869E-008	0.00000E+000	1.60000E-001	9.83292E-004	5	..........a	-327.66
	1008	201.8	1.50093E-001	-2.89612E-008	0.00000E+000	1.50000E-001	9.83792E-004	5	..........a	-327.66
	1009	202	1.40140E-001	-3.09535E-008	0.00000E+000	1.40000E-001	9.80592E-004	5	..........a	-327.66
	1010	202.2	1.30082E-001	-3.28466E-008	0.00000E+000	1.30000E-001	9.92892E-004	5	..........a	-327.66
	1011	202.4	1.20095E-001	-3.47881E-008	0.00000E+000	1.20000E-001	9.83992E-004	5	..........a	-327.66
	1012	202.6	1.10123E-001	-3.65712E-008	0.00000E+000	1.10000E-001	9.81092E-004	5	..........a	-327.66
	1013	202.8	1.00164E-001	-3.83187E-008	0.00000E+000	1.00000E-001	9.81992E-004	5	..........a	-327.66
	1014	203	9.01197E-002	-3.99636E-008	0.00000E+000	9.00000E-002	9.75092E-004	5	..........a	-327.66
	1015	203.2	8.00754E-002	-4.14456E-008	0.00000E+000	8.00000E-002	9.86192E-004	5	..........a	-327.66
	1016	203.4	7.00679E-002	-4.28225E-008	0.00000E+000	7.00000E-002	9.89092E-004	5	..........a	-327.66
	1017	203.6	6.01399E-002	-4.39766E-008	0.00000E+000	6.00000E-002	9.68692E-004	5	..........a	-327.66
	1018	203.8	5.01010E-002	-4.51253E-008	0.00000E+000	5.00000E-002	9.70492E-004	5	..........a	-327.66
	1019	204	4.01332E-002	-4.62953E-008	0.00000E+000	4.00000E-002	9.70392E-004	5	..........a	-327.66
	1020	204.2	3.00782E-002	-4.74346E-008	0.00000E+000	3.00000E-002	9.83192E-004	5	..........a	-327.66
	1021	204.4	2.01970E-002	-4.90787E-008	0.00000E+000	2.00000E-002	9.60192E-004	5	..........a	-327.66
	1022	204.6	1.01425E-002	-5.08728E-008	0.00000E+000	1.00000E-002	9.68192E-004	5	..........a	-327.66
	1023	204.8	8.32916E-005	-5.18411E-008	0.00000E+000	7.45058E-009	9.79992E-004	5	..........a	-327.66
	1024	205	-9.87356E-003	-5.29164E-008	0.00000E+000	-1.00000E-002	9.65092E-004	5	..........a	-327.66
	1025	205.2	-1.98726E-002	-5.33638E-008	0.00000E+000	-2.00000E-002	9.67592E-004	5	..........a	-327.66
	1026	205.4	-2.98923E-002	-5.46720E-008	0.00000E+000	-3.00000E-002	9.67992E-004	5	..........a	-327.66
	1027	205.6	-3.98663E-002	-5.59302E-008	0.00000E+000	-4.00000E-002	9.61592E-004	5	..........a	-327.66
	1028	205.8	-4.98791E-002	-5.69720E-008	0.00000E+000	-5.00000E-002	9.82192E-004	5	..........a	-327.66
	1029	206	-5.98377E-002	-5.84301E-008	0.00000E+000	-6.00000E-002	9.56892E-004	5	..........a	-327.66
	1030	206.2	-6.98859E-002	-5.96573E-008	0.00000E+000	-7.00000E-002	9.75192E-004	5	..........a	-327.66
	1031	206.4	-7.98958E-002	-6.13058E-008	0.00000E+000	-8.00000E-002	9.76892E-004	5	..........a	-327.66
	1032	206.6	-8.98713E-002	-6.29067E-008	0.00000E+000	-9.00000E-002	9.89192E-004	5	..........a	-327.66
	1033	206.8	-9.98500E-002	-6.44162E-008	0.00000E+000	-1.00000E-001	9.85292E-004	5	..........a	-327.66
	1034	207	-1.09900E-001	-6.60019E-008	0.00000E+000	-1.10000E-001	9.66792E-004	5	..........a	-327.66
	1035	207.2	-1.19902E-001	-6.78243E-008	0.00000E+000	-1.20000E-001	9.71092E-004	5	..........a	-327.66
	1036	207.4	-1.29922E-001	-6.98588E-008	0.00000E+000	-1.30000E-001	9.80492E-004	5	..........a	-327.66
	1037	207.6	-1.39880E-001	-7.16814E-008	0.00000E+000	-1.40000E-001	9.80092E-004	5	..........a	-327.66
	1038	207.8	-1.49929E-001	-7.34592E-008	0.00000E+000	-1.50000E-001	9.75292E-004	5	..........a	-327.66
	1039	208	-1.59919E-001	-7.56948E-008	0.00000E+000	-1.60000E-001	9.75392E-004	5	..........a	-327.66
	1040	208.2	-1.69864E-001	-7.77345E-008	0.00000E+000	-1.70000E-001	9.65292E-004	5	..........a	-327.66
	1041	208.4	-1.79839E-001	-8.00289E-008	0.00000E+000	-1.80000E-001	9.88192E-004	5	..........a	-327.66
	1042	208.6	-1.89911E-001	-8.24680E-008	0.00000E+000	-1.90000E-001	9.60992E-004	5	..........a	-327.66
	1043	208.8	-1.99886E-001	-8.50184E-008	0.00000E+000	-2.00000E-001	9.73792E-004	5	..........a	-327.66
	1044	209	-2.09861E-001	-8.74584E-008	0.00000E+000	-2.10000E-001	9.82392E-004	5	..........a	-327.66
	1045	209.2	-2.19832E-001	-8.99153E-008	0.00000E+000	-2.20000E-001	9.72392E-004	5	..........a	-327.66
	1046	209.4	-2.29870E-001	-9.23765E-008	0.00000E+000	-2.30000E-001	9.76592E-004	5	..........a	-327.66
	1047	209.6	-2.39849E-001	-9.47260E-008	0.00000E+000	-2.40000E-001	9.84292E-004	5	..........a	-327.66
	1048	209.8	-2.49842E-001	-9.71170E-008	0.00000E+000	-2.50000E-001	9.74392E-004	5	..........a	-327.66
	1049	210	-2.59765E-001	-9.93045E-008	0.00000E+000	-2.60000E-001	9.62292E-004	5	..........a	-327.66
	1050	210.2	-2.69833E-001	-1.01638E-007	0.00000E+000	-2.70000E-001	9.61592E-004	5	..........a	-327.66
	1051	210.4	-2.79869E-001	-1.03920E-007	0.00000E+000	-2.80000E-001	9.68092E-004	5	..........a	-327.66
	1052	210.6	-2.89841E-001	-1.06167E-007	0.00000E+000	-2.90000E-001	9.75392E-004	5	..........a	-327.66
	1053	210.8	-2.99810E-001	-1.08469E-007	0.00000E+000	-3.00000E-001	9.60392E-004	5	..........a	-327.66
	1054	211	-3.09851E-001	-1.11332E-007	0.00000E+000	-3.10000E-001	9.90292E-004	5	..........a	-327.66
	1055	211.2	-3.19813E-001	-1.12981E-007	0.00000E+000	-3.20000E-001	9.79292E-004	5	..........a	-327.66
	1056	211.4	-3.29855E-001	-1.15105E-007	0.00000E+000	-3.30000E-001	9.85192E-004	5	..........a	-327.66
	1057	211.6	-3.39741E-001	-1.17200E-007	0.00000E+000	-3.40000E-001	9.84892E-004	5	..........a	-327.66
	1058	211.8	-3.49842E-001	-1.19181E-007	0.00000E+000	-3.50000E-001	9.82392E-004	5	..........a	-327.66
	1059	212	-3.59857E-001	-1.21324E-007	0.00000E+000	-3.60000E-001	9.92392E-004	5	..........a	-327.66
	1060	212.2	-3.69820E-001	-1.23079E-007	0.00000E+000	-3.70000E-001	9.77892E-004	5	..........a	-327.66
	1061	212.4	-3.79784E-001	-1.25041E-007	0.00000E+000	-3.80000E-001	9.75692E-004	5	..........a	-327.66
	1062	212.6	-3.89847E-001	-1.26868E-007	0.00000E+000	-3.90000E-001	9.87992E-004	5	..........a	-327.66
	1063	212.8	-3.99814E-001	-1.28669E-007	0.00000E+000	-4.00000E-001	9.92792E-004	5	..........a	-327.66
	1064	213	-4.09826E-001	-1.30730E-007	0.00000E+000	-4.10000E-001	9.98392E-004	5	..........a	-327.66
	1065	213.2	-4.19744E-001	-1.32487E-007	0.00000E+000	-4.20000E-001	9.73392E-004	5	..........a	-327.66
	1066	213.4	-4.29816E-001	-1.34328E-007	0.00000E+000	-4.30000E-001	9.78692E-004	5	..........a	-327.66
	1067	213.6	-4.39793E-001	-1.36180E-007	0.00000E+000	-4.40000E-001	9.75492E-004	5	..........a	-327.66
	1068	213.8	-4.49816E-001	-1.38189E-007	0.00000E+000	-4.50000E-001	9.81692E-004	5	..........a	-327.66
	1069	214	-4.59745E-001	-1.39978E-007	0.00000E+000	-4.60000E-001	9.74292E-004	5	..........a	-327.66
	1070	214.2	-4.69810E-001	-1.41886E-007	0.00000E+000	-4.70000E-001	9.70692E-004	5	..........a	-327.66
	1071	214.4	-4.79800E-001	-1.43738E-007	0.00000E+000	-4.80000E-001	9.81992E-004	5	..........a	-327.66
	1072	214.6	-4.89796E-001	-1.45683E-007	0.00000E+000	-4.90000E-001	9.84692E-004	5	..........a	-327.66
	1073	214.8	-4.99780E-001	-1.47426E-007	0.00000E+000	-5.00000E-001	9.84792E-004	5	..........a	-327.66
	1074	215	-5.09802E-001	-1.49286E-007	0.00000E+000	-5.10000E-001	9.87492E-004	5	..........a	-327.66
	1075	215.2	-5.19833E-001	-1.51210E-007	0.00000E+000	-5.20000E-001	9.74692E-004	5	..........a	-327.66
	1076	215.4	-5.29807E-001	-1.53109E-007	0.00000E+000	-5.30000E-001	9.76392E-004	5	..........a	-327.66
	1077	215.6	-5.39727E-001	-1.55038E-007	0.00000E+000	-5.40000E-001	9.64092E-004	5	..........a	-327.66
	1078	215.8	-5.49810E-001	-1.56996E-007	0.00000E+000	-5.50000E-001	9.84092E-004	5	..........a	-327.66
	1079	216	-5.59818E-001	-1.58907E-007	0.00000E+000	-5.60000E-001	9.79292E-004	5	..........a	-327.66
	1080	216.2	-5.69822E-001	-1.61044E-007	0.00000E+000	-5.70000E-001	9.98292E-004	5	..........a	-327.66
	1081	216.4	-5.79758E-001	-1.62978E-007	0.00000E+000	-5.80000E-001	9.61292E-004	5	..........a	-327.66
	1082	216.6	-5.89804E-001	-1.65319E-007	0.00000E+000	-5.90000E-001	9.64792E-004	5	..........a	-327.66
	1083	216.8	-5.99688E-001	-1.67625E-007	0.00000E+000	-6.00000E-001	9.78792E-004	5	..........a	-327.66
CURVE5	TABLE
	Pt	T	Vf	Im	Vu	Sig	Ach	IERange	Over	Temp
	#	s	V vs. Ref.	A	V	V	V	#	bits	deg C
	1084	217	-5.89812E-001	-1.41039E-007	0.00000E+000	-5.90000E-001	9.68592E-004	5	..........a	-327.66
	1085	217.2	-5.79784E-001	-1.24161E-007	0.00000E+000	-5.80000E-001	9.80392E-004	5	..........a	-327.66
	1086	217.4	-5.69818E-001	-1.11135E-007	0.00000E+000	-5.70000E-001	9.72192E-004	5	..........a	-327.66
	1087	217.6	-5.59838E-001	-1.00663E-007	0.00000E+000	-5.60000E-001	9.75692E-004	5	..........a	-327.66
	1088	217.8	-5.49839E-001	-9.17208E-008	0.00000E+000	-5.50000E-001	9.78792E-004	5	..........a	-327.66
	1089	218	-5.39764E-001	-8.40451E-008	0.00000E+000	-5.40000E-001	9.73592E-004	5	..........a	-327.66
	1090	218.2	-5.29825E-001	-7.72364E-008	0.00000E+000	-5.30000E-001	9.81192E-004	5	..........a	-327.66
	1091	218.4	-5.19811E-001	-7.12234E-008	0.00000E+000	-5.20000E-001	9.67192E-004	5	..........a	-327.66
	1092	218.6	-5.09832E-001	-6.57692E-008	0.00000E+000	-5.10000E-001	9.78492E-004	5	..........a	-327.66
	1093	218.8	-4.99812E-001	-6.08010E-008	0.00000E+000	-5.00000E-001	9.57392E-004	5	..........a	-327.66
	1094	219	-4.89835E-001	-5.62055E-008	0.00000E+000	-4.90000E-001	9.72592E-004	5	..........a	-327.66
	1095	219.2	-4.79828E-001	-5.18607E-008	0.00000E+000	-4.80000E-001	9.67792E-004	5	..........a	-327.66
	1096	219.4	-4.69840E-001	-4.78768E-008	0.00000E+000	-4.70000E-001	9.67292E-004	5	..........a	-327.66
	1097	219.6	-4.59818E-001	-4.40541E-008	0.00000E+000	-4.60000E-001	9.58092E-004	5	..........a	-327.66
	1098	219.8	-4.49840E-001	-4.04240E-008	0.00000E+000	-4.50000E-001	9.75592E-004	5	..........a	-327.66
	1099	220	-4.39869E-001	-3.69260E-008	0.00000E+000	-4.40000E-001	9.70292E-004	5	..........a	-327.66
	1100	220.2	-4.29856E-001	-3.36401E-008	0.00000E+000	-4.30000E-001	9.69392E-004	5	..........a	-327.66
	1101	220.4	-4.19808E-001	-3.05092E-008	0.00000E+000	-4.20000E-001	9.73792E-004	5	..........a	-327.66
	1102	220.6	-4.09886E-001	-2.73563E-008	0.00000E+000	-4.10000E-001	9.76892E-004	5	..........a	-327.66
	1103	220.8	-3.99854E-001	-2.43493E-008	0.00000E+000	-4.00000E-001	9.70292E-004	5	..........a	-327.66
	1104	221	-3.89905E-001	-2.14505E-008	0.00000E+000	-3.90000E-001	9.76492E-004	5	..........a	-327.66
	1105	221.2	-3.79836E-001	-1.85778E-008	0.00000E+000	-3.80000E-001	9.69992E-004	5	..........a	-327.66
	1106	221.4	-3.69841E-001	-1.57717E-008	0.00000E+000	-3.70000E-001	9.67292E-004	5	..........a	-327.66
	1107	221.6	-3.59899E-001	-1.31017E-008	0.00000E+000	-3.60000E-001	9.70092E-004	5	..........a	-327.66
	1108	221.8	-3.49873E-001	-1.04413E-008	0.00000E+000	-3.50000E-001	9.77992E-004	5	..........a	-327.66
	1109	222	-3.39824E-001	-7.79594E-009	0.00000E+000	-3.40000E-001	9.70792E-004	5	..........a	-327.66
	1110	222.2	-3.29876E-001	-5.20925E-009	0.00000E+000	-3.30000E-001	9.73792E-004	5	..........a	-327.66
	1111	222.4	-3.19880E-001	-2.64197E-009	0.00000E+000	-3.20000E-001	9.67392E-004	5	..........a	-327.66
	1112	222.6	-3.09934E-001	-1.59959E-010	0.00000E+000	-3.10000E-001	9.57492E-004	5	..........a	-327.66
	1113	222.8	-2.99889E-001	2.42696E-009	0.00000E+000	-3.00000E-001	9.63392E-004	5	..........a	-327.66
	1114	223	-2.89911E-001	4.91824E-009	0.00000E+000	-2.90000E-001	9.85592E-004	5	..........a	-327.66
	1115	223.2	-2.79941E-001	7.34080E-009	0.00000E+000	-2.80000E-001	9.77092E-004	5	..........a	-327.66
	1116	223.4	-2.69876E-001	9.72785E-009	0.00000E+000	-2.70000E-001	9.83192E-004	5	..........a	-327.66
	1117	223.6	-2.59827E-001	1.20319E-008	0.00000E+000	-2.60000E-001	9.69892E-004	5	..........a	-327.66
	1118	223.8	-2.49902E-001	1.44328E-008	0.00000E+000	-2.50000E-001	9.70392E-004	5	..........a	-327.66
	1119	224	-2.39902E-001	1.67775E-008	0.00000E+000	-2.40000E-001	9.53092E-004	5	..........a	-327.66
	1120	224.2	-2.29956E-001	1.90069E-008	0.00000E+000	-2.30000E-001	9.78692E-004	5	..........a	-327.66