File: data/raw/batch_data/20240509_S_GM0016_HL03_E05_CV50.DTA
EXPLAIN
TAG	CV
TITLE	LABEL	Cyclic Voltammetry	Test &Identifier
DATE	LABEL	5/9/2024	Date
TIME	LABEL	13:25:13	Time
NOTES	NOTES	1	&Notes...

PSTAT	PSTAT	REF600P-43058	Potentiostat
VINIT	POTEN	0.00000E+000	T	Initial &E (V)
VLIMIT1	POTEN	8.00000E-001	F	Scan Limit &1 (V)
VLIMIT2	POTEN	-6.00000E-001	F	Scan Limit &2 (V)
VFINAL	POTEN	0.00000E+000	T	Final &E (V)
SCANRATE	QUANT	4.99999E+001	&Scan Rate (mV/s)
STEPSIZE	QUANT	1.00000E+001	St&ep Size (mV)
CYCLES	IQUANT	4	C&ycles (#)
IMODE	SELECTOR	0	I/E Range &Mode
IRANGE	QUANT	1.00000E-005	&Max Current (mA)
AREA	QUANT	1.00000E+000	Electrode &Area (cm^2)
ELECTRODETYPE	SELECTOR	0	Electrode Type
STRIPPING	TOGGLE	F	Used for Stripping
POLARITY	TOGGLE	F	Signal Polarity
CONDIT	TWOPARAM	F	1.50000E+001	0.00000E+000	Conditionin&g	Time(s)	E(V)
DELAY	TWOPARAM	T	1.00000E+001	0.00000E+000	Init. De&lay	Time(s)	Stab.(mV/s)
EQDELAY	QUANT	1.00000E+001	Equil. &Time (s)
IRCOMP	SELECTOR	0	IRCom&p
PFCOR	QUANT	5.00000E+001	PF Corr. (ohm)
SAMPLINGMODE	SELECTOR	1	Sampling &Mode
OCVCURVE	TABLE	39
	Pt	T	Vf	Vm	Ach	Over	Temp
	#	s	V vs. Ref.	V	V	bits	deg C
	0	0.258333	-9.63987E-002	-9.63987E-002	2.51459E-004	..........a	-327.66
	1	0.516667	-9.64029E-002	-9.66170E-002	2.51192E-004	..........a	-327.66
	2	0.775	-9.64286E-002	-9.68300E-002	2.35792E-004	..........a	-327.66
	3	1.03333	-9.65021E-002	-9.70517E-002	2.51726E-004	..........a	-327.66
	4	1.29167	-9.66359E-002	-9.72689E-002	2.36059E-004	..........a	-327.66
	5	1.55	-9.68181E-002	-9.74715E-002	2.48726E-004	..........a	-327.66
	6	1.80833	-9.70260E-002	-9.76828E-002	2.54126E-004	..........a	-327.66
	7	2.06667	-9.72409E-002	-9.78857E-002	2.56126E-004	..........a	-327.66
	8	2.325	-9.74541E-002	-9.80928E-002	2.51326E-004	..........a	-327.66
	9	2.58333	-9.76635E-002	-9.82881E-002	2.42326E-004	..........a	-327.66
	10	2.84167	-9.78699E-002	-9.85053E-002	2.48859E-004	..........a	-327.66
	11	3.1	-9.80745E-002	-9.86962E-002	2.35859E-004	..........a	-327.66
	12	3.35833	-9.82782E-002	-9.88946E-002	2.51059E-004	..........a	-327.66
	13	3.61667	-9.84806E-002	-9.90950E-002	2.44326E-004	..........a	-327.66
	14	3.875	-9.86812E-002	-9.92931E-002	2.66192E-004	..........a	-327.66
	15	4.13333	-9.88805E-002	-9.94942E-002	2.56792E-004	..........a	-327.66
	16	4.39167	-9.90794E-002	-9.96893E-002	2.56926E-004	..........a	-327.66
	17	4.65	-9.92779E-002	-9.98728E-002	2.50126E-004	..........a	-327.66
	18	4.90833	-9.94748E-002	-1.00064E-001	2.47726E-004	..........a	-327.66
	19	5.16667	-9.96687E-002	-1.00254E-001	2.64592E-004	..........a	-327.66
	20	5.425	-9.98598E-002	-1.00435E-001	2.51992E-004	..........a	-327.66
	21	5.68333	-1.00049E-001	-1.00621E-001	2.42992E-004	..........a	-327.66
	22	5.94167	-1.00236E-001	-1.00806E-001	2.47992E-004	..........a	-327.66
	23	6.2	-1.00422E-001	-1.00974E-001	2.62192E-004	..........a	-327.66
	24	6.45833	-1.00605E-001	-1.01157E-001	2.56126E-004	..........a	-327.66
	25	6.71667	-1.00786E-001	-1.01333E-001	2.47992E-004	..........a	-327.66
	26	6.975	-1.00965E-001	-1.01513E-001	2.41792E-004	..........a	-327.66
	27	7.23333	-1.01142E-001	-1.01690E-001	2.53592E-004	..........a	-327.66
	28	7.49167	-1.01320E-001	-1.01860E-001	2.47926E-004	..........a	-327.66
	29	7.75	-1.01497E-001	-1.02007E-001	2.50192E-004	..........a	-327.66
	30	8.00833	-1.01669E-001	-1.02147E-001	2.44259E-004	..........a	-327.66
	31	8.26667	-1.01834E-001	-1.02294E-001	2.35392E-004	..........a	-327.66
	32	8.525	-1.01990E-001	-1.02454E-001	2.39392E-004	..........a	-327.66
	33	8.78333	-1.02140E-001	-1.02603E-001	2.51792E-004	..........a	-327.66
	34	9.04167	-1.02290E-001	-1.02763E-001	2.41459E-004	..........a	-327.66
	35	9.3	-1.02441E-001	-1.02921E-001	2.46526E-004	..........a	-327.66
	36	9.5583	-1.02595E-001	-1.03083E-001	2.48259E-004	..........a	-327.66
	37	9.8167	-1.02752E-001	-1.03247E-001	2.42459E-004	..........a	-327.66
	38	10.075	-1.02910E-001	-1.03403E-001	2.56126E-004	..........a	-327.66
EOC	QUANT	-0.1029105	Open Circuit (V)
PSTATMODEL	IQUANT	7	Pstat Model
PSTATSECTION	LABEL	REF600P-43058	Pstat Section
PSTATSERIALNO	LABEL	43058	Pstat Serial Number
CTRLMODE	IQUANT	1	Control Mode
ELECTROMETER	IQUANT	0	RE=0 or CS=1
IESTAB	IQUANT	2	I/E Stability
CASPEED	IQUANT	4	Control Amp Speed
CONVENTION	IQUANT	1	Current Convention
ICHRANGE	IQUANT	2	Ich Range
ICHRANGEMODE	TOGGLE	F	Ich Auto Range
ICHOFFSETENABLE	TOGGLE	F	Ich Offset Enable
ICHOFFSET	QUANT	0	Ich Offset (V)
ICHFILTER	IQUANT	2	Ich Filter
VCHRANGE	IQUANT	2	Vch Range
VCHRANGEMODE	TOGGLE	F	Vch Auto Range
VCHOFFSETENABLE	TOGGLE	F	Vch Offset Enable
VCHOFFSET	QUANT	0	Vch Offset (V)
VCHFILTER	IQUANT	2	Vch Filter
ACHRANGE	IQUANT	2	Ach Range
ACHOFFSETENABLE	TOGGLE	F	Ach Offset Enable
ACHOFFSET	QUANT	0	Ach Offset (V)
ACHFILTER	IQUANT	1	Ach Filter
IERANGELOWERLIMIT	IQUANT	1	I/E Range Lower Limit
IERANGEMODE	TOGGLE	T	I/E AutoRange
IERANGE	IQUANT	4	I/E Range
POSFEEDENABLE	TOGGLE	F	Positive Feedback IR Comp
POSFEEDRESISTANCE	QUANT	0	Positive Feedback Resistance (ohm)
ACHSELECT	IQUANT	4	Ach Select
SENSECABLEID	IQUANT	7	Sense Cable ID
PWRCABLEID	IQUANT	7	Power Cable ID
DCCALDATE	LABEL	3/22/2024	DC Calibration Date
ACCALDATE	LABEL	3/22/2024	AC Calibration Date
THERMOSELECT	IQUANT	1	Thermo Select
FRAMEWORKVERSION	LABEL	7.8.4	Framework Version
INSTRUMENTVERSION	LABEL	4.42	Instrument Version
CURVE1	TABLE
	Pt	T	Vf	Im	Vu	Sig	Ach	IERange	Over	Temp
	#	s	V vs. Ref.	A	V	V	V	#	bits	deg C
	0	0.2	-1.02838E-001	9.99454E-010	0.00000E+000	-1.02900E-001	1.03949E-003	5	..........a	-327.66
	1	0.4	-9.28530E-002	4.05127E-009	0.00000E+000	-9.29000E-002	1.02099E-003	5	..........a	-327.66
	2	0.6	-8.28234E-002	5.98964E-009	0.00000E+000	-8.29000E-002	1.01399E-003	5	..........a	-327.66
	3	0.8	-7.28297E-002	7.47248E-009	0.00000E+000	-7.29000E-002	1.01869E-003	5	..........a	-327.66
	4	1	-6.27796E-002	8.69852E-009	0.00000E+000	-6.29000E-002	1.01539E-003	5	..........a	-327.66
	5	1.2	-5.28506E-002	9.78261E-009	0.00000E+000	-5.29000E-002	1.01169E-003	5	..........a	-327.66
	6	1.4	-4.28145E-002	1.07524E-008	0.00000E+000	-4.29000E-002	1.00989E-003	5	..........a	-327.66
	7	1.6	-3.28649E-002	1.16489E-008	0.00000E+000	-3.29000E-002	1.02649E-003	5	..........a	-327.66
	8	1.8	-2.28312E-002	1.25413E-008	0.00000E+000	-2.29000E-002	1.03039E-003	5	..........a	-327.66
	9	2	-1.28560E-002	1.33783E-008	0.00000E+000	-1.29000E-002	1.02859E-003	5	..........a	-327.66
	10	2.2	-2.87026E-003	1.41841E-008	0.00000E+000	-2.90000E-003	1.02069E-003	5	..........a	-327.66
	11	2.4	7.19314E-003	1.50182E-008	0.00000E+000	7.10000E-003	1.01829E-003	5	..........a	-327.66
	12	2.6	1.71568E-002	1.58585E-008	0.00000E+000	1.71000E-002	1.02259E-003	5	..........a	-327.66
	13	2.8	2.71352E-002	1.67054E-008	0.00000E+000	2.71000E-002	1.02999E-003	5	..........a	-327.66
	14	3	3.71599E-002	1.75834E-008	0.00000E+000	3.71000E-002	1.03479E-003	5	..........a	-327.66
	15	3.2	4.71883E-002	1.85178E-008	0.00000E+000	4.71000E-002	1.01719E-003	5	..........a	-327.66
	16	3.4	5.71956E-002	1.94483E-008	0.00000E+000	5.71000E-002	1.00089E-003	5	..........a	-327.66
	17	3.6	6.71373E-002	2.04511E-008	0.00000E+000	6.71000E-002	1.00849E-003	5	..........a	-327.66
	18	3.8	7.71041E-002	2.15570E-008	0.00000E+000	7.71000E-002	1.01529E-003	5	..........a	-327.66
	19	4	8.71850E-002	2.27347E-008	0.00000E+000	8.71000E-002	1.00389E-003	5	..........a	-327.66
	20	4.2	9.71742E-002	2.40365E-008	0.00000E+000	9.71000E-002	1.00979E-003	5	..........a	-327.66
	21	4.4	1.07137E-001	2.54681E-008	0.00000E+000	1.07100E-001	1.01759E-003	5	..........a	-327.66
	22	4.6	1.17014E-001	2.70615E-008	0.00000E+000	1.17100E-001	1.00099E-003	5	..........a	-327.66
	23	4.8	1.27160E-001	2.87494E-008	0.00000E+000	1.27100E-001	1.01909E-003	5	..........a	-327.66
	24	5	1.37218E-001	3.06363E-008	0.00000E+000	1.37100E-001	1.01029E-003	5	..........a	-327.66
	25	5.2	1.47132E-001	3.26966E-008	0.00000E+000	1.47100E-001	1.00959E-003	5	..........a	-327.66
	26	5.4	1.57150E-001	3.49734E-008	0.00000E+000	1.57100E-001	1.02269E-003	5	..........a	-327.66
	27	5.6	1.67208E-001	3.74474E-008	0.00000E+000	1.67100E-001	1.00939E-003	5	..........a	-327.66
	28	5.8	1.77163E-001	3.99066E-008	0.00000E+000	1.77100E-001	1.03519E-003	5	..........a	-327.66
	29	6	1.87140E-001	4.25783E-008	0.00000E+000	1.87100E-001	1.01779E-003	5	..........a	-327.66
	30	6.2	1.97125E-001	4.53812E-008	0.00000E+000	1.97100E-001	1.03679E-003	5	..........a	-327.66
	31	6.4	2.07141E-001	4.81848E-008	0.00000E+000	2.07100E-001	1.02949E-003	5	..........a	-327.66
	32	6.6	2.17170E-001	5.07365E-008	0.00000E+000	2.17100E-001	1.02099E-003	5	..........a	-327.66
	33	6.8	2.27097E-001	5.30463E-008	0.00000E+000	2.27100E-001	1.01359E-003	5	..........a	-327.66
	34	7	2.37099E-001	5.52558E-008	0.00000E+000	2.37100E-001	1.02319E-003	5	..........a	-327.66
	35	7.2	2.47130E-001	5.74312E-008	0.00000E+000	2.47100E-001	1.03189E-003	5	..........a	-327.66
	36	7.4	2.57169E-001	5.95943E-008	0.00000E+000	2.57100E-001	1.02939E-003	5	..........a	-327.66
	37	7.6	2.67095E-001	6.17600E-008	0.00000E+000	2.67100E-001	1.00679E-003	5	..........a	-327.66
	38	7.8	2.77048E-001	6.39639E-008	0.00000E+000	2.77100E-001	1.03159E-003	5	..........a	-327.66
	39	8	2.87103E-001	6.61561E-008	0.00000E+000	2.87100E-001	1.02109E-003	5	..........a	-327.66
	40	8.2	2.97183E-001	6.84168E-008	0.00000E+000	2.97100E-001	1.00339E-003	5	..........a	-327.66
	41	8.4	3.07079E-001	7.06048E-008	0.00000E+000	3.07100E-001	1.02149E-003	5	..........a	-327.66
	42	8.6	3.17111E-001	7.28901E-008	0.00000E+000	3.17100E-001	1.01709E-003	5	..........a	-327.66
	43	8.8	3.27107E-001	7.52288E-008	0.00000E+000	3.27100E-001	1.01719E-003	5	..........a	-327.66
	44	9	3.37171E-001	7.75553E-008	0.00000E+000	3.37100E-001	9.94992E-004	5	..........a	-327.66
	45	9.2	3.47098E-001	7.99187E-008	0.00000E+000	3.47100E-001	1.01539E-003	5	..........a	-327.66
	46	9.4	3.57066E-001	8.23497E-008	0.00000E+000	3.57100E-001	1.03409E-003	5	..........a	-327.66
	47	9.6	3.67089E-001	8.48638E-008	0.00000E+000	3.67100E-001	1.00239E-003	5	..........a	-327.66
	48	9.8	3.77152E-001	8.73969E-008	0.00000E+000	3.77100E-001	1.00619E-003	5	..........a	-327.66
	49	10	3.87056E-001	8.99603E-008	0.00000E+000	3.87100E-001	1.01299E-003	5	..........a	-327.66
	50	10.2	3.97121E-001	9.25754E-008	0.00000E+000	3.97100E-001	1.01329E-003	5	..........a	-327.66
	51	10.4	4.07096E-001	9.52135E-008	0.00000E+000	4.07100E-001	1.00479E-003	5	..........a	-327.66
	52	10.6	4.17146E-001	9.78294E-008	0.00000E+000	4.17100E-001	1.02059E-003	5	..........a	-327.66
	53	10.8	4.27020E-001	1.00506E-007	0.00000E+000	4.27100E-001	1.02209E-003	5	..........a	-327.66
	54	11	4.37018E-001	1.03177E-007	0.00000E+000	4.37100E-001	1.01449E-003	5	..........a	-327.66
	55	11.2	4.47057E-001	1.05919E-007	0.00000E+000	4.47100E-001	9.85692E-004	5	..........a	-327.66
	56	11.4	4.57148E-001	1.08615E-007	0.00000E+000	4.57100E-001	1.02939E-003	5	..........a	-327.66
	57	11.6	4.67035E-001	1.11155E-007	0.00000E+000	4.67100E-001	1.00069E-003	5	..........a	-327.66
	58	11.8	4.77046E-001	1.13612E-007	0.00000E+000	4.77100E-001	1.02039E-003	5	..........a	-327.66
	59	12	4.87022E-001	1.15887E-007	0.00000E+000	4.87100E-001	1.04249E-003	5	..........a	-327.66
	60	12.2	4.97094E-001	1.18079E-007	0.00000E+000	4.97100E-001	1.00209E-003	5	..........a	-327.66
	61	12.4	5.07033E-001	1.20269E-007	0.00000E+000	5.07100E-001	9.97092E-004	5	..........a	-327.66
	62	12.6	5.17023E-001	1.22541E-007	0.00000E+000	5.17100E-001	1.01169E-003	5	..........a	-327.66
	63	12.8	5.26948E-001	1.25008E-007	0.00000E+000	5.27100E-001	9.92392E-004	5	..........a	-327.66
	64	13	5.37138E-001	1.27564E-007	0.00000E+000	5.37100E-001	1.02879E-003	5	..........a	-327.66
	65	13.2	5.47045E-001	1.30326E-007	0.00000E+000	5.47100E-001	1.00779E-003	5	..........a	-327.66
	66	13.4	5.57031E-001	1.33210E-007	0.00000E+000	5.57100E-001	1.01219E-003	5	..........a	-327.66
	67	13.6	5.67031E-001	1.36282E-007	0.00000E+000	5.67100E-001	1.03089E-003	5	..........a	-327.66
	68	13.8	5.77150E-001	1.39489E-007	0.00000E+000	5.77100E-001	1.01319E-003	5	..........a	-327.66
	69	14	5.87013E-001	1.42859E-007	0.00000E+000	5.87100E-001	1.00339E-003	5	..........a	-327.66
	70	14.2	5.97015E-001	1.46407E-007	0.00000E+000	5.97100E-001	1.02649E-003	5	..........a	-327.66
	71	14.4	6.07034E-001	1.50115E-007	0.00000E+000	6.07100E-001	1.01419E-003	5	..........a	-327.66
	72	14.6	6.17083E-001	1.53883E-007	0.00000E+000	6.17100E-001	1.04449E-003	5	..........a	-327.66
	73	14.8	6.26996E-001	1.57834E-007	0.00000E+000	6.27100E-001	1.01679E-003	5	..........a	-327.66
	74	15	6.36943E-001	1.61943E-007	0.00000E+000	6.37100E-001	1.00559E-003	5	..........a	-327.66
	75	15.2	6.46984E-001	1.66252E-007	0.00000E+000	6.47100E-001	9.96392E-004	5	..........a	-327.66
	76	15.4	6.57095E-001	1.70744E-007	0.00000E+000	6.57100E-001	1.01409E-003	5	..........a	-327.66
	77	15.6	6.66980E-001	1.75394E-007	0.00000E+000	6.67100E-001	9.93792E-004	5	..........a	-327.66
	78	15.8	6.76989E-001	1.80269E-007	0.00000E+000	6.77100E-001	9.94592E-004	5	..........a	-327.66
	79	16	6.86976E-001	1.85318E-007	0.00000E+000	6.87100E-001	1.00649E-003	5	..........a	-327.66
	80	16.2	6.97043E-001	1.90626E-007	0.00000E+000	6.97100E-001	1.01129E-003	5	..........a	-327.66
	81	16.4	7.06971E-001	1.96183E-007	0.00000E+000	7.07100E-001	1.01409E-003	5	..........a	-327.66
	82	16.6	7.16917E-001	2.01929E-007	0.00000E+000	7.17100E-001	1.00809E-003	5	..........a	-327.66
	83	16.8	7.26979E-001	2.08016E-007	0.00000E+000	7.27100E-001	9.98092E-004	5	..........a	-327.66
	84	17	7.37102E-001	2.14368E-007	0.00000E+000	7.37100E-001	1.01589E-003	5	..........a	-327.66
	85	17.2	7.46965E-001	2.20974E-007	0.00000E+000	7.47100E-001	1.02169E-003	5	..........a	-327.66
	86	17.4	7.57000E-001	2.27960E-007	0.00000E+000	7.57100E-001	1.01019E-003	5	..........a	-327.66
	87	17.6	7.66962E-001	2.35248E-007	0.00000E+000	7.67100E-001	1.00469E-003	5	..........a	-327.66
	88	17.8	7.77002E-001	2.42868E-007	0.00000E+000	7.77100E-001	1.01119E-003	5	..........a	-327.66
	89	18	7.86914E-001	2.50853E-007	0.00000E+000	7.87100E-001	1.02159E-003	5	..........a	-327.66
	90	18.2	7.96897E-001	2.59263E-007	0.00000E+000	7.97100E-001	1.00089E-003	5	..........a	-327.66
	91	18.4	7.86929E-001	2.19084E-007	0.00000E+000	7.87100E-001	1.00989E-003	5	..........a	-327.66
	92	18.6	7.77030E-001	1.92958E-007	0.00000E+000	7.77100E-001	9.94792E-004	5	..........a	-327.66
	93	18.8	7.66987E-001	1.73325E-007	0.00000E+000	7.67100E-001	1.01669E-003	5	..........a	-327.66
	94	19	7.57126E-001	1.57505E-007	0.00000E+000	7.57100E-001	1.01099E-003	5	..........a	-327.66
	95	19.2	7.46997E-001	1.44236E-007	0.00000E+000	7.47100E-001	1.02139E-003	5	..........a	-327.66
	96	19.4	7.37126E-001	1.32814E-007	0.00000E+000	7.37100E-001	1.01039E-003	5	..........a	-327.66
	97	19.6	7.27007E-001	1.22681E-007	0.00000E+000	7.27100E-001	9.95492E-004	5	..........a	-327.66
	98	19.8	7.16977E-001	1.13741E-007	0.00000E+000	7.17100E-001	1.02289E-003	5	..........a	-327.66
	99	20	7.06977E-001	1.05611E-007	0.00000E+000	7.07100E-001	1.01429E-003	5	..........a	-327.66
	100	20.2	6.97096E-001	9.82108E-008	0.00000E+000	6.97100E-001	1.01299E-003	5	..........a	-327.66
	101	20.4	6.87019E-001	9.13917E-008	0.00000E+000	6.87100E-001	1.01029E-003	5	..........a	-327.66
	102	20.6	6.76991E-001	8.51236E-008	0.00000E+000	6.77100E-001	1.00639E-003	5	..........a	-327.66
	103	20.8	6.67015E-001	7.92972E-008	0.00000E+000	6.67100E-001	1.00239E-003	5	..........a	-327.66
	104	21	6.57123E-001	7.38792E-008	0.00000E+000	6.57100E-001	1.01849E-003	5	..........a	-327.66
	105	21.2	6.47040E-001	6.88444E-008	0.00000E+000	6.47100E-001	1.02209E-003	5	..........a	-327.66
	106	21.4	6.36983E-001	6.41355E-008	0.00000E+000	6.37100E-001	1.02359E-003	5	..........a	-327.66
	107	21.6	6.27023E-001	5.96855E-008	0.00000E+000	6.27100E-001	1.01599E-003	5	..........a	-327.66
	108	21.8	6.17141E-001	5.55314E-008	0.00000E+000	6.17100E-001	1.03119E-003	5	..........a	-327.66
	109	22	6.07084E-001	5.15899E-008	0.00000E+000	6.07100E-001	1.02029E-003	5	..........a	-327.66
	110	22.2	5.97062E-001	4.79018E-008	0.00000E+000	5.97100E-001	1.01309E-003	5	..........a	-327.66
	111	22.4	5.87045E-001	4.43625E-008	0.00000E+000	5.87100E-001	9.93392E-004	5	..........a	-327.66
	112	22.6	5.77182E-001	4.09726E-008	0.00000E+000	5.77100E-001	1.02589E-003	5	..........a	-327.66
	113	22.8	5.67086E-001	3.77972E-008	0.00000E+000	5.67100E-001	1.00199E-003	5	..........a	-327.66
	114	23	5.57094E-001	3.47344E-008	0.00000E+000	5.57100E-001	1.00729E-003	5	..........a	-327.66
	115	23.2	5.47093E-001	3.18373E-008	0.00000E+000	5.47100E-001	1.00149E-003	5	..........a	-327.66
	116	23.4	5.37138E-001	2.90605E-008	0.00000E+000	5.37100E-001	1.00549E-003	5	..........a	-327.66
	117	23.6	5.26993E-001	2.63921E-008	0.00000E+000	5.27100E-001	1.01659E-003	5	..........a	-327.66
	118	23.8	5.17051E-001	2.38342E-008	0.00000E+000	5.17100E-001	1.00819E-003	5	..........a	-327.66
	119	24	5.07070E-001	2.13683E-008	0.00000E+000	5.07100E-001	1.01749E-003	5	..........a	-327.66
	120	24.2	4.97158E-001	1.90216E-008	0.00000E+000	4.97100E-001	1.00579E-003	5	..........a	-327.66
	121	24.4	4.87080E-001	1.67367E-008	0.00000E+000	4.87100E-001	1.01209E-003	5	..........a	-327.66
	122	24.6	4.77090E-001	1.45502E-008	0.00000E+000	4.77100E-001	1.01479E-003	5	..........a	-327.66
	123	24.8	4.67071E-001	1.24349E-008	0.00000E+000	4.67100E-001	1.02819E-003	5	..........a	-327.66
	124	25	4.57161E-001	1.04068E-008	0.00000E+000	4.57100E-001	1.01539E-003	5	..........a	-327.66
	125	25.2	4.47118E-001	8.42049E-009	0.00000E+000	4.47100E-001	1.00819E-003	5	..........a	-327.66
	126	25.4	4.37071E-001	6.49411E-009	0.00000E+000	4.37100E-001	1.01389E-003	5	..........a	-327.66
	127	25.6	4.27052E-001	4.64002E-009	0.00000E+000	4.27100E-001	1.00959E-003	5	..........a	-327.66
	128	25.8	4.17163E-001	2.84575E-009	0.00000E+000	4.17100E-001	1.00789E-003	5	..........a	-327.66
	129	26	4.07137E-001	1.10187E-009	0.00000E+000	4.07100E-001	1.01169E-003	5	..........a	-327.66
	130	26.2	3.97135E-001	-6.81709E-010	0.00000E+000	3.97100E-001	1.02159E-003	5	..........a	-327.66
	131	26.4	3.87125E-001	-2.27863E-009	0.00000E+000	3.87100E-001	1.01969E-003	5	..........a	-327.66
	132	26.6	3.77209E-001	-3.89407E-009	0.00000E+000	3.77100E-001	1.02199E-003	5	..........a	-327.66
	133	26.8	3.67152E-001	-5.40251E-009	0.00000E+000	3.67100E-001	9.92192E-004	5	..........a	-327.66
	134	27	3.57134E-001	-6.88785E-009	0.00000E+000	3.57100E-001	1.02369E-003	5	..........a	-327.66
	135	27.2	3.47171E-001	-8.29174E-009	0.00000E+000	3.47100E-001	1.00979E-003	5	..........a	-327.66
	136	27.4	3.37197E-001	-9.66520E-009	0.00000E+000	3.37100E-001	1.00439E-003	5	..........a	-327.66
	137	27.6	3.27165E-001	-1.09678E-008	0.00000E+000	3.27100E-001	1.00999E-003	5	..........a	-327.66
	138	27.8	3.17146E-001	-1.21790E-008	0.00000E+000	3.17100E-001	1.02079E-003	5	..........a	-327.66
	139	28	3.07106E-001	-1.33382E-008	0.00000E+000	3.07100E-001	1.02739E-003	5	..........a	-327.66
	140	28.2	2.97248E-001	-1.44401E-008	0.00000E+000	2.97100E-001	1.01229E-003	5	..........a	-327.66
	141	28.4	2.87144E-001	-1.55076E-008	0.00000E+000	2.87100E-001	1.01869E-003	5	..........a	-327.66
	142	28.6	2.77139E-001	-1.65285E-008	0.00000E+000	2.77100E-001	9.98892E-004	5	..........a	-327.66
	143	28.8	2.67146E-001	-1.74720E-008	0.00000E+000	2.67100E-001	1.00809E-003	5	..........a	-327.66
	144	29	2.57187E-001	-1.83841E-008	0.00000E+000	2.57100E-001	1.01379E-003	5	..........a	-327.66
	145	29.2	2.47192E-001	-1.92269E-008	0.00000E+000	2.47100E-001	1.00799E-003	5	..........a	-327.66
	146	29.4	2.37138E-001	-2.00578E-008	0.00000E+000	2.37100E-001	1.03099E-003	5	..........a	-327.66
	147	29.6	2.27123E-001	-2.08400E-008	0.00000E+000	2.27100E-001	1.01349E-003	5	..........a	-327.66
	148	29.8	2.17199E-001	-2.16261E-008	0.00000E+000	2.17100E-001	1.00329E-003	5	..........a	-327.66
	149	30	2.07158E-001	-2.23504E-008	0.00000E+000	2.07100E-001	1.00279E-003	5	..........a	-327.66
	150	30.2	1.97167E-001	-2.30463E-008	0.00000E+000	1.97100E-001	1.03049E-003	5	..........a	-327.66
	151	30.4	1.87189E-001	-2.37263E-008	0.00000E+000	1.87100E-001	1.03419E-003	5	..........a	-327.66
	152	30.6	1.77229E-001	-2.43506E-008	0.00000E+000	1.77100E-001	1.02519E-003	5	..........a	-327.66
	153	30.8	1.67258E-001	-2.49604E-008	0.00000E+000	1.67100E-001	1.01129E-003	5	..........a	-327.66
	154	31	1.57195E-001	-2.55322E-008	0.00000E+000	1.57100E-001	1.01709E-003	5	..........a	-327.66
	155	31.2	1.47168E-001	-2.61417E-008	0.00000E+000	1.47100E-001	1.00309E-003	5	..........a	-327.66
	156	31.4	1.37243E-001	-2.67543E-008	0.00000E+000	1.37100E-001	1.01759E-003	5	..........a	-327.66
	157	31.6	1.27218E-001	-2.73905E-008	0.00000E+000	1.27100E-001	1.01169E-003	5	..........a	-327.66
	158	31.8	1.17184E-001	-2.80508E-008	0.00000E+000	1.17100E-001	1.03769E-003	5	..........a	-327.66
	159	32	1.07170E-001	-2.86660E-008	0.00000E+000	1.07100E-001	1.03349E-003	5	..........a	-327.66
	160	32.2	9.72128E-002	-2.92044E-008	0.00000E+000	9.71000E-002	1.02749E-003	5	..........a	-327.66
	161	32.4	8.72136E-002	-2.97342E-008	0.00000E+000	8.71000E-002	9.97092E-004	5	..........a	-327.66
	162	32.6	7.71468E-002	-3.02256E-008	0.00000E+000	7.71000E-002	1.01829E-003	5	..........a	-327.66
	163	32.8	6.71655E-002	-3.05773E-008	0.00000E+000	6.71000E-002	1.01239E-003	5	..........a	-327.66
	164	33	5.72198E-002	-3.09116E-008	0.00000E+000	5.71000E-002	1.02269E-003	5	..........a	-327.66
	165	33.2	4.72111E-002	-3.12018E-008	0.00000E+000	4.71000E-002	1.00769E-003	5	..........a	-327.66
	166	33.4	3.72122E-002	-3.14760E-008	0.00000E+000	3.71000E-002	1.01579E-003	5	..........a	-327.66
	167	33.6	2.71692E-002	-3.16963E-008	0.00000E+000	2.71000E-002	1.01419E-003	5	..........a	-327.66
	168	33.8	1.71654E-002	-3.19376E-008	0.00000E+000	1.71000E-002	1.02049E-003	5	..........a	-327.66
	169	34	7.23754E-003	-3.22645E-008	0.00000E+000	7.10000E-003	9.95492E-004	5	..........a	-327.66
	170	34.2	-2.84156E-003	-3.29832E-008	0.00000E+000	-2.90000E-003	1.02379E-003	5	..........a	-327.66
	171	34.4	-1.28162E-002	-3.30881E-008	0.00000E+000	-1.29000E-002	1.02379E-003	5	..........a	-327.66
	172	34.6	-2.27935E-002	-3.31024E-008	0.00000E+000	-2.29000E-002	1.01589E-003	5	..........a	-327.66
	173	34.8	-3.27907E-002	-3.32655E-008	0.00000E+000	-3.29000E-002	1.00749E-003	5	..........a	-327.66
	174	35	-4.28209E-002	-3.37269E-008	0.00000E+000	-4.29000E-002	1.00759E-003	5	..........a	-327.66
	175	35.2	-5.28450E-002	-3.37778E-008	0.00000E+000	-5.29000E-002	9.99892E-004	5	..........a	-327.66
	176	35.4	-6.27410E-002	-3.40580E-008	0.00000E+000	-6.29000E-002	1.03029E-003	5	..........a	-327.66
	177	35.6	-7.27925E-002	-3.43325E-008	0.00000E+000	-7.29000E-002	1.01729E-003	5	..........a	-327.66
	178	35.8	-8.27857E-002	-3.46367E-008	0.00000E+000	-8.29000E-002	1.01719E-003	5	..........a	-327.66
	179	36	-9.28004E-002	-3.49773E-008	0.00000E+000	-9.29000E-002	1.01609E-003	5	..........a	-327.66
	180	36.2	-1.02784E-001	-3.52913E-008	0.00000E+000	-1.02900E-001	1.03519E-003	5	..........a	-327.66
	181	36.4	-1.12833E-001	-3.56507E-008	0.00000E+000	-1.12900E-001	1.00429E-003	5	..........a	-327.66
	182	36.6	-1.22829E-001	-3.60535E-008	0.00000E+000	-1.22900E-001	1.01819E-003	5	..........a	-327.66
	183	36.8	-1.32849E-001	-3.65404E-008	0.00000E+000	-1.32900E-001	1.02339E-003	5	..........a	-327.66
	184	37	-1.42787E-001	-3.71111E-008	0.00000E+000	-1.42900E-001	1.01469E-003	5	..........a	-327.66
	185	37.2	-1.52866E-001	-3.76452E-008	0.00000E+000	-1.52900E-001	1.00999E-003	5	..........a	-327.66
	186	37.4	-1.62832E-001	-3.83221E-008	0.00000E+000	-1.62900E-001	1.03169E-003	5	..........a	-327.66
	187	37.6	-1.72834E-001	-3.89150E-008	0.00000E+000	-1.72900E-001	1.02989E-003	5	..........a	-327.66
	188	37.8	-1.82797E-001	-3.95651E-008	0.00000E+000	-1.82900E-001	1.03039E-003	5	..........a	-327.66
	189	38	-1.92811E-001	-4.02290E-008	0.00000E+000	-1.92900E-001	1.00519E-003	5	..........a	-327.66
	190	38.2	-2.02825E-001	-4.08810E-008	0.00000E+000	-2.02900E-001	9.98292E-004	5	..........a	-327.66
	191	38.4	-2.12817E-001	-4.16213E-008	0.00000E+000	-2.12900E-001	1.01889E-003	5	..........a	-327.66
	192	38.6	-2.22751E-001	-4.22237E-008	0.00000E+000	-2.22900E-001	1.02479E-003	5	..........a	-327.66
	193	38.8	-2.32767E-001	-4.29255E-008	0.00000E+000	-2.32900E-001	1.01359E-003	5	..........a	-327.66
	194	39	-2.42769E-001	-4.36109E-008	0.00000E+000	-2.42900E-001	1.01239E-003	5	..........a	-327.66
	195	39.2	-2.52780E-001	-4.42524E-008	0.00000E+000	-2.52900E-001	1.00899E-003	5	..........a	-327.66
	196	39.4	-2.62723E-001	-4.50348E-008	0.00000E+000	-2.62900E-001	1.00309E-003	5	..........a	-327.66
	197	39.6	-2.72741E-001	-4.57964E-008	0.00000E+000	-2.72900E-001	1.00809E-003	5	..........a	-327.66
	198	39.8	-2.82794E-001	-4.66347E-008	0.00000E+000	-2.82900E-001	1.02809E-003	5	..........a	-327.66
	199	40	-2.92802E-001	-4.74300E-008	0.00000E+000	-2.92900E-001	9.99092E-004	5	..........a	-327.66
	200	40.2	-3.02777E-001	-4.83692E-008	0.00000E+000	-3.02900E-001	1.01539E-003	5	..........a	-327.66
	201	40.4	-3.12730E-001	-4.92200E-008	0.00000E+000	-3.12900E-001	1.01299E-003	5	..........a	-327.66
	202	40.6	-3.22751E-001	-5.01539E-008	0.00000E+000	-3.22900E-001	1.01099E-003	5	..........a	-327.66
	203	40.8	-3.32820E-001	-5.11792E-008	0.00000E+000	-3.32900E-001	1.01869E-003	5	..........a	-327.66
	204	41	-3.42754E-001	-5.19784E-008	0.00000E+000	-3.42900E-001	1.01259E-003	5	..........a	-327.66
	205	41.2	-3.52781E-001	-5.28737E-008	0.00000E+000	-3.52900E-001	1.00849E-003	5	..........a	-327.66
	206	41.4	-3.62803E-001	-5.35347E-008	0.00000E+000	-3.62900E-001	1.00909E-003	5	..........a	-327.66
	207	41.6	-3.72754E-001	-5.43519E-008	0.00000E+000	-3.72900E-001	1.01229E-003	5	..........a	-327.66
	208	41.8	-3.82730E-001	-5.50476E-008	0.00000E+000	-3.82900E-001	1.00459E-003	5	..........a	-327.66
	209	42	-3.92700E-001	-5.58115E-008	0.00000E+000	-3.92900E-001	9.98292E-004	5	..........a	-327.66
	210	42.2	-4.02749E-001	-5.65042E-008	0.00000E+000	-4.02900E-001	1.01099E-003	5	..........a	-327.66
	211	42.4	-4.12761E-001	-5.72449E-008	0.00000E+000	-4.12900E-001	1.01709E-003	5	..........a	-327.66
	212	42.6	-4.22711E-001	-5.82947E-008	0.00000E+000	-4.22900E-001	1.01379E-003	5	..........a	-327.66
	213	42.8	-4.32725E-001	-5.88713E-008	0.00000E+000	-4.32900E-001	1.01569E-003	5	..........a	-327.66
	214	43	-4.42776E-001	-5.97214E-008	0.00000E+000	-4.42900E-001	1.00339E-003	5	..........a	-327.66
	215	43.2	-4.52731E-001	-6.06119E-008	0.00000E+000	-4.52900E-001	1.03549E-003	5	..........a	-327.66
	216	43.4	-4.62713E-001	-6.16324E-008	0.00000E+000	-4.62900E-001	1.02279E-003	5	..........a	-327.66
	217	43.6	-4.72692E-001	-6.25203E-008	0.00000E+000	-4.72900E-001	9.90992E-004	5	..........a	-327.66
	218	43.8	-4.82757E-001	-6.35294E-008	0.00000E+000	-4.82900E-001	1.02379E-003	5	..........a	-327.66
	219	44	-4.92774E-001	-6.46552E-008	0.00000E+000	-4.92900E-001	1.02149E-003	5	..........a	-327.66
	220	44.2	-5.02688E-001	-6.56209E-008	0.00000E+000	-5.02900E-001	1.02219E-003	5	..........a	-327.66
	221	44.4	-5.12729E-001	-6.68990E-008	0.00000E+000	-5.12900E-001	1.00889E-003	5	..........a	-327.66
	222	44.6	-5.22704E-001	-6.79099E-008	0.00000E+000	-5.22900E-001	1.02439E-003	5	..........a	-327.66
	223	44.8	-5.32769E-001	-6.91629E-008	0.00000E+000	-5.32900E-001	1.01859E-003	5	..........a	-327.66
	224	45	-5.42739E-001	-7.03616E-008	0.00000E+000	-5.42900E-001	1.01439E-003	5	..........a	-327.66
	225	45.2	-5.52710E-001	-7.16555E-008	0.00000E+000	-5.52900E-001	1.02929E-003	5	..........a	-327.66
	226	45.4	-5.62787E-001	-7.30955E-008	0.00000E+000	-5.62900E-001	9.98592E-004	5	..........a	-327.66
	227	45.6	-5.72765E-001	-7.47195E-008	0.00000E+000	-5.72900E-001	1.02599E-003	5	..........a	-327.66
	228	45.8	-5.82708E-001	-7.61034E-008	0.00000E+000	-5.82900E-001	1.00109E-003	5	..........a	-327.66
	229	46	-5.92678E-001	-7.79545E-008	0.00000E+000	-5.92900E-001	1.00749E-003	5	..........a	-327.66
	230	46.2	-6.02734E-001	-7.99093E-008	0.00000E+000	-6.02900E-001	1.01209E-003	5	..........a	-327.66
CURVE2	TABLE
	Pt	T	Vf	Im	Vu	Sig	Ach	IERange	Over	Temp
	#	s	V vs. Ref.	A	V	V	V	#	bits	deg C
	231	46.4	-5.89844E-001	-6.51555E-008	0.00000E+000	-5.90000E-001	1.02729E-003	5	..........a	-327.66
	232	46.6	-5.79812E-001	-5.74438E-008	0.00000E+000	-5.80000E-001	1.00399E-003	5	..........a	-327.66
	233	46.8	-5.69857E-001	-5.10673E-008	0.00000E+000	-5.70000E-001	1.03549E-003	5	..........a	-327.66
	234	47	-5.59854E-001	-4.60412E-008	0.00000E+000	-5.60000E-001	1.01919E-003	5	..........a	-327.66
	235	47.2	-5.49866E-001	-4.19200E-008	0.00000E+000	-5.50000E-001	9.84092E-004	5	..........a	-327.66
	236	47.4	-5.39788E-001	-3.81856E-008	0.00000E+000	-5.40000E-001	1.01579E-003	5	..........a	-327.66
	237	47.6	-5.29844E-001	-3.48768E-008	0.00000E+000	-5.30000E-001	1.01579E-003	5	..........a	-327.66
	238	47.8	-5.19879E-001	-3.20354E-008	0.00000E+000	-5.20000E-001	1.01649E-003	5	..........a	-327.66
	239	48	-5.09839E-001	-2.90303E-008	0.00000E+000	-5.10000E-001	9.95092E-004	5	..........a	-327.66
	240	48.2	-4.99832E-001	-2.66023E-008	0.00000E+000	-5.00000E-001	1.00699E-003	5	..........a	-327.66
	241	48.4	-4.89840E-001	-2.40103E-008	0.00000E+000	-4.90000E-001	1.01589E-003	5	..........a	-327.66
	242	48.6	-4.79863E-001	-2.16478E-008	0.00000E+000	-4.80000E-001	1.01469E-003	5	..........a	-327.66
	243	48.8	-4.69857E-001	-1.93494E-008	0.00000E+000	-4.70000E-001	1.00979E-003	5	..........a	-327.66
	244	49	-4.59826E-001	-1.71717E-008	0.00000E+000	-4.60000E-001	9.82992E-004	5	..........a	-327.66
	245	49.2	-4.49849E-001	-1.54949E-008	0.00000E+000	-4.50000E-001	9.94992E-004	5	..........a	-327.66
	246	49.4	-4.39844E-001	-1.34265E-008	0.00000E+000	-4.40000E-001	1.01959E-003	5	..........a	-327.66
	247	49.6	-4.29876E-001	-1.15665E-008	0.00000E+000	-4.30000E-001	1.00749E-003	5	..........a	-327.66
	248	49.8	-4.19822E-001	-1.00160E-008	0.00000E+000	-4.20000E-001	1.00039E-003	5	..........a	-327.66
	249	50	-4.09861E-001	-8.22311E-009	0.00000E+000	-4.10000E-001	1.02219E-003	5	..........a	-327.66
	250	50.2	-3.99882E-001	-6.82989E-009	0.00000E+000	-4.00000E-001	1.02539E-003	5	..........a	-327.66
	251	50.4	-3.89932E-001	-5.25888E-009	0.00000E+000	-3.90000E-001	1.00939E-003	5	..........a	-327.66
	252	50.6	-3.79846E-001	-4.07339E-009	0.00000E+000	-3.80000E-001	1.00099E-003	5	..........a	-327.66
	253	50.8	-3.69868E-001	-2.41939E-009	0.00000E+000	-3.70000E-001	1.00969E-003	5	..........a	-327.66
	254	51	-3.59978E-001	-1.24571E-009	0.00000E+000	-3.60000E-001	1.03089E-003	5	..........a	-327.66
	255	51.2	-3.49917E-001	-1.12948E-010	0.00000E+000	-3.50000E-001	1.01419E-003	5	..........a	-327.66
	256	51.4	-3.39811E-001	1.22530E-009	0.00000E+000	-3.40000E-001	9.98592E-004	5	..........a	-327.66
	257	51.6	-3.29948E-001	2.23209E-009	0.00000E+000	-3.30000E-001	1.01879E-003	5	..........a	-327.66
	258	51.8	-3.19884E-001	3.52865E-009	0.00000E+000	-3.20000E-001	1.00349E-003	5	..........a	-327.66
	259	52	-3.09918E-001	4.58173E-009	0.00000E+000	-3.10000E-001	1.01099E-003	5	..........a	-327.66
	260	52.2	-2.99848E-001	5.53009E-009	0.00000E+000	-3.00000E-001	1.02139E-003	5	..........a	-327.66
	261	52.4	-2.89928E-001	6.54182E-009	0.00000E+000	-2.90000E-001	1.02539E-003	5	..........a	-327.66
	262	52.6	-2.79968E-001	7.48183E-009	0.00000E+000	-2.80000E-001	1.02749E-003	5	..........a	-327.66
	263	52.8	-2.69895E-001	8.39486E-009	0.00000E+000	-2.70000E-001	1.00449E-003	5	..........a	-327.66
	264	53	-2.59815E-001	9.25924E-009	0.00000E+000	-2.60000E-001	9.92692E-004	5	..........a	-327.66
	265	53.2	-2.49896E-001	1.01264E-008	0.00000E+000	-2.50000E-001	1.01479E-003	5	..........a	-327.66
	266	53.4	-2.39926E-001	1.10129E-008	0.00000E+000	-2.40000E-001	1.03559E-003	5	..........a	-327.66
	267	53.6	-2.29925E-001	1.18750E-008	0.00000E+000	-2.30000E-001	1.03819E-003	5	..........a	-327.66
	268	53.8	-2.19879E-001	1.26940E-008	0.00000E+000	-2.20000E-001	9.99292E-004	5	..........a	-327.66
	269	54	-2.09948E-001	1.34949E-008	0.00000E+000	-2.10000E-001	1.02219E-003	5	..........a	-327.66
	270	54.2	-1.99975E-001	1.42865E-008	0.00000E+000	-2.00000E-001	1.01969E-003	5	..........a	-327.66
	271	54.4	-1.89999E-001	1.50523E-008	0.00000E+000	-1.90000E-001	1.02089E-003	5	..........a	-327.66
	272	54.6	-1.79912E-001	1.57689E-008	0.00000E+000	-1.80000E-001	1.01069E-003	5	..........a	-327.66
	273	54.8	-1.69903E-001	1.65829E-008	0.00000E+000	-1.70000E-001	1.00549E-003	5	..........a	-327.66
	274	55	-1.60003E-001	1.73156E-008	0.00000E+000	-1.60000E-001	1.01389E-003	5	..........a	-327.66
	275	55.2	-1.50011E-001	1.80531E-008	0.00000E+000	-1.50000E-001	1.01519E-003	5	..........a	-327.66
	276	55.4	-1.39866E-001	1.87806E-008	0.00000E+000	-1.40000E-001	1.00779E-003	5	..........a	-327.66
	277	55.6	-1.29958E-001	1.95196E-008	0.00000E+000	-1.30000E-001	1.01239E-003	5	..........a	-327.66
	278	55.8	-1.19964E-001	2.02272E-008	0.00000E+000	-1.20000E-001	1.01369E-003	5	..........a	-327.66
	279	56	-1.09960E-001	2.09942E-008	0.00000E+000	-1.10000E-001	1.02309E-003	5	..........a	-327.66
	280	56.2	-9.98903E-002	2.17458E-008	0.00000E+000	-1.00000E-001	1.00609E-003	5	..........a	-327.66
	281	56.4	-8.98939E-002	2.24708E-008	0.00000E+000	-9.00000E-002	9.96192E-004	5	..........a	-327.66
	282	56.6	-8.00358E-002	2.32099E-008	0.00000E+000	-8.00000E-002	1.02129E-003	5	..........a	-327.66
	283	56.8	-6.99364E-002	2.39575E-008	0.00000E+000	-7.00000E-002	9.99892E-004	5	..........a	-327.66
	284	57	-5.98461E-002	2.46841E-008	0.00000E+000	-6.00000E-002	1.02949E-003	5	..........a	-327.66
	285	57.2	-4.99035E-002	2.54418E-008	0.00000E+000	-5.00000E-002	1.01139E-003	5	..........a	-327.66
	286	57.4	-3.99184E-002	2.61686E-008	0.00000E+000	-4.00000E-002	1.01339E-003	5	..........a	-327.66
	287	57.6	-2.99588E-002	2.69902E-008	0.00000E+000	-3.00000E-002	1.01459E-003	5	..........a	-327.66
	288	57.8	-1.99182E-002	2.77673E-008	0.00000E+000	-2.00000E-002	1.00049E-003	5	..........a	-327.66
	289	58	-9.93891E-003	2.86285E-008	0.00000E+000	-1.00000E-002	1.00229E-003	5	..........a	-327.66
	290	58.2	-6.25834E-006	2.94611E-008	0.00000E+000	7.45058E-009	1.03629E-003	5	..........a	-327.66
	291	58.4	1.00873E-002	3.03474E-008	0.00000E+000	1.00000E-002	1.00319E-003	5	..........a	-327.66
	292	58.6	2.01261E-002	3.12489E-008	0.00000E+000	2.00000E-002	1.02679E-003	5	..........a	-327.66
	293	58.8	3.00228E-002	3.22117E-008	0.00000E+000	3.00000E-002	1.02949E-003	5	..........a	-327.66
	294	59	3.99969E-002	3.31262E-008	0.00000E+000	4.00000E-002	1.02889E-003	5	..........a	-327.66
	295	59.2	5.00248E-002	3.41255E-008	0.00000E+000	5.00000E-002	1.01159E-003	5	..........a	-327.66
	296	59.4	6.00997E-002	3.51691E-008	0.00000E+000	6.00000E-002	1.01179E-003	5	..........a	-327.66
	297	59.6	7.00181E-002	3.62542E-008	0.00000E+000	7.00000E-002	1.03679E-003	5	..........a	-327.66
	298	59.8	8.00231E-002	3.74337E-008	0.00000E+000	8.00000E-002	1.01849E-003	5	..........a	-327.66
	299	60	9.00234E-002	3.86698E-008	0.00000E+000	9.00000E-002	1.02419E-003	5	..........a	-327.66
	300	60.2	1.00093E-001	3.99725E-008	0.00000E+000	1.00000E-001	1.02069E-003	5	..........a	-327.66
	301	60.4	1.10072E-001	4.13429E-008	0.00000E+000	1.10000E-001	1.02009E-003	5	..........a	-327.66
	302	60.6	1.19992E-001	4.27500E-008	0.00000E+000	1.20000E-001	1.00459E-003	5	..........a	-327.66
	303	60.8	1.30021E-001	4.42902E-008	0.00000E+000	1.30000E-001	1.02939E-003	5	..........a	-327.66
	304	61	1.40097E-001	4.55249E-008	0.00000E+000	1.40000E-001	9.96592E-004	5	..........a	-327.66
	305	61.2	1.50037E-001	4.65630E-008	0.00000E+000	1.50000E-001	1.02549E-003	5	..........a	-327.66
	306	61.4	1.60020E-001	4.77803E-008	0.00000E+000	1.60000E-001	1.03829E-003	5	..........a	-327.66
	307	61.6	1.70008E-001	4.89986E-008	0.00000E+000	1.70000E-001	1.00129E-003	5	..........a	-327.66
	308	61.8	1.80067E-001	5.02281E-008	0.00000E+000	1.80000E-001	9.99592E-004	5	..........a	-327.66
	309	62	1.90089E-001	5.14707E-008	0.00000E+000	1.90000E-001	1.02129E-003	5	..........a	-327.66
	310	62.2	2.00005E-001	5.27571E-008	0.00000E+000	2.00000E-001	1.00209E-003	5	..........a	-327.66
	311	62.4	2.09931E-001	5.39372E-008	0.00000E+000	2.10000E-001	1.03799E-003	5	..........a	-327.66
	312	62.6	2.20072E-001	5.50890E-008	0.00000E+000	2.20000E-001	1.01569E-003	5	..........a	-327.66
	313	62.8	2.29989E-001	5.61567E-008	0.00000E+000	2.30000E-001	1.02629E-003	5	..........a	-327.66
	314	63	2.40024E-001	5.71741E-008	0.00000E+000	2.40000E-001	1.03159E-003	5	..........a	-327.66
	315	63.2	2.49987E-001	5.81709E-008	0.00000E+000	2.50000E-001	1.02219E-003	5	..........a	-327.66
	316	63.4	2.60010E-001	5.91920E-008	0.00000E+000	2.60000E-001	1.01289E-003	5	..........a	-327.66
	317	63.6	2.70089E-001	6.03397E-008	0.00000E+000	2.70000E-001	1.00229E-003	5	..........a	-327.66
	318	63.8	2.79955E-001	6.14682E-008	0.00000E+000	2.80000E-001	9.96892E-004	5	..........a	-327.66
	319	64	2.90008E-001	6.27137E-008	0.00000E+000	2.90000E-001	1.01219E-003	5	..........a	-327.66
	320	64.2	3.00050E-001	6.40039E-008	0.00000E+000	3.00000E-001	1.00289E-003	5	..........a	-327.66
	321	64.4	3.10000E-001	6.53511E-008	0.00000E+000	3.10000E-001	1.02839E-003	5	..........a	-327.66
	322	64.6	3.20016E-001	6.67134E-008	0.00000E+000	3.20000E-001	1.01729E-003	5	..........a	-327.66
	323	64.8	3.30006E-001	6.81610E-008	0.00000E+000	3.30000E-001	1.01559E-003	5	..........a	-327.66
	324	65	3.40029E-001	6.95664E-008	0.00000E+000	3.40000E-001	1.01199E-003	5	..........a	-327.66
	325	65.2	3.50010E-001	7.10357E-008	0.00000E+000	3.50000E-001	1.01229E-003	5	..........a	-327.66
	326	65.4	3.59978E-001	7.24807E-008	0.00000E+000	3.60000E-001	1.01259E-003	5	..........a	-327.66
	327	65.6	3.70007E-001	7.39351E-008	0.00000E+000	3.70000E-001	1.02099E-003	5	..........a	-327.66
	328	65.8	3.80033E-001	7.53912E-008	0.00000E+000	3.80000E-001	1.00529E-003	5	..........a	-327.66
	329	66	3.90036E-001	7.67818E-008	0.00000E+000	3.90000E-001	1.01209E-003	5	..........a	-327.66
	330	66.2	4.00023E-001	7.81758E-008	0.00000E+000	4.00000E-001	1.01999E-003	5	..........a	-327.66
	331	66.4	4.09925E-001	7.95531E-008	0.00000E+000	4.10000E-001	1.00339E-003	5	..........a	-327.66
	332	66.6	4.19979E-001	8.09394E-008	0.00000E+000	4.20000E-001	1.01949E-003	5	..........a	-327.66
	333	66.8	4.29976E-001	8.22805E-008	0.00000E+000	4.30000E-001	1.01499E-003	5	..........a	-327.66
	334	67	4.39916E-001	8.37037E-008	0.00000E+000	4.40000E-001	1.03429E-003	5	..........a	-327.66
	335	67.2	4.49971E-001	8.50975E-008	0.00000E+000	4.50000E-001	1.01449E-003	5	..........a	-327.66
	336	67.4	4.59973E-001	8.65049E-008	0.00000E+000	4.60000E-001	1.00359E-003	5	..........a	-327.66
	337	67.6	4.70011E-001	8.79427E-008	0.00000E+000	4.70000E-001	1.01249E-003	5	..........a	-327.66
	338	67.8	4.79893E-001	8.94360E-008	0.00000E+000	4.80000E-001	1.04549E-003	5	..........a	-327.66
	339	68	4.89919E-001	9.09766E-008	0.00000E+000	4.90000E-001	1.02619E-003	5	..........a	-327.66
	340	68.2	4.99991E-001	9.25745E-008	0.00000E+000	5.00000E-001	9.89892E-004	5	..........a	-327.66
	341	68.4	5.09962E-001	9.43447E-008	0.00000E+000	5.10000E-001	1.01459E-003	5	..........a	-327.66
	342	68.6	5.19951E-001	9.62417E-008	0.00000E+000	5.20000E-001	9.99292E-004	5	..........a	-327.66
	343	68.8	5.29948E-001	9.82216E-008	0.00000E+000	5.30000E-001	1.03589E-003	5	..........a	-327.66
	344	69	5.39948E-001	1.00432E-007	0.00000E+000	5.40000E-001	9.97892E-004	5	..........a	-327.66
	345	69.2	5.50007E-001	1.02789E-007	0.00000E+000	5.50000E-001	1.01489E-003	5	..........a	-327.66
	346	69.4	5.59904E-001	1.05331E-007	0.00000E+000	5.60000E-001	1.01349E-003	5	..........a	-327.66
	347	69.6	5.69936E-001	1.08045E-007	0.00000E+000	5.70000E-001	1.02489E-003	5	..........a	-327.66
	348	69.8	5.79980E-001	1.10944E-007	0.00000E+000	5.80000E-001	9.90992E-004	5	..........a	-327.66
	349	70	5.90009E-001	1.13997E-007	0.00000E+000	5.90000E-001	1.02389E-003	5	..........a	-327.66
	350	70.2	5.99950E-001	1.17224E-007	0.00000E+000	6.00000E-001	1.00449E-003	5	..........a	-327.66
	351	70.4	6.09908E-001	1.20609E-007	0.00000E+000	6.10000E-001	1.00349E-003	5	..........a	-327.66
	352	70.6	6.19907E-001	1.24245E-007	0.00000E+000	6.20000E-001	1.00309E-003	5	..........a	-327.66
	353	70.8	6.30006E-001	1.27981E-007	0.00000E+000	6.30000E-001	1.01229E-003	5	..........a	-327.66
	354	71	6.39871E-001	1.31981E-007	0.00000E+000	6.40000E-001	1.02209E-003	5	..........a	-327.66
[...]
	922	184.6	7.19875E-001	1.52378E-007	0.00000E+000	7.20000E-001	1.01939E-003	5	..........a	-327.66
	923	184.8	7.29927E-001	1.58327E-007	0.00000E+000	7.30000E-001	1.00929E-003	5	..........a	-327.66
	924	185	7.39892E-001	1.64647E-007	0.00000E+000	7.40000E-001	1.01059E-003	5	..........a	-327.66
	925	185.2	7.49958E-001	1.71438E-007	0.00000E+000	7.50000E-001	1.00329E-003	5	..........a	-327.66
	926	185.4	7.59881E-001	1.78685E-007	0.00000E+000	7.60000E-001	1.00499E-003	5	..........a	-327.66
	927	185.6	7.69850E-001	1.85850E-007	0.00000E+000	7.70000E-001	1.00589E-003	5	..........a	-327.66
	928	185.8	7.79855E-001	1.93541E-007	0.00000E+000	7.80000E-001	1.00159E-003	5	..........a	-327.66
	929	186	7.89950E-001	2.01866E-007	0.00000E+000	7.90000E-001	9.98292E-004	5	..........a	-327.66
	930	186.2	7.99852E-001	2.10735E-007	0.00000E+000	8.00000E-001	9.97092E-004	5	..........a	-327.66
	931	186.4	7.89964E-001	1.75434E-007	0.00000E+000	7.90000E-001	1.03209E-003	5	..........a	-327.66
	932	186.6	7.79877E-001	1.53016E-007	0.00000E+000	7.80000E-001	1.00359E-003	5	..........a	-327.66
	933	186.8	7.69872E-001	1.36312E-007	0.00000E+000	7.70000E-001	1.02269E-003	5	..........a	-327.66
	934	187	7.59905E-001	1.22948E-007	0.00000E+000	7.60000E-001	9.92392E-004	5	..........a	-327.66
	935	187.2	7.49978E-001	1.11736E-007	0.00000E+000	7.50000E-001	1.00019E-003	5	..........a	-327.66
	936	187.4	7.39911E-001	1.02085E-007	0.00000E+000	7.40000E-001	1.00719E-003	5	..........a	-327.66
	937	187.6	7.29933E-001	9.36495E-008	0.00000E+000	7.30000E-001	1.00739E-003	5	..........a	-327.66
	938	187.8	7.19915E-001	8.61247E-008	0.00000E+000	7.20000E-001	1.00239E-003	5	..........a	-327.66
	939	188	7.09962E-001	7.92895E-008	0.00000E+000	7.10000E-001	1.00099E-003	5	..........a	-327.66
	940	188.2	6.99930E-001	7.30934E-008	0.00000E+000	7.00000E-001	1.01269E-003	5	..........a	-327.66
	941	188.4	6.89913E-001	6.74112E-008	0.00000E+000	6.90000E-001	1.01589E-003	5	..........a	-327.66
	942	188.6	6.79927E-001	6.21820E-008	0.00000E+000	6.80000E-001	1.00289E-003	5	..........a	-327.66
	943	188.8	6.69985E-001	5.73582E-008	0.00000E+000	6.70000E-001	1.00969E-003	5	..........a	-327.66
	944	189	6.59972E-001	5.28539E-008	0.00000E+000	6.60000E-001	1.00109E-003	5	..........a	-327.66
	945	189.2	6.49924E-001	4.87150E-008	0.00000E+000	6.50000E-001	1.01499E-003	5	..........a	-327.66
	946	189.4	6.39904E-001	4.48316E-008	0.00000E+000	6.40000E-001	1.00819E-003	5	..........a	-327.66
	947	189.6	6.30042E-001	4.11827E-008	0.00000E+000	6.30000E-001	1.00859E-003	5	..........a	-327.66
	948	189.8	6.19963E-001	3.77704E-008	0.00000E+000	6.20000E-001	1.00949E-003	5	..........a	-327.66
	949	190	6.09971E-001	3.45321E-008	0.00000E+000	6.10000E-001	1.01239E-003	5	..........a	-327.66
	950	190.2	5.99992E-001	3.14464E-008	0.00000E+000	6.00000E-001	1.01149E-003	5	..........a	-327.66
	951	190.4	5.89992E-001	2.85201E-008	0.00000E+000	5.90000E-001	9.90392E-004	5	..........a	-327.66
	952	190.6	5.80034E-001	2.56656E-008	0.00000E+000	5.80000E-001	1.00499E-003	5	..........a	-327.66
	953	190.8	5.69947E-001	2.29892E-008	0.00000E+000	5.70000E-001	1.02829E-003	5	..........a	-327.66
	954	191	5.59950E-001	2.03479E-008	0.00000E+000	5.60000E-001	1.02749E-003	5	..........a	-327.66
	955	191.2	5.50041E-001	1.78404E-008	0.00000E+000	5.50000E-001	1.00059E-003	5	..........a	-327.66
	956	191.4	5.40033E-001	1.53666E-008	0.00000E+000	5.40000E-001	1.01079E-003	5	..........a	-327.66
	957	191.6	5.29951E-001	1.30122E-008	0.00000E+000	5.30000E-001	1.01399E-003	5	..........a	-327.66
	958	191.8	5.19980E-001	1.06595E-008	0.00000E+000	5.20000E-001	1.02159E-003	5	..........a	-327.66
	959	192	5.09951E-001	8.43054E-009	0.00000E+000	5.10000E-001	1.01729E-003	5	..........a	-327.66
	960	192.2	5.00107E-001	6.25811E-009	0.00000E+000	5.00000E-001	9.93292E-004	5	..........a	-327.66
	961	192.4	4.89952E-001	4.16856E-009	0.00000E+000	4.90000E-001	1.00979E-003	5	..........a	-327.66
	962	192.6	4.79915E-001	2.10315E-009	0.00000E+000	4.80000E-001	1.00349E-003	5	..........a	-327.66
	963	192.8	4.70034E-001	1.17731E-010	0.00000E+000	4.70000E-001	1.00899E-003	5	..........a	-327.66
	964	193	4.60025E-001	-1.76763E-009	0.00000E+000	4.60000E-001	1.00739E-003	5	..........a	-327.66
	965	193.2	4.50023E-001	-3.60456E-009	0.00000E+000	4.50000E-001	1.00169E-003	5	..........a	-327.66
	966	193.4	4.40018E-001	-5.33536E-009	0.00000E+000	4.40000E-001	9.92492E-004	5	..........a	-327.66
	967	193.6	4.30003E-001	-7.00765E-009	0.00000E+000	4.30000E-001	9.94792E-004	5	..........a	-327.66
	968	193.8	4.20048E-001	-8.57109E-009	0.00000E+000	4.20000E-001	9.86492E-004	5	..........a	-327.66
	969	194	4.10014E-001	-1.00453E-008	0.00000E+000	4.10000E-001	1.01069E-003	5	..........a	-327.66
	970	194.2	4.00029E-001	-1.14582E-008	0.00000E+000	4.00000E-001	9.99392E-004	5	..........a	-327.66
	971	194.4	3.90064E-001	-1.28377E-008	0.00000E+000	3.90000E-001	1.00549E-003	5	..........a	-327.66
	972	194.6	3.80096E-001	-1.41813E-008	0.00000E+000	3.80000E-001	9.79092E-004	5	..........a	-327.66
	973	194.8	3.70075E-001	-1.55496E-008	0.00000E+000	3.70000E-001	1.01499E-003	5	..........a	-327.66
	974	195	3.60001E-001	-1.68142E-008	0.00000E+000	3.60000E-001	9.91192E-004	5	..........a	-327.66
	975	195.2	3.50033E-001	-1.80128E-008	0.00000E+000	3.50000E-001	1.01679E-003	5	..........a	-327.66
	976	195.4	3.40115E-001	-1.92047E-008	0.00000E+000	3.40000E-001	9.93192E-004	5	..........a	-327.66
	977	195.6	3.30040E-001	-2.03513E-008	0.00000E+000	3.30000E-001	1.00489E-003	5	..........a	-327.66
	978	195.8	3.20062E-001	-2.15594E-008	0.00000E+000	3.20000E-001	9.92292E-004	5	..........a	-327.66
	979	196	3.10039E-001	-2.26159E-008	0.00000E+000	3.10000E-001	1.00349E-003	5	..........a	-327.66
	980	196.2	3.00092E-001	-2.36611E-008	0.00000E+000	3.00000E-001	9.89592E-004	5	..........a	-327.66
	981	196.4	2.90074E-001	-2.46248E-008	0.00000E+000	2.90000E-001	1.00519E-003	5	..........a	-327.66
	982	196.6	2.80012E-001	-2.55800E-008	0.00000E+000	2.80000E-001	1.01609E-003	5	..........a	-327.66
	983	196.8	2.70104E-001	-2.65549E-008	0.00000E+000	2.70000E-001	1.00099E-003	5	..........a	-327.66
	984	197	2.60068E-001	-2.73230E-008	0.00000E+000	2.60000E-001	9.90192E-004	5	..........a	-327.66
	985	197.2	2.50006E-001	-2.80885E-008	0.00000E+000	2.50000E-001	1.02729E-003	5	..........a	-327.66
	986	197.4	2.40055E-001	-2.87508E-008	0.00000E+000	2.40000E-001	9.96992E-004	5	..........a	-327.66
	987	197.6	2.30047E-001	-2.94394E-008	0.00000E+000	2.30000E-001	1.00039E-003	5	..........a	-327.66
	988	197.8	2.20076E-001	-2.99983E-008	0.00000E+000	2.20000E-001	1.00779E-003	5	..........a	-327.66
	989	198	2.10035E-001	-3.05584E-008	0.00000E+000	2.10000E-001	9.93092E-004	5	..........a	-327.66
	990	198.2	2.00054E-001	-3.10194E-008	0.00000E+000	2.00000E-001	1.01009E-003	5	..........a	-327.66
	991	198.4	1.90127E-001	-3.14990E-008	0.00000E+000	1.90000E-001	9.97792E-004	5	..........a	-327.66
	992	198.6	1.80126E-001	-3.19410E-008	0.00000E+000	1.80000E-001	9.90992E-004	5	..........a	-327.66
	993	198.8	1.70071E-001	-3.23182E-008	0.00000E+000	1.70000E-001	1.00489E-003	5	..........a	-327.66
	994	199	1.60056E-001	-3.26605E-008	0.00000E+000	1.60000E-001	1.03009E-003	5	..........a	-327.66
	995	199.2	1.50067E-001	-3.29809E-008	0.00000E+000	1.50000E-001	1.00919E-003	5	..........a	-327.66
	996	199.4	1.40138E-001	-3.33056E-008	0.00000E+000	1.40000E-001	9.80492E-004	5	..........a	-327.66
	997	199.6	1.30080E-001	-3.36230E-008	0.00000E+000	1.30000E-001	9.91792E-004	5	..........a	-327.66
	998	199.8	1.20063E-001	-3.39244E-008	0.00000E+000	1.20000E-001	1.00139E-003	5	..........a	-327.66
	999	200	1.10126E-001	-3.41714E-008	0.00000E+000	1.10000E-001	9.99292E-004	5	..........a	-327.66
	1000	200.2	1.00164E-001	-3.43836E-008	0.00000E+000	1.00000E-001	9.86992E-004	5	..........a	-327.66
	1001	200.4	9.01185E-002	-3.45774E-008	0.00000E+000	9.00000E-002	1.01089E-003	5	..........a	-327.66
	1002	200.6	8.00665E-002	-3.46857E-008	0.00000E+000	8.00000E-002	1.00109E-003	5	..........a	-327.66
	1003	200.8	7.00604E-002	-3.46883E-008	0.00000E+000	7.00000E-002	1.01779E-003	5	..........a	-327.66
	1004	201	6.01424E-002	-3.46460E-008	0.00000E+000	6.00000E-002	9.90792E-004	5	..........a	-327.66
	1005	201.2	5.00941E-002	-3.45995E-008	0.00000E+000	5.00000E-002	9.89892E-004	5	..........a	-327.66
	1006	201.4	4.00335E-002	-3.45925E-008	0.00000E+000	4.00000E-002	1.00399E-003	5	..........a	-327.66
	1007	201.6	3.00866E-002	-3.46337E-008	0.00000E+000	3.00000E-002	1.02059E-003	5	..........a	-327.66
	1008	201.8	2.01928E-002	-3.47221E-008	0.00000E+000	2.00000E-002	1.01739E-003	5	..........a	-327.66
	1009	202	1.01384E-002	-3.47281E-008	0.00000E+000	1.00000E-002	9.84292E-004	5	..........a	-327.66
	1010	202.2	6.35917E-005	-3.46433E-008	0.00000E+000	7.45058E-009	1.00879E-003	5	..........a	-327.66
	1011	202.4	-9.85831E-003	-3.46419E-008	0.00000E+000	-1.00000E-002	9.99992E-004	5	..........a	-327.66
	1012	202.6	-1.98764E-002	-3.47372E-008	0.00000E+000	-2.00000E-002	1.00159E-003	5	..........a	-327.66
	1013	202.8	-2.99047E-002	-3.48029E-008	0.00000E+000	-3.00000E-002	1.01269E-003	5	..........a	-327.66
	1014	203	-3.98845E-002	-3.49063E-008	0.00000E+000	-4.00000E-002	9.94492E-004	5	..........a	-327.66
	1015	203.2	-4.98783E-002	-3.50630E-008	0.00000E+000	-5.00000E-002	9.94192E-004	5	..........a	-327.66
	1016	203.4	-5.98683E-002	-3.52479E-008	0.00000E+000	-6.00000E-002	9.84792E-004	5	..........a	-327.66
	1017	203.6	-6.98877E-002	-3.54830E-008	0.00000E+000	-7.00000E-002	1.00269E-003	5	..........a	-327.66
	1018	203.8	-7.99229E-002	-3.60395E-008	0.00000E+000	-8.00000E-002	9.98892E-004	5	..........a	-327.66
	1019	204	-8.98836E-002	-3.63405E-008	0.00000E+000	-9.00000E-002	9.85792E-004	5	..........a	-327.66
	1020	204.2	-9.98656E-002	-3.66760E-008	0.00000E+000	-1.00000E-001	9.82992E-004	5	..........a	-327.66
	1021	204.4	-1.09938E-001	-3.70212E-008	0.00000E+000	-1.10000E-001	1.00559E-003	5	..........a	-327.66
	1022	204.6	-1.19934E-001	-3.75044E-008	0.00000E+000	-1.20000E-001	1.01449E-003	5	..........a	-327.66
	1023	204.8	-1.29957E-001	-3.80341E-008	0.00000E+000	-1.30000E-001	1.01879E-003	5	..........a	-327.66
	1024	205	-1.39854E-001	-3.86102E-008	0.00000E+000	-1.40000E-001	1.00949E-003	5	..........a	-327.66
	1025	205.2	-1.49929E-001	-3.92072E-008	0.00000E+000	-1.50000E-001	1.00579E-003	5	..........a	-327.66
	1026	205.4	-1.59918E-001	-4.00819E-008	0.00000E+000	-1.60000E-001	9.97992E-004	5	..........a	-327.66
	1027	205.6	-1.69872E-001	-4.05409E-008	0.00000E+000	-1.70000E-001	9.92592E-004	5	..........a	-327.66
	1028	205.8	-1.79879E-001	-4.11878E-008	0.00000E+000	-1.80000E-001	9.93292E-004	5	..........a	-327.66
	1029	206	-1.89919E-001	-4.18754E-008	0.00000E+000	-1.90000E-001	1.00349E-003	5	..........a	-327.66
	1030	206.2	-1.99941E-001	-4.25148E-008	0.00000E+000	-2.00000E-001	1.01759E-003	5	..........a	-327.66
	1031	206.4	-2.09901E-001	-4.31688E-008	0.00000E+000	-2.10000E-001	1.02839E-003	5	..........a	-327.66
	1032	206.6	-2.19856E-001	-4.38534E-008	0.00000E+000	-2.20000E-001	9.98992E-004	5	..........a	-327.66
	1033	206.8	-2.29881E-001	-4.45290E-008	0.00000E+000	-2.30000E-001	1.00879E-003	5	..........a	-327.66
	1034	207	-2.39869E-001	-4.52984E-008	0.00000E+000	-2.40000E-001	1.00449E-003	5	..........a	-327.66
	1035	207.2	-2.49858E-001	-4.59896E-008	0.00000E+000	-2.50000E-001	1.00219E-003	5	..........a	-327.66
	1036	207.4	-2.59803E-001	-4.67664E-008	0.00000E+000	-2.60000E-001	9.87092E-004	5	..........a	-327.66
	1037	207.6	-2.69860E-001	-4.75927E-008	0.00000E+000	-2.70000E-001	9.98492E-004	5	..........a	-327.66
	1038	207.8	-2.79907E-001	-4.84444E-008	0.00000E+000	-2.80000E-001	9.98892E-004	5	..........a	-327.66
	1039	208	-2.89880E-001	-4.93549E-008	0.00000E+000	-2.90000E-001	1.00189E-003	5	..........a	-327.66
	1040	208.2	-2.99829E-001	-5.03167E-008	0.00000E+000	-3.00000E-001	1.00299E-003	5	..........a	-327.66
	1041	208.4	-3.09884E-001	-5.12917E-008	0.00000E+000	-3.10000E-001	9.95192E-004	5	..........a	-327.66
	1042	208.6	-3.19854E-001	-5.22549E-008	0.00000E+000	-3.20000E-001	9.95292E-004	5	..........a	-327.66
	1043	208.8	-3.29906E-001	-5.31936E-008	0.00000E+000	-3.30000E-001	1.02019E-003	5	..........a	-327.66
	1044	209	-3.39807E-001	-5.40077E-008	0.00000E+000	-3.40000E-001	1.00629E-003	5	..........a	-327.66
	1045	209.2	-3.49855E-001	-5.47745E-008	0.00000E+000	-3.50000E-001	1.00529E-003	5	..........a	-327.66
	1046	209.4	-3.59875E-001	-5.54664E-008	0.00000E+000	-3.60000E-001	1.03559E-003	5	..........a	-327.66
	1047	209.6	-3.69858E-001	-5.61632E-008	0.00000E+000	-3.70000E-001	1.00899E-003	5	..........a	-327.66
	1048	209.8	-3.79820E-001	-5.67954E-008	0.00000E+000	-3.80000E-001	1.00879E-003	5	..........a	-327.66
	1049	210	-3.89909E-001	-5.74797E-008	0.00000E+000	-3.90000E-001	1.02429E-003	5	..........a	-327.66
	1050	210.2	-3.99877E-001	-5.80801E-008	0.00000E+000	-4.00000E-001	9.89492E-004	5	..........a	-327.66
	1051	210.4	-4.09889E-001	-5.87643E-008	0.00000E+000	-4.10000E-001	9.93992E-004	5	..........a	-327.66
	1052	210.6	-4.19793E-001	-5.94974E-008	0.00000E+000	-4.20000E-001	1.00129E-003	5	..........a	-327.66
	1053	210.8	-4.29842E-001	-6.02151E-008	0.00000E+000	-4.30000E-001	9.80092E-004	5	..........a	-327.66
	1054	211	-4.39856E-001	-6.10053E-008	0.00000E+000	-4.40000E-001	1.00869E-003	5	..........a	-327.66
	1055	211.2	-4.49838E-001	-6.18330E-008	0.00000E+000	-4.50000E-001	1.02089E-003	5	..........a	-327.66
	1056	211.4	-4.59797E-001	-6.27158E-008	0.00000E+000	-4.60000E-001	1.00119E-003	5	..........a	-327.66
	1057	211.6	-4.69845E-001	-6.35967E-008	0.00000E+000	-4.70000E-001	9.86392E-004	5	..........a	-327.66
	1058	211.8	-4.79857E-001	-6.45058E-008	0.00000E+000	-4.80000E-001	1.02849E-003	5	..........a	-327.66
	1059	212	-4.89840E-001	-6.54181E-008	0.00000E+000	-4.90000E-001	1.00659E-003	5	..........a	-327.66
	1060	212.2	-4.99818E-001	-6.63817E-008	0.00000E+000	-5.00000E-001	9.90292E-004	5	..........a	-327.66
	1061	212.4	-5.09844E-001	-6.73260E-008	0.00000E+000	-5.10000E-001	9.94292E-004	5	..........a	-327.66
	1062	212.6	-5.19907E-001	-6.83599E-008	0.00000E+000	-5.20000E-001	9.94092E-004	5	..........a	-327.66
	1063	212.8	-5.29840E-001	-6.94185E-008	0.00000E+000	-5.30000E-001	1.00469E-003	5	..........a	-327.66
	1064	213	-5.39766E-001	-7.05444E-008	0.00000E+000	-5.40000E-001	1.00049E-003	5	..........a	-327.66
	1065	213.2	-5.49850E-001	-7.17688E-008	0.00000E+000	-5.50000E-001	1.02829E-003	5	..........a	-327.66
	1066	213.4	-5.59877E-001	-7.30236E-008	0.00000E+000	-5.60000E-001	1.02609E-003	5	..........a	-327.66
	1067	213.6	-5.69867E-001	-7.44391E-008	0.00000E+000	-5.70000E-001	1.02319E-003	5	..........a	-327.66
	1068	213.8	-5.79797E-001	-7.58596E-008	0.00000E+000	-5.80000E-001	1.00029E-003	5	..........a	-327.66
	1069	214	-5.89859E-001	-7.74451E-008	0.00000E+000	-5.90000E-001	1.00409E-003	5	..........a	-327.66
	1070	214.2	-5.99848E-001	-7.91018E-008	0.00000E+000	-6.00000E-001	1.01909E-003	5	..........a	-327.66
CURVE5	TABLE
	Pt	T	Vf	Im	Vu	Sig	Ach	IERange	Over	Temp
	#	s	V vs. Ref.	A	V	V	V	#	bits	deg C
	1071	214.4	-5.89861E-001	-6.64842E-008	0.00000E+000	-5.90000E-001	1.01009E-003	5	..........a	-327.66
	1072	214.6	-5.79809E-001	-5.79922E-008	0.00000E+000	-5.80000E-001	1.01319E-003	5	..........a	-327.66
	1073	214.8	-5.69865E-001	-5.14608E-008	0.00000E+000	-5.70000E-001	1.03019E-003	5	..........a	-327.66
	1074	215	-5.59844E-001	-4.60606E-008	0.00000E+000	-5.60000E-001	9.96792E-004	5	..........a	-327.66
	1075	215.2	-5.49870E-001	-4.15181E-008	0.00000E+000	-5.50000E-001	1.01579E-003	5	..........a	-327.66
	1076	215.4	-5.39797E-001	-3.74465E-008	0.00000E+000	-5.40000E-001	1.00729E-003	5	..........a	-327.66
	1077	215.6	-5.29839E-001	-3.38700E-008	0.00000E+000	-5.30000E-001	1.01809E-003	5	..........a	-327.66
	1078	215.8	-5.19873E-001	-3.07008E-008	0.00000E+000	-5.20000E-001	1.01499E-003	5	..........a	-327.66
	1079	216	-5.09883E-001	-2.77603E-008	0.00000E+000	-5.10000E-001	1.01919E-003	5	..........a	-327.66
	1080	216.2	-4.99825E-001	-2.51378E-008	0.00000E+000	-5.00000E-001	1.01009E-003	5	..........a	-327.66
	1081	216.4	-4.89877E-001	-2.26648E-008	0.00000E+000	-4.90000E-001	9.91392E-004	5	..........a	-327.66
	1082	216.6	-4.79851E-001	-2.04431E-008	0.00000E+000	-4.80000E-001	1.01239E-003	5	..........a	-327.66
	1083	216.8	-4.69840E-001	-1.83175E-008	0.00000E+000	-4.70000E-001	9.97292E-004	5	..........a	-327.66
	1084	217	-4.59815E-001	-1.62989E-008	0.00000E+000	-4.60000E-001	9.93092E-004	5	..........a	-327.66
	1085	217.2	-4.49842E-001	-1.44490E-008	0.00000E+000	-4.50000E-001	9.99592E-004	5	..........a	-327.66
	1086	217.4	-4.39940E-001	-1.26772E-008	0.00000E+000	-4.40000E-001	1.00809E-003	5	..........a	-327.66
	1087	217.6	-4.29853E-001	-1.09770E-008	0.00000E+000	-4.30000E-001	1.02069E-003	5	..........a	-327.66
	1088	217.8	-4.19809E-001	-9.38982E-009	0.00000E+000	-4.20000E-001	9.87992E-004	5	..........a	-327.66
	1089	218	-4.09885E-001	-7.92640E-009	0.00000E+000	-4.10000E-001	1.01769E-003	5	..........a	-327.66
	1090	218.2	-3.99875E-001	-6.45873E-009	0.00000E+000	-4.00000E-001	9.99492E-004	5	..........a	-327.66
	1091	218.4	-3.89897E-001	-5.06026E-009	0.00000E+000	-3.90000E-001	1.01379E-003	5	..........a	-327.66
	1092	218.6	-3.79843E-001	-3.68872E-009	0.00000E+000	-3.80000E-001	9.99192E-004	5	..........a	-327.66
	1093	218.8	-3.69862E-001	-2.42598E-009	0.00000E+000	-3.70000E-001	9.90792E-004	5	..........a	-327.66
	1094	219	-3.59960E-001	-1.17827E-009	0.00000E+000	-3.60000E-001	1.02589E-003	5	..........a	-327.66
	1095	219.2	-3.49908E-001	-1.72842E-011	0.00000E+000	-3.50000E-001	9.90592E-004	5	..........a	-327.66
	1096	219.4	-3.39816E-001	1.21626E-009	0.00000E+000	-3.40000E-001	9.95292E-004	5	..........a	-327.66
	1097	219.6	-3.29955E-001	2.32423E-009	0.00000E+000	-3.30000E-001	1.02689E-003	5	..........a	-327.66
	1098	219.8	-3.19892E-001	3.43312E-009	0.00000E+000	-3.20000E-001	9.89192E-004	5	..........a	-327.66
	1099	220	-3.09919E-001	4.51046E-009	0.00000E+000	-3.10000E-001	1.00229E-003	5	..........a	-327.66
	1100	220.2	-2.99847E-001	5.52479E-009	0.00000E+000	-3.00000E-001	1.00009E-003	5	..........a	-327.66
	1101	220.4	-2.89921E-001	6.54779E-009	0.00000E+000	-2.90000E-001	1.03939E-003	5	..........a	-327.66
	1102	220.6	-2.79972E-001	7.55267E-009	0.00000E+000	-2.80000E-001	1.02289E-003	5	..........a	-327.66
	1103	220.8	-2.69888E-001	8.47990E-009	0.00000E+000	-2.70000E-001	9.95092E-004	5	..........a	-327.66
	1104	221	-2.59831E-001	9.41026E-009	0.00000E+000	-2.60000E-001	9.92792E-004	5	..........a	-327.66
	1105	221.2	-2.49890E-001	1.02754E-008	0.00000E+000	-2.50000E-001	9.95492E-004	5	..........a	-327.66
	1106	221.4	-2.39926E-001	1.11675E-008	0.00000E+000	-2.40000E-001	1.02119E-003	5	..........a	-327.66
	1107	221.6	-2.29924E-001	1.20115E-008	0.00000E+000	-2.30000E-001	1.00969E-003	5	..........a	-327.66
	1108	221.8	-2.19906E-001	1.28631E-008	0.00000E+000	-2.20000E-001	9.96392E-004	5	..........a	-327.66
	1109	222	-2.09939E-001	1.36665E-008	0.00000E+000	-2.10000E-001	1.02799E-003	5	..........a	-327.66
	1110	222.2	-1.99963E-001	1.45016E-008	0.00000E+000	-2.00000E-001	1.03149E-003	5	..........a	-327.66
	1111	222.4	-1.90112E-001	1.52785E-008	0.00000E+000	-1.90000E-001	9.85592E-004	5	..........a	-327.66
	1112	222.6	-1.79912E-001	1.60684E-008	0.00000E+000	-1.80000E-001	1.00679E-003	5	..........a	-327.66
	1113	222.8	-1.69889E-001	1.68595E-008	0.00000E+000	-1.70000E-001	1.02019E-003	5	..........a	-327.66
	1114	223	-1.60027E-001	1.76092E-008	0.00000E+000	-1.60000E-001	1.03709E-003	5	..........a	-327.66
	1115	223.2	-1.49973E-001	1.83649E-008	0.00000E+000	-1.50000E-001	1.02689E-003	5	..........a	-327.66
	1116	223.4	-1.39901E-001	1.90994E-008	0.00000E+000	-1.40000E-001	1.00449E-003	5	..........a	-327.66
	1117	223.6	-1.29934E-001	1.98424E-008	0.00000E+000	-1.30000E-001	1.02869E-003	5	..........a	-327.66
	1118	223.8	-1.19952E-001	2.05731E-008	0.00000E+000	-1.20000E-001	1.01569E-003	5	..........a	-327.66
	1119	224	-1.09957E-001	2.13001E-008	0.00000E+000	-1.10000E-001	1.00749E-003	5	..........a	-327.66
	1120	224.2	-9.98883E-002	2.20499E-008	0.00000E+000	-1.00000E-001	9.93292E-004	5	..........a	-327.66