File: data/raw/batch_data/20240509_K_GM0016_HL03_E03_CV50.DTA
EXPLAIN
TAG	CV
TITLE	LABEL	Cyclic Voltammetry	Test &Identifier
DATE	LABEL	5/9/2024	Date
TIME	LABEL	12:56:53	Time
NOTES	NOTES	1	&Notes...

PSTAT	PSTAT	REF600P-43058	Potentiostat
VINIT	POTEN	0.00000E+000	T	Initial &E (V)
VLIMIT1	POTEN	8.00000E-001	F	Scan Limit &1 (V)
VLIMIT2	POTEN	-6.00000E-001	F	Scan Limit &2 (V)
VFINAL	POTEN	0.00000E+000	T	Final &E (V)
SCANRATE	QUANT	4.99999E+001	&Scan Rate (mV/s)
STEPSIZE	QUANT	1.00000E+001	St&ep Size (mV)
CYCLES	IQUANT	4	C&ycles (#)
IMODE	SELECTOR	0	I/E Range &Mode
IRANGE	QUANT	1.00000E-005	&Max Current (mA)
AREA	QUANT	1.00000E+000	Electrode &Area (cm^2)
ELECTRODETYPE	SELECTOR	0	Electrode Type
STRIPPING	TOGGLE	F	Used for Stripping
POLARITY	TOGGLE	F	Signal Polarity
CONDIT	TWOPARAM	F	1.50000E+001	0.00000E+000	Conditionin&g	Time(s)	E(V)
DELAY	TWOPARAM	T	1.00000E+001	0.00000E+000	Init. De&lay	Time(s)	Stab.(mV/s)
EQDELAY	QUANT	1.00000E+001	Equil. &Time (s)
IRCOMP	SELECTOR	0	IRCom&p
PFCOR	QUANT	5.00000E+001	PF Corr. (ohm)
SAMPLINGMODE	SELECTOR	1	Sampling &Mode
OCVCURVE	TABLE	39
	Pt	T	Vf	Vm	Ach	Over	Temp
	#	s	V vs. Ref.	V	V	bits	deg C
	0	0.258333	-9.22112E-002	-9.22112E-002	2.38992E-004	..........a	-327.66
	1	0.516667	-9.22133E-002	-9.23194E-002	2.42592E-004	..........a	-327.66
	2	0.775	-9.22260E-002	-9.24251E-002	2.50592E-004	..........a	-327.66
	3	1.03333	-9.22622E-002	-9.25202E-002	2.35659E-004	..........a	-327.66
	4	1.29167	-9.23271E-002	-9.26347E-002	2.48126E-004	..........a	-327.66
	5	1.55	-9.24149E-002	-9.27318E-002	2.49592E-004	..........a	-327.66
	6	1.80833	-9.25148E-002	-9.28261E-002	2.54859E-004	..........a	-327.66
	7	2.06667	-9.26181E-002	-9.29238E-002	2.46259E-004	..........a	-327.66
	8	2.325	-9.27201E-002	-9.30310E-002	2.40792E-004	..........a	-327.66
	9	2.58333	-9.28200E-002	-9.31155E-002	2.43592E-004	..........a	-327.66
	10	2.84167	-9.29184E-002	-9.32063E-002	2.49659E-004	..........a	-327.66
	11	3.1	-9.30146E-002	-9.32927E-002	2.55126E-004	..........a	-327.66
	12	3.35833	-9.31077E-002	-9.33786E-002	2.37326E-004	..........a	-327.66
	13	3.61667	-9.31943E-002	-9.32886E-002	2.46259E-004	..........a	-327.66
	14	3.875	-9.32589E-002	-9.30704E-002	2.43259E-004	..........a	-327.66
	15	4.13333	-9.32713E-002	-9.28878E-002	2.44792E-004	..........a	-327.66
	16	4.39167	-9.32100E-002	-9.27226E-002	2.45392E-004	..........a	-327.66
	17	4.65	-9.30844E-002	-9.26237E-002	2.41459E-004	..........a	-327.66
	18	4.90833	-9.29300E-002	-9.25832E-002	2.55726E-004	..........a	-327.66
	19	5.16667	-9.27870E-002	-9.26132E-002	2.35526E-004	..........a	-327.66
	20	5.425	-9.26845E-002	-9.26753E-002	2.42526E-004	..........a	-327.66
	21	5.68333	-9.26364E-002	-9.27851E-002	2.32859E-004	..........a	-327.66
	22	5.94167	-9.26432E-002	-9.28951E-002	2.58726E-004	..........a	-327.66
	23	6.2	-9.26963E-002	-9.30183E-002	2.39392E-004	..........a	-327.66
	24	6.45833	-9.27830E-002	-9.31433E-002	2.52326E-004	..........a	-327.66
	25	6.71667	-9.28907E-002	-9.32838E-002	2.49259E-004	..........a	-327.66
	26	6.975	-9.30109E-002	-9.34131E-002	2.41726E-004	..........a	-327.66
	27	7.23333	-9.31384E-002	-9.35440E-002	2.49792E-004	..........a	-327.66
	28	7.49167	-9.32696E-002	-9.36730E-002	2.24059E-004	..........a	-327.66
	29	7.75	-9.34013E-002	-9.37951E-002	2.40526E-004	..........a	-327.66
	30	8.00833	-9.35318E-002	-9.39256E-002	2.41192E-004	..........a	-327.66
	31	8.26667	-9.36604E-002	-9.40494E-002	2.39859E-004	..........a	-327.66
	32	8.525	-9.37875E-002	-9.41688E-002	2.35126E-004	..........a	-327.66
	33	8.78333	-9.39131E-002	-9.42848E-002	2.37592E-004	..........a	-327.66
	34	9.04167	-9.40365E-002	-9.44051E-002	2.45592E-004	..........a	-327.66
	35	9.3	-9.41573E-002	-9.45112E-002	2.51592E-004	..........a	-327.66
	36	9.5583	-9.42755E-002	-9.46248E-002	2.31392E-004	..........a	-327.66
	37	9.8167	-9.43907E-002	-9.47287E-002	2.47192E-004	..........a	-327.66
	38	10.075	-9.45028E-002	-9.48200E-002	2.46592E-004	..........a	-327.66
EOC	QUANT	-0.0945028	Open Circuit (V)
PSTATMODEL	IQUANT	7	Pstat Model
PSTATSECTION	LABEL	REF600P-43058	Pstat Section
PSTATSERIALNO	LABEL	43058	Pstat Serial Number
CTRLMODE	IQUANT	1	Control Mode
ELECTROMETER	IQUANT	0	RE=0 or CS=1
IESTAB	IQUANT	2	I/E Stability
CASPEED	IQUANT	4	Control Amp Speed
CONVENTION	IQUANT	1	Current Convention
ICHRANGE	IQUANT	2	Ich Range
ICHRANGEMODE	TOGGLE	F	Ich Auto Range
ICHOFFSETENABLE	TOGGLE	F	Ich Offset Enable
ICHOFFSET	QUANT	0	Ich Offset (V)
ICHFILTER	IQUANT	2	Ich Filter
VCHRANGE	IQUANT	2	Vch Range
VCHRANGEMODE	TOGGLE	F	Vch Auto Range
VCHOFFSETENABLE	TOGGLE	F	Vch Offset Enable
VCHOFFSET	QUANT	0	Vch Offset (V)
VCHFILTER	IQUANT	2	Vch Filter
ACHRANGE	IQUANT	2	Ach Range
ACHOFFSETENABLE	TOGGLE	F	Ach Offset Enable
ACHOFFSET	QUANT	0	Ach Offset (V)
ACHFILTER	IQUANT	1	Ach Filter
IERANGELOWERLIMIT	IQUANT	1	I/E Range Lower Limit
IERANGEMODE	TOGGLE	T	I/E AutoRange
IERANGE	IQUANT	4	I/E Range
POSFEEDENABLE	TOGGLE	F	Positive Feedback IR Comp
POSFEEDRESISTANCE	QUANT	0	Positive Feedback Resistance (ohm)
ACHSELECT	IQUANT	4	Ach Select
SENSECABLEID	IQUANT	7	Sense Cable ID
PWRCABLEID	IQUANT	7	Power Cable ID
DCCALDATE	LABEL	3/22/2024	DC Calibration Date
ACCALDATE	LABEL	3/22/2024	AC Calibration Date
THERMOSELECT	IQUANT	1	Thermo Select
FRAMEWORKVERSION	LABEL	7.8.4	Framework Version
INSTRUMENTVERSION	LABEL	4.42	Instrument Version
CURVE1	TABLE
	Pt	T	Vf	Im	Vu	Sig	Ach	IERange	Over	Temp
	#	s	V vs. Ref.	A	V	V	V	#	bits	deg C
	0	0.2	-9.44419E-002	8.53228E-010	0.00000E+000	-9.45000E-002	1.01989E-003	5	..........a	-327.66
	1	0.4	-8.44709E-002	3.31994E-009	0.00000E+000	-8.45000E-002	1.02209E-003	5	..........a	-327.66
	2	0.6	-7.44526E-002	5.00019E-009	0.00000E+000	-7.45000E-002	9.97192E-004	5	..........a	-327.66
	3	0.8	-6.44054E-002	6.37558E-009	0.00000E+000	-6.45000E-002	1.00869E-003	5	..........a	-327.66
	4	1	-5.45028E-002	7.57689E-009	0.00000E+000	-5.45000E-002	9.99192E-004	5	..........a	-327.66
	5	1.2	-4.44412E-002	8.69614E-009	0.00000E+000	-4.45000E-002	9.99292E-004	5	..........a	-327.66
	6	1.4	-3.44719E-002	9.73978E-009	0.00000E+000	-3.45000E-002	9.83492E-004	5	..........a	-327.66
	7	1.6	-2.43832E-002	1.07397E-008	0.00000E+000	-2.45000E-002	1.01589E-003	5	..........a	-327.66
	8	1.8	-1.44840E-002	1.17714E-008	0.00000E+000	-1.45000E-002	1.00209E-003	5	..........a	-327.66
	9	2	-4.55931E-003	1.26741E-008	0.00000E+000	-4.49999E-003	9.95192E-004	5	..........a	-327.66
	10	2.2	5.56444E-003	1.36428E-008	0.00000E+000	5.50000E-003	1.00989E-003	5	..........a	-327.66
	11	2.4	1.55717E-002	1.46020E-008	0.00000E+000	1.55000E-002	1.01069E-003	5	..........a	-327.66
	12	2.6	2.54976E-002	1.55528E-008	0.00000E+000	2.55000E-002	1.01499E-003	5	..........a	-327.66
	13	2.8	3.55300E-002	1.65527E-008	0.00000E+000	3.55000E-002	1.01469E-003	5	..........a	-327.66
	14	3	4.55730E-002	1.75610E-008	0.00000E+000	4.55000E-002	1.01499E-003	5	..........a	-327.66
	15	3.2	5.55682E-002	1.85701E-008	0.00000E+000	5.55000E-002	1.02989E-003	5	..........a	-327.66
	16	3.4	6.55869E-002	1.96162E-008	0.00000E+000	6.55000E-002	9.99392E-004	5	..........a	-327.66
	17	3.6	7.55175E-002	2.06692E-008	0.00000E+000	7.55000E-002	9.97992E-004	5	..........a	-327.66
	18	3.8	8.55547E-002	2.18318E-008	0.00000E+000	8.55000E-002	9.85492E-004	5	..........a	-327.66
	19	4	9.55043E-002	2.29987E-008	0.00000E+000	9.55000E-002	1.00499E-003	5	..........a	-327.66
	20	4.2	1.05518E-001	2.43077E-008	0.00000E+000	1.05500E-001	1.01449E-003	5	..........a	-327.66
	21	4.4	1.15536E-001	2.56786E-008	0.00000E+000	1.15500E-001	1.01999E-003	5	..........a	-327.66
	22	4.6	1.25584E-001	2.72651E-008	0.00000E+000	1.25500E-001	1.01999E-003	5	..........a	-327.66
	23	4.8	1.35596E-001	2.89843E-008	0.00000E+000	1.35500E-001	1.01949E-003	5	..........a	-327.66
	24	5	1.45524E-001	3.09307E-008	0.00000E+000	1.45500E-001	1.01349E-003	5	..........a	-327.66
	25	5.2	1.55550E-001	3.42026E-008	0.00000E+000	1.55500E-001	1.01039E-003	5	..........a	-327.66
	26	5.4	1.65554E-001	4.78770E-008	0.00000E+000	1.65500E-001	1.00719E-003	5	..........a	-327.66
	27	5.6	1.75568E-001	7.49411E-008	0.00000E+000	1.75500E-001	1.01249E-003	5	..........a	-327.66
	28	5.8	1.85517E-001	5.92337E-008	0.00000E+000	1.85500E-001	1.01969E-003	5	..........a	-327.66
	29	6	1.95538E-001	4.71660E-008	0.00000E+000	1.95500E-001	9.99792E-004	5	..........a	-327.66
	30	6.2	2.05486E-001	4.51376E-008	0.00000E+000	2.05500E-001	1.01369E-003	5	..........a	-327.66
	31	6.4	2.15570E-001	4.57089E-008	0.00000E+000	2.15500E-001	9.95992E-004	5	..........a	-327.66
	32	6.6	2.25481E-001	4.70466E-008	0.00000E+000	2.25500E-001	9.97392E-004	5	..........a	-327.66
	33	6.8	2.35453E-001	4.86773E-008	0.00000E+000	2.35500E-001	1.03399E-003	5	..........a	-327.66
	34	7	2.45505E-001	5.05158E-008	0.00000E+000	2.45500E-001	9.75492E-004	5	..........a	-327.66
	35	7.2	2.55561E-001	5.24263E-008	0.00000E+000	2.55500E-001	1.00379E-003	5	..........a	-327.66
	36	7.4	2.65489E-001	5.43947E-008	0.00000E+000	2.65500E-001	1.00219E-003	5	..........a	-327.66
	37	7.6	2.75470E-001	5.63743E-008	0.00000E+000	2.75500E-001	1.00269E-003	5	..........a	-327.66
	38	7.8	2.85507E-001	5.84153E-008	0.00000E+000	2.85500E-001	9.87292E-004	5	..........a	-327.66
	39	8	2.95586E-001	6.04638E-008	0.00000E+000	2.95500E-001	1.00049E-003	5	..........a	-327.66
	40	8.2	3.05480E-001	6.26535E-008	0.00000E+000	3.05500E-001	1.01959E-003	5	..........a	-327.66
	41	8.4	3.15491E-001	6.48254E-008	0.00000E+000	3.15500E-001	9.89392E-004	5	..........a	-327.66
	42	8.6	3.25525E-001	6.71133E-008	0.00000E+000	3.25500E-001	9.81792E-004	5	..........a	-327.66
	43	8.8	3.35549E-001	6.95893E-008	0.00000E+000	3.35500E-001	1.01029E-003	5	..........a	-327.66
	44	9	3.45496E-001	7.21196E-008	0.00000E+000	3.45500E-001	1.00159E-003	5	..........a	-327.66
	45	9.2	3.55472E-001	7.48483E-008	0.00000E+000	3.55500E-001	1.01449E-003	5	..........a	-327.66
	46	9.4	3.65493E-001	7.76821E-008	0.00000E+000	3.65500E-001	9.97492E-004	5	..........a	-327.66
	47	9.6	3.75549E-001	8.06622E-008	0.00000E+000	3.75500E-001	1.02109E-003	5	..........a	-327.66
	48	9.8	3.85473E-001	8.38313E-008	0.00000E+000	3.85500E-001	1.00679E-003	5	..........a	-327.66
	49	10	3.95509E-001	8.71122E-008	0.00000E+000	3.95500E-001	1.00099E-003	5	..........a	-327.66
	50	10.2	4.05484E-001	9.04958E-008	0.00000E+000	4.05500E-001	1.00409E-003	5	..........a	-327.66
	51	10.4	4.15538E-001	9.40218E-008	0.00000E+000	4.15500E-001	9.97192E-004	5	..........a	-327.66
	52	10.6	4.25446E-001	9.75442E-008	0.00000E+000	4.25500E-001	1.00069E-003	5	..........a	-327.66
	53	10.8	4.35419E-001	1.01170E-007	0.00000E+000	4.35500E-001	9.94392E-004	5	..........a	-327.66
	54	11	4.45465E-001	1.04864E-007	0.00000E+000	4.45500E-001	9.80092E-004	5	..........a	-327.66
	55	11.2	4.55553E-001	1.08578E-007	0.00000E+000	4.55500E-001	1.01009E-003	5	..........a	-327.66
	56	11.4	4.65439E-001	1.12341E-007	0.00000E+000	4.65500E-001	1.01149E-003	5	..........a	-327.66
	57	11.6	4.75467E-001	1.16131E-007	0.00000E+000	4.75500E-001	1.00519E-003	5	..........a	-327.66
	58	11.8	4.85440E-001	1.19991E-007	0.00000E+000	4.85500E-001	9.91592E-004	5	..........a	-327.66
	59	12	4.95500E-001	1.23862E-007	0.00000E+000	4.95500E-001	9.97092E-004	5	..........a	-327.66
	60	12.2	5.05426E-001	1.27791E-007	0.00000E+000	5.05500E-001	1.02259E-003	5	..........a	-327.66
	61	12.4	5.15405E-001	1.31786E-007	0.00000E+000	5.15500E-001	1.00829E-003	5	..........a	-327.66
	62	12.6	5.25435E-001	1.35780E-007	0.00000E+000	5.25500E-001	9.97392E-004	5	..........a	-327.66
	63	12.8	5.35523E-001	1.39914E-007	0.00000E+000	5.35500E-001	9.89392E-004	5	..........a	-327.66
	64	13	5.45429E-001	1.44060E-007	0.00000E+000	5.45500E-001	9.80092E-004	5	..........a	-327.66
	65	13.2	5.55430E-001	1.48241E-007	0.00000E+000	5.55500E-001	1.00709E-003	5	..........a	-327.66
	66	13.4	5.65408E-001	1.52425E-007	0.00000E+000	5.65500E-001	1.00359E-003	5	..........a	-327.66
	67	13.6	5.75463E-001	1.56646E-007	0.00000E+000	5.75500E-001	9.97592E-004	5	..........a	-327.66
	68	13.8	5.85404E-001	1.60884E-007	0.00000E+000	5.85500E-001	1.00339E-003	5	..........a	-327.66
	69	14	5.95379E-001	1.65104E-007	0.00000E+000	5.95500E-001	9.86792E-004	5	..........a	-327.66
	70	14.2	6.05419E-001	1.69387E-007	0.00000E+000	6.05500E-001	1.00119E-003	5	..........a	-327.66
	71	14.4	6.15474E-001	1.73678E-007	0.00000E+000	6.15500E-001	9.86192E-004	5	..........a	-327.66
	72	14.6	6.25378E-001	1.77943E-007	0.00000E+000	6.25500E-001	9.96092E-004	5	..........a	-327.66
	73	14.8	6.35339E-001	1.82254E-007	0.00000E+000	6.35500E-001	1.00929E-003	5	..........a	-327.66
	74	15	6.45355E-001	1.86624E-007	0.00000E+000	6.45500E-001	1.00829E-003	5	..........a	-327.66
	75	15.2	6.55431E-001	1.91091E-007	0.00000E+000	6.55500E-001	1.01139E-003	5	..........a	-327.66
	76	15.4	6.65343E-001	1.95572E-007	0.00000E+000	6.65500E-001	1.01909E-003	5	..........a	-327.66
	77	15.6	6.75374E-001	2.00235E-007	0.00000E+000	6.75500E-001	1.01469E-003	5	..........a	-327.66
	78	15.8	6.85345E-001	2.04971E-007	0.00000E+000	6.85500E-001	9.92092E-004	5	..........a	-327.66
	79	16	6.95428E-001	2.09900E-007	0.00000E+000	6.95500E-001	9.97292E-004	5	..........a	-327.66
	80	16.2	7.05385E-001	2.14925E-007	0.00000E+000	7.05500E-001	1.00159E-003	5	..........a	-327.66
	81	16.4	7.15341E-001	2.20096E-007	0.00000E+000	7.15500E-001	1.01149E-003	5	..........a	-327.66
	82	16.6	7.25374E-001	2.25420E-007	0.00000E+000	7.25500E-001	9.95992E-004	5	..........a	-327.66
	83	16.8	7.35482E-001	2.30858E-007	0.00000E+000	7.35500E-001	9.98892E-004	5	..........a	-327.66
	84	17	7.45350E-001	2.36361E-007	0.00000E+000	7.45500E-001	1.01449E-003	5	..........a	-327.66
	85	17.2	7.55404E-001	2.42008E-007	0.00000E+000	7.55500E-001	9.98692E-004	5	..........a	-327.66
	86	17.4	7.65359E-001	2.47831E-007	0.00000E+000	7.65500E-001	1.01089E-003	5	..........a	-327.66
	87	17.6	7.75404E-001	2.53737E-007	0.00000E+000	7.75500E-001	9.81792E-004	5	..........a	-327.66
	88	17.8	7.85311E-001	2.59768E-007	0.00000E+000	7.85500E-001	9.96692E-004	5	..........a	-327.66
	89	18	7.95319E-001	2.66042E-007	0.00000E+000	7.95500E-001	9.84892E-004	5	..........a	-327.66
	90	18.2	7.85353E-001	2.21285E-007	0.00000E+000	7.85500E-001	1.02839E-003	5	..........a	-327.66
	91	18.4	7.75450E-001	1.91420E-007	0.00000E+000	7.75500E-001	9.92292E-004	5	..........a	-327.66
	92	18.6	7.65398E-001	1.68905E-007	0.00000E+000	7.65500E-001	9.99892E-004	5	..........a	-327.66
	93	18.8	7.55404E-001	1.50980E-007	0.00000E+000	7.55500E-001	9.92992E-004	5	..........a	-327.66
	94	19	7.45379E-001	1.36272E-007	0.00000E+000	7.45500E-001	1.01219E-003	5	..........a	-327.66
	95	19.2	7.35526E-001	1.23777E-007	0.00000E+000	7.35500E-001	1.00199E-003	5	..........a	-327.66
	96	19.4	7.25419E-001	1.12980E-007	0.00000E+000	7.25500E-001	1.01349E-003	5	..........a	-327.66
	97	19.6	7.15391E-001	1.03559E-007	0.00000E+000	7.15500E-001	1.01259E-003	5	..........a	-327.66
	98	19.8	7.05396E-001	9.51781E-008	0.00000E+000	7.05500E-001	1.01279E-003	5	..........a	-327.66
	99	20	6.95503E-001	8.76952E-008	0.00000E+000	6.95500E-001	1.01019E-003	5	..........a	-327.66
	100	20.2	6.85406E-001	8.08811E-008	0.00000E+000	6.85500E-001	9.84492E-004	5	..........a	-327.66
	101	20.4	6.75396E-001	7.47338E-008	0.00000E+000	6.75500E-001	1.01959E-003	5	..........a	-327.66
	102	20.6	6.65411E-001	6.90651E-008	0.00000E+000	6.65500E-001	9.92992E-004	5	..........a	-327.66
	103	20.8	6.55483E-001	6.39014E-008	0.00000E+000	6.55500E-001	1.01719E-003	5	..........a	-327.66
	104	21	6.45435E-001	5.90793E-008	0.00000E+000	6.45500E-001	1.00819E-003	5	..........a	-327.66
	105	21.2	6.35409E-001	5.46109E-008	0.00000E+000	6.35500E-001	1.02289E-003	5	..........a	-327.66
	106	21.4	6.25437E-001	5.04492E-008	0.00000E+000	6.25500E-001	1.00529E-003	5	..........a	-327.66
	107	21.6	6.15536E-001	4.65789E-008	0.00000E+000	6.15500E-001	1.01009E-003	5	..........a	-327.66
	108	21.8	6.05495E-001	4.29009E-008	0.00000E+000	6.05500E-001	9.99492E-004	5	..........a	-327.66
	109	22	5.95472E-001	3.94455E-008	0.00000E+000	5.95500E-001	1.00639E-003	5	..........a	-327.66
	110	22.2	5.85477E-001	3.62183E-008	0.00000E+000	5.85500E-001	1.00929E-003	5	..........a	-327.66
	111	22.4	5.75532E-001	3.31496E-008	0.00000E+000	5.75500E-001	9.80592E-004	5	..........a	-327.66
	112	22.6	5.65476E-001	3.02339E-008	0.00000E+000	5.65500E-001	1.00469E-003	5	..........a	-327.66
	113	22.8	5.55471E-001	2.74391E-008	0.00000E+000	5.55500E-001	1.02059E-003	5	..........a	-327.66
	114	23	5.45485E-001	2.47518E-008	0.00000E+000	5.45500E-001	9.97992E-004	5	..........a	-327.66
	115	23.2	5.35533E-001	2.22238E-008	0.00000E+000	5.35500E-001	1.02889E-003	5	..........a	-327.66
	116	23.4	5.25524E-001	1.97445E-008	0.00000E+000	5.25500E-001	9.91992E-004	5	..........a	-327.66
	117	23.6	5.15444E-001	1.73735E-008	0.00000E+000	5.15500E-001	9.96892E-004	5	..........a	-327.66
	118	23.8	5.05481E-001	1.50937E-008	0.00000E+000	5.05500E-001	1.00359E-003	5	..........a	-327.66
	119	24	4.95558E-001	1.28897E-008	0.00000E+000	4.95500E-001	1.01739E-003	5	..........a	-327.66
	120	24.2	4.85486E-001	1.07442E-008	0.00000E+000	4.85500E-001	9.90992E-004	5	..........a	-327.66
	121	24.4	4.75538E-001	8.64389E-009	0.00000E+000	4.75500E-001	1.00649E-003	5	..........a	-327.66
	122	24.6	4.65485E-001	6.59177E-009	0.00000E+000	4.65500E-001	9.89492E-004	5	..........a	-327.66
	123	24.8	4.55555E-001	4.56112E-009	0.00000E+000	4.55500E-001	1.00699E-003	5	..........a	-327.66
	124	25	4.45529E-001	2.54883E-009	0.00000E+000	4.45500E-001	1.01469E-003	5	..........a	-327.66
	125	25.2	4.35471E-001	5.64458E-010	0.00000E+000	4.35500E-001	1.00559E-003	5	..........a	-327.66
	126	25.4	4.25490E-001	-1.44553E-009	0.00000E+000	4.25500E-001	1.01869E-003	5	..........a	-327.66
	127	25.6	4.15579E-001	-3.44850E-009	0.00000E+000	4.15500E-001	1.01409E-003	5	..........a	-327.66
	128	25.8	4.05526E-001	-5.39235E-009	0.00000E+000	4.05500E-001	9.85492E-004	5	..........a	-327.66
	129	26	3.95552E-001	-7.40071E-009	0.00000E+000	3.95500E-001	1.01279E-003	5	..........a	-327.66
	130	26.2	3.85531E-001	-9.44613E-009	0.00000E+000	3.85500E-001	1.01819E-003	5	..........a	-327.66
	131	26.4	3.75577E-001	-1.15671E-008	0.00000E+000	3.75500E-001	1.02449E-003	5	..........a	-327.66
	132	26.6	3.65551E-001	-1.36070E-008	0.00000E+000	3.65500E-001	1.00379E-003	5	..........a	-327.66
	133	26.8	3.55572E-001	-1.56525E-008	0.00000E+000	3.55500E-001	1.01029E-003	5	..........a	-327.66
	134	27	3.45556E-001	-1.77816E-008	0.00000E+000	3.45500E-001	9.94692E-004	5	..........a	-327.66
	135	27.2	3.35599E-001	-2.00298E-008	0.00000E+000	3.35500E-001	1.00819E-003	5	..........a	-327.66
	136	27.4	3.25577E-001	-2.23775E-008	0.00000E+000	3.25500E-001	1.00699E-003	5	..........a	-327.66
	137	27.6	3.15568E-001	-2.47301E-008	0.00000E+000	3.15500E-001	1.02279E-003	5	..........a	-327.66
	138	27.8	3.05516E-001	-2.71232E-008	0.00000E+000	3.05500E-001	1.01519E-003	5	..........a	-327.66
	139	28	2.95629E-001	-2.96655E-008	0.00000E+000	2.95500E-001	1.01409E-003	5	..........a	-327.66
	140	28.2	2.85549E-001	-3.22757E-008	0.00000E+000	2.85500E-001	1.01589E-003	5	..........a	-327.66
	141	28.4	2.75526E-001	-3.49124E-008	0.00000E+000	2.75500E-001	1.01079E-003	5	..........a	-327.66
	142	28.6	2.65543E-001	-3.75614E-008	0.00000E+000	2.65500E-001	1.01569E-003	5	..........a	-327.66
	143	28.8	2.55598E-001	-4.02779E-008	0.00000E+000	2.55500E-001	1.00829E-003	5	..........a	-327.66
	144	29	2.45570E-001	-4.30114E-008	0.00000E+000	2.45500E-001	9.98792E-004	5	..........a	-327.66
	145	29.2	2.35557E-001	-4.56226E-008	0.00000E+000	2.35500E-001	1.01309E-003	5	..........a	-327.66
	146	29.4	2.25540E-001	-4.80906E-008	0.00000E+000	2.25500E-001	1.01779E-003	5	..........a	-327.66
	147	29.6	2.15627E-001	-5.03643E-008	0.00000E+000	2.15500E-001	1.02359E-003	5	..........a	-327.66
	148	29.8	2.05552E-001	-5.24391E-008	0.00000E+000	2.05500E-001	9.84792E-004	5	..........a	-327.66
	149	30	1.95607E-001	-5.39785E-008	0.00000E+000	1.95500E-001	1.00839E-003	5	..........a	-327.66
	150	30.2	1.85606E-001	-5.51211E-008	0.00000E+000	1.85500E-001	1.01689E-003	5	..........a	-327.66
	151	30.4	1.75622E-001	-5.57434E-008	0.00000E+000	1.75500E-001	1.02419E-003	5	..........a	-327.66
	152	30.6	1.65630E-001	-5.58154E-008	0.00000E+000	1.65500E-001	1.00199E-003	5	..........a	-327.66
	153	30.8	1.55595E-001	-5.53680E-008	0.00000E+000	1.55500E-001	1.00859E-003	5	..........a	-327.66
	154	31	1.45579E-001	-5.44463E-008	0.00000E+000	1.45500E-001	1.01409E-003	5	..........a	-327.66
	155	31.2	1.35638E-001	-5.30668E-008	0.00000E+000	1.35500E-001	1.01889E-003	5	..........a	-327.66
	156	31.4	1.25643E-001	-5.14023E-008	0.00000E+000	1.25500E-001	1.00959E-003	5	..........a	-327.66
	157	31.6	1.15604E-001	-4.95822E-008	0.00000E+000	1.15500E-001	1.00639E-003	5	..........a	-327.66
	158	31.8	1.05576E-001	-4.77851E-008	0.00000E+000	1.05500E-001	1.02569E-003	5	..........a	-327.66
	159	32	9.56207E-002	-4.61122E-008	0.00000E+000	9.55000E-002	1.01139E-003	5	..........a	-327.66
	160	32.2	8.56279E-002	-4.46325E-008	0.00000E+000	8.55000E-002	1.01849E-003	5	..........a	-327.66
	161	32.4	7.55737E-002	-4.32926E-008	0.00000E+000	7.55000E-002	1.01459E-003	5	..........a	-327.66
	162	32.6	6.56485E-002	-4.20372E-008	0.00000E+000	6.55000E-002	9.91092E-004	5	..........a	-327.66
	163	32.8	5.56172E-002	-4.06491E-008	0.00000E+000	5.55000E-002	9.99092E-004	5	..........a	-327.66
	164	33	4.56370E-002	-3.94655E-008	0.00000E+000	4.55000E-002	1.01179E-003	5	..........a	-327.66
	165	33.2	3.56160E-002	-3.84603E-008	0.00000E+000	3.55000E-002	9.93392E-004	5	..........a	-327.66
	166	33.4	2.55261E-002	-3.76713E-008	0.00000E+000	2.55000E-002	1.02149E-003	5	..........a	-327.66
	167	33.6	1.55898E-002	-3.71262E-008	0.00000E+000	1.55000E-002	1.00299E-003	5	..........a	-327.66
	168	33.8	5.62139E-003	-3.70175E-008	0.00000E+000	5.50000E-003	1.00149E-003	5	..........a	-327.66
	169	34	-4.42881E-003	-3.75048E-008	0.00000E+000	-4.49999E-003	1.00119E-003	5	..........a	-327.66
	170	34.2	-1.44149E-002	-3.72204E-008	0.00000E+000	-1.45000E-002	9.91592E-004	5	..........a	-327.66
	171	34.4	-2.43740E-002	-3.72367E-008	0.00000E+000	-2.45000E-002	1.01309E-003	5	..........a	-327.66
	172	34.6	-3.43956E-002	-3.72856E-008	0.00000E+000	-3.45000E-002	9.96092E-004	5	..........a	-327.66
	173	34.8	-4.44141E-002	-3.73348E-008	0.00000E+000	-4.45000E-002	1.02109E-003	5	..........a	-327.66
	174	35	-5.44463E-002	-3.76422E-008	0.00000E+000	-5.45000E-002	1.02639E-003	5	..........a	-327.66
	175	35.2	-6.43787E-002	-3.78916E-008	0.00000E+000	-6.45000E-002	1.01079E-003	5	..........a	-327.66
	176	35.4	-7.44182E-002	-3.81031E-008	0.00000E+000	-7.45000E-002	9.94292E-004	5	..........a	-327.66
	177	35.6	-8.44475E-002	-3.84039E-008	0.00000E+000	-8.45000E-002	9.97192E-004	5	..........a	-327.66
	178	35.8	-9.44133E-002	-3.90196E-008	0.00000E+000	-9.45000E-002	1.02349E-003	5	..........a	-327.66
	179	36	-1.04399E-001	-3.92994E-008	0.00000E+000	-1.04500E-001	1.02069E-003	5	..........a	-327.66
	180	36.2	-1.14432E-001	-3.97200E-008	0.00000E+000	-1.14500E-001	1.00609E-003	5	..........a	-327.66
	181	36.4	-1.24423E-001	-4.01475E-008	0.00000E+000	-1.24500E-001	1.00229E-003	5	..........a	-327.66
	182	36.6	-1.34448E-001	-4.08583E-008	0.00000E+000	-1.34500E-001	9.93292E-004	5	..........a	-327.66
	183	36.8	-1.44386E-001	-4.15517E-008	0.00000E+000	-1.44500E-001	9.94192E-004	5	..........a	-327.66
	184	37	-1.54430E-001	-4.25816E-008	0.00000E+000	-1.54500E-001	1.01159E-003	5	..........a	-327.66
	185	37.2	-1.64385E-001	-4.33896E-008	0.00000E+000	-1.64500E-001	1.02019E-003	5	..........a	-327.66
	186	37.4	-1.74401E-001	-4.43651E-008	0.00000E+000	-1.74500E-001	1.01659E-003	5	..........a	-327.66
	187	37.6	-1.84373E-001	-4.54276E-008	0.00000E+000	-1.84500E-001	1.00119E-003	5	..........a	-327.66
	188	37.8	-1.94399E-001	-4.62266E-008	0.00000E+000	-1.94500E-001	1.00809E-003	5	..........a	-327.66
	189	38	-2.04417E-001	-4.73800E-008	0.00000E+000	-2.04500E-001	1.02209E-003	5	..........a	-327.66
	190	38.2	-2.14419E-001	-4.82540E-008	0.00000E+000	-2.14500E-001	9.99792E-004	5	..........a	-327.66
	191	38.4	-2.24345E-001	-4.91907E-008	0.00000E+000	-2.24500E-001	1.01349E-003	5	..........a	-327.66
	192	38.6	-2.34340E-001	-5.02269E-008	0.00000E+000	-2.34500E-001	9.95192E-004	5	..........a	-327.66
	193	38.8	-2.44353E-001	-5.10337E-008	0.00000E+000	-2.44500E-001	1.02039E-003	5	..........a	-327.66
	194	39	-2.54402E-001	-5.20923E-008	0.00000E+000	-2.54500E-001	9.92192E-004	5	..........a	-327.66
	195	39.2	-2.64394E-001	-5.28308E-008	0.00000E+000	-2.64500E-001	1.01389E-003	5	..........a	-327.66
	196	39.4	-2.74351E-001	-5.38515E-008	0.00000E+000	-2.74500E-001	1.00529E-003	5	..........a	-327.66
	197	39.6	-2.84356E-001	-5.47562E-008	0.00000E+000	-2.84500E-001	9.96992E-004	5	..........a	-327.66
	198	39.8	-2.94358E-001	-5.58307E-008	0.00000E+000	-2.94500E-001	1.02919E-003	5	..........a	-327.66
	199	40	-3.04351E-001	-5.68703E-008	0.00000E+000	-3.04500E-001	1.01949E-003	5	..........a	-327.66
	200	40.2	-3.14356E-001	-5.80181E-008	0.00000E+000	-3.14500E-001	1.00419E-003	5	..........a	-327.66
	201	40.4	-3.24366E-001	-5.92237E-008	0.00000E+000	-3.24500E-001	9.97992E-004	5	..........a	-327.66
	202	40.6	-3.34420E-001	-6.03965E-008	0.00000E+000	-3.34500E-001	1.01159E-003	5	..........a	-327.66
	203	40.8	-3.44300E-001	-6.13390E-008	0.00000E+000	-3.44500E-001	1.00699E-003	5	..........a	-327.66
	204	41	-3.54359E-001	-6.27412E-008	0.00000E+000	-3.54500E-001	9.94692E-004	5	..........a	-327.66
	205	41.2	-3.64417E-001	-6.35761E-008	0.00000E+000	-3.64500E-001	1.02109E-003	5	..........a	-327.66
	206	41.4	-3.74357E-001	-6.47384E-008	0.00000E+000	-3.74500E-001	1.00739E-003	5	..........a	-327.66
	207	41.6	-3.84371E-001	-6.56974E-008	0.00000E+000	-3.84500E-001	1.02999E-003	5	..........a	-327.66
	208	41.8	-3.94358E-001	-6.70069E-008	0.00000E+000	-3.94500E-001	1.00549E-003	5	..........a	-327.66
	209	42	-4.04393E-001	-6.81942E-008	0.00000E+000	-4.04500E-001	1.03179E-003	5	..........a	-327.66
	210	42.2	-4.14361E-001	-6.96065E-008	0.00000E+000	-4.14500E-001	1.01319E-003	5	..........a	-327.66
	211	42.4	-4.24297E-001	-7.11428E-008	0.00000E+000	-4.24500E-001	9.92392E-004	5	..........a	-327.66
	212	42.6	-4.34334E-001	-7.24169E-008	0.00000E+000	-4.34500E-001	1.00869E-003	5	..........a	-327.66
	213	42.8	-4.44366E-001	-7.41298E-008	0.00000E+000	-4.44500E-001	1.01839E-003	5	..........a	-327.66
	214	43	-4.54330E-001	-7.56583E-008	0.00000E+000	-4.54500E-001	1.01539E-003	5	..........a	-327.66
	215	43.2	-4.64321E-001	-7.74037E-008	0.00000E+000	-4.64500E-001	1.01799E-003	5	..........a	-327.66
	216	43.4	-4.74307E-001	-7.90229E-008	0.00000E+000	-4.74500E-001	1.00079E-003	5	..........a	-327.66
	217	43.6	-4.84342E-001	-8.08900E-008	0.00000E+000	-4.84500E-001	1.02429E-003	5	..........a	-327.66
	218	43.8	-4.94369E-001	-8.26195E-008	0.00000E+000	-4.94500E-001	1.01909E-003	5	..........a	-327.66
	219	44	-5.04291E-001	-8.47579E-008	0.00000E+000	-5.04500E-001	1.01609E-003	5	..........a	-327.66
	220	44.2	-5.14301E-001	-8.67042E-008	0.00000E+000	-5.14500E-001	1.01239E-003	5	..........a	-327.66
	221	44.4	-5.24318E-001	-8.86889E-008	0.00000E+000	-5.24500E-001	1.02379E-003	5	..........a	-327.66
	222	44.6	-5.34341E-001	-9.05558E-008	0.00000E+000	-5.34500E-001	9.94592E-004	5	..........a	-327.66
	223	44.8	-5.44357E-001	-9.28178E-008	0.00000E+000	-5.44500E-001	1.02319E-003	5	..........a	-327.66
	224	45	-5.54294E-001	-9.50286E-008	0.00000E+000	-5.54500E-001	1.00289E-003	5	..........a	-327.66
	225	45.2	-5.64336E-001	-9.71774E-008	0.00000E+000	-5.64500E-001	1.01889E-003	5	..........a	-327.66
	226	45.4	-5.74331E-001	-9.99051E-008	0.00000E+000	-5.74500E-001	1.01589E-003	5	..........a	-327.66
	227	45.6	-5.84310E-001	-1.02566E-007	0.00000E+000	-5.84500E-001	1.00889E-003	5	..........a	-327.66
	228	45.8	-5.94258E-001	-1.04984E-007	0.00000E+000	-5.94500E-001	9.80392E-004	5	..........a	-327.66
CURVE2	TABLE
	Pt	T	Vf	Im	Vu	Sig	Ach	IERange	Over	Temp
	#	s	V vs. Ref.	A	V	V	V	#	bits	deg C
	229	46	-5.89840E-001	-9.53918E-008	0.00000E+000	-5.90000E-001	1.00239E-003	5	..........a	-327.66
	230	46.2	-5.79802E-001	-8.47468E-008	0.00000E+000	-5.80000E-001	9.79792E-004	5	..........a	-327.66
	231	46.4	-5.69858E-001	-7.71435E-008	0.00000E+000	-5.70000E-001	1.02789E-003	5	..........a	-327.66
	232	46.6	-5.59872E-001	-7.05759E-008	0.00000E+000	-5.60000E-001	1.00919E-003	5	..........a	-327.66
	233	46.8	-5.49858E-001	-6.54406E-008	0.00000E+000	-5.50000E-001	1.00799E-003	5	..........a	-327.66
	234	47	-5.39775E-001	-6.03457E-008	0.00000E+000	-5.40000E-001	1.00579E-003	5	..........a	-327.66
	235	47.2	-5.29833E-001	-5.59548E-008	0.00000E+000	-5.30000E-001	1.00639E-003	5	..........a	-327.66
	236	47.4	-5.19854E-001	-5.21361E-008	0.00000E+000	-5.20000E-001	1.01729E-003	5	..........a	-327.66
	237	47.6	-5.09866E-001	-4.82303E-008	0.00000E+000	-5.10000E-001	1.00849E-003	5	..........a	-327.66
	238	47.8	-4.99818E-001	-4.49450E-008	0.00000E+000	-5.00000E-001	9.80992E-004	5	..........a	-327.66
	239	48	-4.89854E-001	-4.16274E-008	0.00000E+000	-4.90000E-001	1.00279E-003	5	..........a	-327.66
	240	48.2	-4.79876E-001	-3.85990E-008	0.00000E+000	-4.80000E-001	1.01589E-003	5	..........a	-327.66
	241	48.4	-4.69840E-001	-3.57047E-008	0.00000E+000	-4.70000E-001	9.97892E-004	5	..........a	-327.66
	242	48.6	-4.59826E-001	-3.27870E-008	0.00000E+000	-4.60000E-001	9.86392E-004	5	..........a	-327.66
	243	48.8	-4.49840E-001	-3.02403E-008	0.00000E+000	-4.50000E-001	9.92492E-004	5	..........a	-327.66
	244	49	-4.39916E-001	-2.78500E-008	0.00000E+000	-4.40000E-001	1.00699E-003	5	..........a	-327.66
	245	49.2	-4.29852E-001	-2.55825E-008	0.00000E+000	-4.30000E-001	1.00439E-003	5	..........a	-327.66
	246	49.4	-4.19841E-001	-2.32446E-008	0.00000E+000	-4.20000E-001	9.95492E-004	5	..........a	-327.66
	247	49.6	-4.09864E-001	-2.09532E-008	0.00000E+000	-4.10000E-001	1.02529E-003	5	..........a	-327.66
	248	49.8	-3.99833E-001	-1.87746E-008	0.00000E+000	-4.00000E-001	1.00339E-003	5	..........a	-327.66
	249	50	-3.89946E-001	-1.66637E-008	0.00000E+000	-3.90000E-001	1.01279E-003	5	..........a	-327.66
	250	50.2	-3.79834E-001	-1.48596E-008	0.00000E+000	-3.80000E-001	1.00509E-003	5	..........a	-327.66
	251	50.4	-3.69884E-001	-1.30305E-008	0.00000E+000	-3.70000E-001	9.99992E-004	5	..........a	-327.66
	252	50.6	-3.59895E-001	-1.12615E-008	0.00000E+000	-3.60000E-001	1.00729E-003	5	..........a	-327.66
	253	50.8	-3.49865E-001	-9.60228E-009	0.00000E+000	-3.50000E-001	1.01079E-003	5	..........a	-327.66
	254	51	-3.39796E-001	-7.92486E-009	0.00000E+000	-3.40000E-001	9.73392E-004	5	..........a	-327.66
	255	51.2	-3.29889E-001	-6.34852E-009	0.00000E+000	-3.30000E-001	1.01709E-003	5	..........a	-327.66
	256	51.4	-3.19849E-001	-4.95919E-009	0.00000E+000	-3.20000E-001	9.99192E-004	5	..........a	-327.66
	257	51.6	-3.09867E-001	-3.47030E-009	0.00000E+000	-3.10000E-001	1.02149E-003	5	..........a	-327.66
	258	51.8	-2.99895E-001	-2.00220E-009	0.00000E+000	-3.00000E-001	9.91592E-004	5	..........a	-327.66
	259	52	-2.89912E-001	-6.23327E-010	0.00000E+000	-2.90000E-001	9.95792E-004	5	..........a	-327.66
	260	52.2	-2.79933E-001	7.21333E-010	0.00000E+000	-2.80000E-001	1.01699E-003	5	..........a	-327.66
	261	52.4	-2.69869E-001	1.93174E-009	0.00000E+000	-2.70000E-001	1.01529E-003	5	..........a	-327.66
	262	52.6	-2.59817E-001	3.18805E-009	0.00000E+000	-2.60000E-001	1.00259E-003	5	..........a	-327.66
	263	52.8	-2.49894E-001	4.41585E-009	0.00000E+000	-2.50000E-001	1.02049E-003	5	..........a	-327.66
	264	53	-2.39926E-001	5.61599E-009	0.00000E+000	-2.40000E-001	1.00939E-003	5	..........a	-327.66
	265	53.2	-2.29925E-001	6.71161E-009	0.00000E+000	-2.30000E-001	1.00539E-003	5	..........a	-327.66
	266	53.4	-2.19898E-001	7.74590E-009	0.00000E+000	-2.20000E-001	9.99292E-004	5	..........a	-327.66
	267	53.6	-2.09943E-001	8.87705E-009	0.00000E+000	-2.10000E-001	1.02809E-003	5	..........a	-327.66
	268	53.8	-1.99969E-001	9.91887E-009	0.00000E+000	-2.00000E-001	1.03589E-003	5	..........a	-327.66
	269	54	-1.90184E-001	1.09766E-008	0.00000E+000	-1.90000E-001	9.79692E-004	5	..........a	-327.66
	270	54.2	-1.79927E-001	1.19961E-008	0.00000E+000	-1.80000E-001	9.88592E-004	5	..........a	-327.66
	271	54.4	-1.69941E-001	1.29134E-008	0.00000E+000	-1.70000E-001	9.93292E-004	5	..........a	-327.66
	272	54.6	-1.60014E-001	1.39342E-008	0.00000E+000	-1.60000E-001	1.01699E-003	5	..........a	-327.66
	273	54.8	-1.49957E-001	1.49313E-008	0.00000E+000	-1.50000E-001	1.00559E-003	5	..........a	-327.66
	274	55	-1.39892E-001	1.58842E-008	0.00000E+000	-1.40000E-001	1.01039E-003	5	..........a	-327.66
	275	55.2	-1.29949E-001	1.68323E-008	0.00000E+000	-1.30000E-001	1.00199E-003	5	..........a	-327.66
	276	55.4	-1.19960E-001	1.77160E-008	0.00000E+000	-1.20000E-001	1.01659E-003	5	..........a	-327.66
	277	55.6	-1.09973E-001	1.86609E-008	0.00000E+000	-1.10000E-001	1.03389E-003	5	..........a	-327.66
	278	55.8	-9.99082E-002	1.95580E-008	0.00000E+000	-1.00000E-001	1.00679E-003	5	..........a	-327.66
	279	56	-8.99051E-002	2.04481E-008	0.00000E+000	-9.00000E-002	1.01399E-003	5	..........a	-327.66
	280	56.2	-7.99727E-002	2.14055E-008	0.00000E+000	-8.00000E-002	1.01379E-003	5	..........a	-327.66
	281	56.4	-6.99242E-002	2.22955E-008	0.00000E+000	-7.00000E-002	1.00389E-003	5	..........a	-327.66
	282	56.6	-5.98868E-002	2.32040E-008	0.00000E+000	-6.00000E-002	1.02359E-003	5	..........a	-327.66
	283	56.8	-4.99489E-002	2.41332E-008	0.00000E+000	-5.00000E-002	1.01129E-003	5	..........a	-327.66
	284	57	-3.99168E-002	2.50435E-008	0.00000E+000	-4.00000E-002	1.00149E-003	5	..........a	-327.66
	285	57.2	-2.99514E-002	2.60042E-008	0.00000E+000	-3.00000E-002	1.02029E-003	5	..........a	-327.66
	286	57.4	-1.99126E-002	2.69709E-008	0.00000E+000	-2.00000E-002	9.90192E-004	5	..........a	-327.66
	287	57.6	-9.91036E-003	2.79127E-008	0.00000E+000	-1.00000E-002	1.00049E-003	5	..........a	-327.66
	288	57.8	-2.16083E-005	2.88641E-008	0.00000E+000	7.45058E-009	1.01989E-003	5	..........a	-327.66
	289	58	1.00930E-002	2.98585E-008	0.00000E+000	1.00000E-002	1.00059E-003	5	..........a	-327.66
	290	58.2	2.01451E-002	3.08270E-008	0.00000E+000	2.00000E-002	1.01129E-003	5	..........a	-327.66
	291	58.4	3.00266E-002	3.18116E-008	0.00000E+000	3.00000E-002	1.00559E-003	5	..........a	-327.66
	292	58.6	4.00149E-002	3.27746E-008	0.00000E+000	4.00000E-002	1.02649E-003	5	..........a	-327.66
	293	58.8	4.99939E-002	3.37308E-008	0.00000E+000	5.00000E-002	1.01819E-003	5	..........a	-327.66
	294	59	6.00980E-002	3.47591E-008	0.00000E+000	6.00000E-002	9.92992E-004	5	..........a	-327.66
	295	59.2	7.00227E-002	3.57664E-008	0.00000E+000	7.00000E-002	1.02959E-003	5	..........a	-327.66
	296	59.4	8.00355E-002	3.68550E-008	0.00000E+000	8.00000E-002	1.04499E-003	5	..........a	-327.66
	297	59.6	9.00760E-002	3.80033E-008	0.00000E+000	9.00000E-002	9.99392E-004	5	..........a	-327.66
	298	59.8	1.00107E-001	3.92362E-008	0.00000E+000	1.00000E-001	1.00419E-003	5	..........a	-327.66
	299	60	1.10079E-001	4.06150E-008	0.00000E+000	1.10000E-001	1.00249E-003	5	..........a	-327.66
	300	60.2	1.20005E-001	4.27207E-008	0.00000E+000	1.20000E-001	1.01979E-003	5	..........a	-327.66
	301	60.4	1.30047E-001	4.52416E-008	0.00000E+000	1.30000E-001	9.92092E-004	5	..........a	-327.66
	302	60.6	1.40115E-001	4.75205E-008	0.00000E+000	1.40000E-001	9.90192E-004	5	..........a	-327.66
	303	60.8	1.50021E-001	4.98393E-008	0.00000E+000	1.50000E-001	1.02669E-003	5	..........a	-327.66
	304	61	1.60026E-001	5.18497E-008	0.00000E+000	1.60000E-001	1.01779E-003	5	..........a	-327.66
	305	61.2	1.70062E-001	5.27229E-008	0.00000E+000	1.70000E-001	9.96192E-004	5	..........a	-327.66
	306	61.4	1.80063E-001	5.31724E-008	0.00000E+000	1.80000E-001	9.87592E-004	5	..........a	-327.66
	307	61.6	1.90065E-001	5.37114E-008	0.00000E+000	1.90000E-001	1.00509E-003	5	..........a	-327.66
	308	61.8	1.99992E-001	5.44320E-008	0.00000E+000	2.00000E-001	1.03899E-003	5	..........a	-327.66
	309	62	2.10000E-001	5.53124E-008	0.00000E+000	2.10000E-001	1.00269E-003	5	..........a	-327.66
	310	62.2	2.20017E-001	5.62256E-008	0.00000E+000	2.20000E-001	1.00429E-003	5	..........a	-327.66
	311	62.4	2.30000E-001	5.70247E-008	0.00000E+000	2.30000E-001	1.02899E-003	5	..........a	-327.66
	312	62.6	2.40033E-001	5.78086E-008	0.00000E+000	2.40000E-001	1.00889E-003	5	..........a	-327.66
	313	62.8	2.49974E-001	5.85684E-008	0.00000E+000	2.50000E-001	1.01909E-003	5	..........a	-327.66
	314	63	2.60020E-001	5.93819E-008	0.00000E+000	2.60000E-001	9.88992E-004	5	..........a	-327.66
	315	63.2	2.70095E-001	6.02850E-008	0.00000E+000	2.70000E-001	1.02319E-003	5	..........a	-327.66
	316	63.4	2.79951E-001	6.12219E-008	0.00000E+000	2.80000E-001	1.00099E-003	5	..........a	-327.66
	317	63.6	2.90018E-001	6.22726E-008	0.00000E+000	2.90000E-001	1.01679E-003	5	..........a	-327.66
	318	63.8	3.00067E-001	6.34051E-008	0.00000E+000	3.00000E-001	1.00019E-003	5	..........a	-327.66
	319	64	3.09982E-001	6.46597E-008	0.00000E+000	3.10000E-001	1.02569E-003	5	..........a	-327.66
	320	64.2	3.20021E-001	6.59933E-008	0.00000E+000	3.20000E-001	1.03399E-003	5	..........a	-327.66
	321	64.4	3.30009E-001	6.73766E-008	0.00000E+000	3.30000E-001	1.01099E-003	5	..........a	-327.66
	322	64.6	3.40044E-001	6.88183E-008	0.00000E+000	3.40000E-001	1.00419E-003	5	..........a	-327.66
	323	64.8	3.50005E-001	7.04254E-008	0.00000E+000	3.50000E-001	1.01409E-003	5	..........a	-327.66
	324	65	3.59989E-001	7.20357E-008	0.00000E+000	3.60000E-001	1.00709E-003	5	..........a	-327.66
	325	65.2	3.70019E-001	7.37458E-008	0.00000E+000	3.70000E-001	1.01839E-003	5	..........a	-327.66
	326	65.4	3.80046E-001	7.55554E-008	0.00000E+000	3.80000E-001	1.01559E-003	5	..........a	-327.66
	327	65.6	3.90048E-001	7.74189E-008	0.00000E+000	3.90000E-001	1.02129E-003	5	..........a	-327.66
	328	65.8	3.99974E-001	7.93712E-008	0.00000E+000	4.00000E-001	1.00639E-003	5	..........a	-327.66
	329	66	4.09960E-001	8.13953E-008	0.00000E+000	4.10000E-001	1.01279E-003	5	..........a	-327.66
	330	66.2	4.19990E-001	8.35904E-008	0.00000E+000	4.20000E-001	1.00999E-003	5	..........a	-327.66
	331	66.4	4.29967E-001	8.58247E-008	0.00000E+000	4.30000E-001	1.01739E-003	5	..........a	-327.66
	332	66.6	4.39939E-001	8.81844E-008	0.00000E+000	4.40000E-001	1.01439E-003	5	..........a	-327.66
	333	66.8	4.50032E-001	9.06650E-008	0.00000E+000	4.50000E-001	9.96792E-004	5	..........a	-327.66
	334	67	4.59974E-001	9.32501E-008	0.00000E+000	4.60000E-001	1.00549E-003	5	..........a	-327.66
	335	67.2	4.70012E-001	9.59845E-008	0.00000E+000	4.70000E-001	1.00949E-003	5	..........a	-327.66
	336	67.4	4.79925E-001	9.88295E-008	0.00000E+000	4.80000E-001	1.00739E-003	5	..........a	-327.66
	337	67.6	4.89928E-001	1.01845E-007	0.00000E+000	4.90000E-001	1.02179E-003	5	..........a	-327.66
	338	67.8	5.00037E-001	1.05030E-007	0.00000E+000	5.00000E-001	1.00169E-003	5	..........a	-327.66
	339	68	5.09974E-001	1.08325E-007	0.00000E+000	5.10000E-001	1.03049E-003	5	..........a	-327.66
	340	68.2	5.19956E-001	1.11779E-007	0.00000E+000	5.20000E-001	1.01399E-003	5	..........a	-327.66
	341	68.4	5.29930E-001	1.15340E-007	0.00000E+000	5.30000E-001	1.02769E-003	5	..........a	-327.66
	342	68.6	5.39979E-001	1.19027E-007	0.00000E+000	5.40000E-001	1.01269E-003	5	..........a	-327.66
	343	68.8	5.50002E-001	1.22725E-007	0.00000E+000	5.50000E-001	1.00539E-003	5	..........a	-327.66
	344	69	5.59922E-001	1.26460E-007	0.00000E+000	5.60000E-001	1.02409E-003	5	..........a	-327.66
	345	69.2	5.69918E-001	1.30175E-007	0.00000E+000	5.70000E-001	1.00449E-003	5	..........a	-327.66
	346	69.4	5.79978E-001	1.33854E-007	0.00000E+000	5.80000E-001	9.94692E-004	5	..........a	-327.66
	347	69.6	5.89996E-001	1.37541E-007	0.00000E+000	5.90000E-001	9.97192E-004	5	..........a	-327.66
	348	69.8	5.99932E-001	1.41193E-007	0.00000E+000	6.00000E-001	1.01199E-003	5	..........a	-327.66
	349	70	6.09928E-001	1.44920E-007	0.00000E+000	6.10000E-001	1.03399E-003	5	..........a	-327.66
	350	70.2	6.19910E-001	1.48663E-007	0.00000E+000	6.20000E-001	1.01669E-003	5	..........a	-327.66
	351	70.4	6.29991E-001	1.52513E-007	0.00000E+000	6.30000E-001	1.03439E-003	5	..........a	-327.66
	352	70.6	6.39879E-001	1.56437E-007	0.00000E+000	6.40000E-001	1.00089E-003	5	..........a	-327.66
	353	70.8	6.49908E-001	1.60572E-007	0.00000E+000	6.50000E-001	1.03569E-003	5	..........a	-327.66
	354	71	6.59894E-001	1.64859E-007	0.00000E+000	6.60000E-001	1.00499E-003	5	..........a	-327.66
[...]
	920	184.2	7.19868E-001	1.78313E-007	0.00000E+000	7.20000E-001	1.01419E-003	5	..........a	-327.66
	921	184.4	7.29874E-001	1.83118E-007	0.00000E+000	7.30000E-001	1.00579E-003	5	..........a	-327.66
	922	184.6	7.39867E-001	1.88120E-007	0.00000E+000	7.40000E-001	1.00479E-003	5	..........a	-327.66
	923	184.8	7.49943E-001	1.93275E-007	0.00000E+000	7.50000E-001	1.02119E-003	5	..........a	-327.66
	924	185	7.59857E-001	1.98678E-007	0.00000E+000	7.60000E-001	1.00469E-003	5	..........a	-327.66
	925	185.2	7.69857E-001	2.03952E-007	0.00000E+000	7.70000E-001	1.02569E-003	5	..........a	-327.66
	926	185.4	7.79846E-001	2.09522E-007	0.00000E+000	7.80000E-001	1.00379E-003	5	..........a	-327.66
	927	185.6	7.89953E-001	2.15540E-007	0.00000E+000	7.90000E-001	1.01489E-003	5	..........a	-327.66
	928	185.8	7.99841E-001	2.21908E-007	0.00000E+000	8.00000E-001	9.97892E-004	5	..........a	-327.66
	929	186	7.89959E-001	1.82639E-007	0.00000E+000	7.90000E-001	1.02499E-003	5	..........a	-327.66
	930	186.2	7.79868E-001	1.56762E-007	0.00000E+000	7.80000E-001	1.00349E-003	5	..........a	-327.66
	931	186.4	7.69912E-001	1.37388E-007	0.00000E+000	7.70000E-001	1.00819E-003	5	..........a	-327.66
	932	186.6	7.59880E-001	1.22065E-007	0.00000E+000	7.60000E-001	1.00819E-003	5	..........a	-327.66
	933	186.8	7.49985E-001	1.09551E-007	0.00000E+000	7.50000E-001	1.01359E-003	5	..........a	-327.66
	934	187	7.39924E-001	9.89454E-008	0.00000E+000	7.40000E-001	1.01739E-003	5	..........a	-327.66
	935	187.2	7.29891E-001	8.97913E-008	0.00000E+000	7.30000E-001	1.01129E-003	5	..........a	-327.66
	936	187.4	7.19910E-001	8.17641E-008	0.00000E+000	7.20000E-001	1.01009E-003	5	..........a	-327.66
	937	187.6	7.09957E-001	7.47052E-008	0.00000E+000	7.10000E-001	1.02399E-003	5	..........a	-327.66
	938	187.8	6.99936E-001	6.83579E-008	0.00000E+000	7.00000E-001	1.00259E-003	5	..........a	-327.66
	939	188	6.89927E-001	6.26030E-008	0.00000E+000	6.90000E-001	1.01819E-003	5	..........a	-327.66
	940	188.2	6.79970E-001	5.73918E-008	0.00000E+000	6.80000E-001	9.87292E-004	5	..........a	-327.66
	941	188.4	6.69983E-001	5.25583E-008	0.00000E+000	6.70000E-001	1.01689E-003	5	..........a	-327.66
	942	188.6	6.59968E-001	4.81468E-008	0.00000E+000	6.60000E-001	1.01009E-003	5	..........a	-327.66
	943	188.8	6.49911E-001	4.40713E-008	0.00000E+000	6.50000E-001	1.01049E-003	5	..........a	-327.66
	944	189	6.39911E-001	4.02122E-008	0.00000E+000	6.40000E-001	1.01309E-003	5	..........a	-327.66
	945	189.2	6.30056E-001	3.66663E-008	0.00000E+000	6.30000E-001	1.01569E-003	5	..........a	-327.66
	946	189.4	6.19953E-001	3.33032E-008	0.00000E+000	6.20000E-001	9.95792E-004	5	..........a	-327.66
	947	189.6	6.09952E-001	3.01254E-008	0.00000E+000	6.10000E-001	9.96692E-004	5	..........a	-327.66
	948	189.8	6.00007E-001	2.71528E-008	0.00000E+000	6.00000E-001	9.95992E-004	5	..........a	-327.66
	949	190	5.90012E-001	2.42975E-008	0.00000E+000	5.90000E-001	1.01419E-003	5	..........a	-327.66
	950	190.2	5.80038E-001	2.15409E-008	0.00000E+000	5.80000E-001	1.00949E-003	5	..........a	-327.66
	951	190.4	5.69985E-001	1.88884E-008	0.00000E+000	5.70000E-001	1.01289E-003	5	..........a	-327.66
	952	190.6	5.59958E-001	1.63118E-008	0.00000E+000	5.60000E-001	1.02789E-003	5	..........a	-327.66
	953	190.8	5.50057E-001	1.38182E-008	0.00000E+000	5.50000E-001	1.02339E-003	5	..........a	-327.66
	954	191	5.40035E-001	1.13605E-008	0.00000E+000	5.40000E-001	1.00389E-003	5	..........a	-327.66
	955	191.2	5.29978E-001	9.02155E-009	0.00000E+000	5.30000E-001	1.00789E-003	5	..........a	-327.66
	956	191.4	5.19996E-001	6.73024E-009	0.00000E+000	5.20000E-001	1.01879E-003	5	..........a	-327.66
	957	191.6	5.09971E-001	4.46839E-009	0.00000E+000	5.10000E-001	1.02129E-003	5	..........a	-327.66
	958	191.8	5.00126E-001	2.33985E-009	0.00000E+000	5.00000E-001	1.00559E-003	5	..........a	-327.66
	959	192	4.89957E-001	1.87783E-010	0.00000E+000	4.90000E-001	1.01479E-003	5	..........a	-327.66
	960	192.2	4.79945E-001	-1.90999E-009	0.00000E+000	4.80000E-001	1.02509E-003	5	..........a	-327.66
	961	192.4	4.70061E-001	-3.87526E-009	0.00000E+000	4.70000E-001	1.00129E-003	5	..........a	-327.66
	962	192.6	4.60026E-001	-5.84212E-009	0.00000E+000	4.60000E-001	1.02019E-003	5	..........a	-327.66
	963	192.8	4.49983E-001	-7.70239E-009	0.00000E+000	4.50000E-001	1.00689E-003	5	..........a	-327.66
	964	193	4.40009E-001	-9.50877E-009	0.00000E+000	4.40000E-001	1.01299E-003	5	..........a	-327.66
	965	193.2	4.30009E-001	-1.14114E-008	0.00000E+000	4.30000E-001	1.03079E-003	5	..........a	-327.66
	966	193.4	4.20053E-001	-1.31425E-008	0.00000E+000	4.20000E-001	1.00339E-003	5	..........a	-327.66
	967	193.6	4.10014E-001	-1.49716E-008	0.00000E+000	4.10000E-001	1.01569E-003	5	..........a	-327.66
	968	193.8	4.00028E-001	-1.68046E-008	0.00000E+000	4.00000E-001	9.99492E-004	5	..........a	-327.66
	969	194	3.90071E-001	-1.86736E-008	0.00000E+000	3.90000E-001	1.00219E-003	5	..........a	-327.66
	970	194.2	3.80111E-001	-2.05994E-008	0.00000E+000	3.80000E-001	1.00049E-003	5	..........a	-327.66
	971	194.4	3.70068E-001	-2.26131E-008	0.00000E+000	3.70000E-001	1.01709E-003	5	..........a	-327.66
	972	194.6	3.60058E-001	-2.46620E-008	0.00000E+000	3.60000E-001	1.00289E-003	5	..........a	-327.66
	973	194.8	3.50043E-001	-2.67787E-008	0.00000E+000	3.50000E-001	1.04019E-003	5	..........a	-327.66
	974	195	3.40111E-001	-2.89541E-008	0.00000E+000	3.40000E-001	1.00589E-003	5	..........a	-327.66
	975	195.2	3.30052E-001	-3.12656E-008	0.00000E+000	3.30000E-001	1.01079E-003	5	..........a	-327.66
	976	195.4	3.20068E-001	-3.35535E-008	0.00000E+000	3.20000E-001	1.02059E-003	5	..........a	-327.66
	977	195.6	3.10072E-001	-3.60425E-008	0.00000E+000	3.10000E-001	1.01259E-003	5	..........a	-327.66
	978	195.8	3.00117E-001	-3.85921E-008	0.00000E+000	3.00000E-001	1.00619E-003	5	..........a	-327.66
	979	196	2.90083E-001	-4.12718E-008	0.00000E+000	2.90000E-001	9.91992E-004	5	..........a	-327.66
	980	196.2	2.80035E-001	-4.40679E-008	0.00000E+000	2.80000E-001	1.00879E-003	5	..........a	-327.66
	981	196.4	2.70116E-001	-4.69074E-008	0.00000E+000	2.70000E-001	1.00089E-003	5	..........a	-327.66
	982	196.6	2.60112E-001	-4.96928E-008	0.00000E+000	2.60000E-001	9.97592E-004	5	..........a	-327.66
	983	196.8	2.50043E-001	-5.25161E-008	0.00000E+000	2.50000E-001	1.02549E-003	5	..........a	-327.66
	984	197	2.40097E-001	-5.52404E-008	0.00000E+000	2.40000E-001	1.00239E-003	5	..........a	-327.66
	985	197.2	2.30008E-001	-5.78173E-008	0.00000E+000	2.30000E-001	1.03269E-003	5	..........a	-327.66
	986	197.4	2.20019E-001	-6.01539E-008	0.00000E+000	2.20000E-001	9.91892E-004	5	..........a	-327.66
	987	197.6	2.10057E-001	-6.22560E-008	0.00000E+000	2.10000E-001	1.01699E-003	5	..........a	-327.66
	988	197.8	2.00077E-001	-6.38521E-008	0.00000E+000	2.00000E-001	1.01179E-003	5	..........a	-327.66
	989	198	1.90139E-001	-6.50655E-008	0.00000E+000	1.90000E-001	1.02349E-003	5	..........a	-327.66
	990	198.2	1.80152E-001	-6.56981E-008	0.00000E+000	1.80000E-001	9.94292E-004	5	..........a	-327.66
	991	198.4	1.70131E-001	-6.57965E-008	0.00000E+000	1.70000E-001	9.91692E-004	5	..........a	-327.66
	992	198.6	1.60099E-001	-6.54193E-008	0.00000E+000	1.60000E-001	1.00409E-003	5	..........a	-327.66
	993	198.8	1.50102E-001	-6.44342E-008	0.00000E+000	1.50000E-001	1.00349E-003	5	..........a	-327.66
	994	199	1.40149E-001	-6.29469E-008	0.00000E+000	1.40000E-001	9.96492E-004	5	..........a	-327.66
	995	199.2	1.30100E-001	-6.09603E-008	0.00000E+000	1.30000E-001	1.01679E-003	5	..........a	-327.66
	996	199.4	1.20062E-001	-5.86223E-008	0.00000E+000	1.20000E-001	1.01879E-003	5	..........a	-327.66
	997	199.6	1.10135E-001	-5.60789E-008	0.00000E+000	1.10000E-001	1.01729E-003	5	..........a	-327.66
	998	199.8	1.00166E-001	-5.35303E-008	0.00000E+000	1.00000E-001	1.01169E-003	5	..........a	-327.66
	999	200	9.01222E-002	-5.11511E-008	0.00000E+000	9.00000E-002	1.01379E-003	5	..........a	-327.66
	1000	200.2	8.00611E-002	-4.90347E-008	0.00000E+000	8.00000E-002	1.01189E-003	5	..........a	-327.66
	1001	200.4	7.00548E-002	-4.73308E-008	0.00000E+000	7.00000E-002	1.00849E-003	5	..........a	-327.66
	1002	200.6	6.01557E-002	-4.59487E-008	0.00000E+000	6.00000E-002	9.94792E-004	5	..........a	-327.66
	1003	200.8	5.01197E-002	-4.48673E-008	0.00000E+000	5.00000E-002	1.01969E-003	5	..........a	-327.66
	1004	201	4.01042E-002	-4.40082E-008	0.00000E+000	4.00000E-002	1.01639E-003	5	..........a	-327.66
	1005	201.2	3.00863E-002	-4.33594E-008	0.00000E+000	3.00000E-002	1.03849E-003	5	..........a	-327.66
	1006	201.4	2.01857E-002	-4.29805E-008	0.00000E+000	2.00000E-002	1.00949E-003	5	..........a	-327.66
	1007	201.6	1.01233E-002	-4.27723E-008	0.00000E+000	1.00000E-002	1.02069E-003	5	..........a	-327.66
	1008	201.8	4.04916E-005	-4.26272E-008	0.00000E+000	7.45058E-009	1.01389E-003	5	..........a	-327.66
	1009	202	-9.88561E-003	-4.25290E-008	0.00000E+000	-1.00000E-002	1.00569E-003	5	..........a	-327.66
	1010	202.2	-1.98765E-002	-4.19529E-008	0.00000E+000	-2.00000E-002	1.02059E-003	5	..........a	-327.66
	1011	202.4	-2.99148E-002	-4.22058E-008	0.00000E+000	-3.00000E-002	1.01579E-003	5	..........a	-327.66
	1012	202.6	-3.98783E-002	-4.20199E-008	0.00000E+000	-4.00000E-002	1.00689E-003	5	..........a	-327.66
	1013	202.8	-4.98982E-002	-4.23038E-008	0.00000E+000	-5.00000E-002	1.01739E-003	5	..........a	-327.66
	1014	203	-5.98363E-002	-4.27007E-008	0.00000E+000	-6.00000E-002	9.88892E-004	5	..........a	-327.66
	1015	203.2	-6.98953E-002	-4.28223E-008	0.00000E+000	-7.00000E-002	1.00539E-003	5	..........a	-327.66
	1016	203.4	-7.99401E-002	-4.29673E-008	0.00000E+000	-8.00000E-002	1.01709E-003	5	..........a	-327.66
	1017	203.6	-8.98745E-002	-4.38706E-008	0.00000E+000	-9.00000E-002	1.00499E-003	5	..........a	-327.66
	1018	203.8	-9.98486E-002	-4.37609E-008	0.00000E+000	-1.00000E-001	1.00229E-003	5	..........a	-327.66
	1019	204	-1.09918E-001	-4.43888E-008	0.00000E+000	-1.10000E-001	9.95192E-004	5	..........a	-327.66
	1020	204.2	-1.19871E-001	-4.45190E-008	0.00000E+000	-1.20000E-001	1.02939E-003	5	..........a	-327.66
	1021	204.4	-1.29882E-001	-4.51530E-008	0.00000E+000	-1.30000E-001	1.01679E-003	5	..........a	-327.66
	1022	204.6	-1.39893E-001	-4.57272E-008	0.00000E+000	-1.40000E-001	1.00169E-003	5	..........a	-327.66
	1023	204.8	-1.49901E-001	-4.65903E-008	0.00000E+000	-1.50000E-001	1.01289E-003	5	..........a	-327.66
	1024	205	-1.59913E-001	-4.69227E-008	0.00000E+000	-1.60000E-001	1.00289E-003	5	..........a	-327.66
	1025	205.2	-1.69877E-001	-4.75706E-008	0.00000E+000	-1.70000E-001	1.01479E-003	5	..........a	-327.66
	1026	205.4	-1.79852E-001	-4.87169E-008	0.00000E+000	-1.80000E-001	1.00829E-003	5	..........a	-327.66
	1027	205.6	-1.90016E-001	-4.90029E-008	0.00000E+000	-1.90000E-001	9.99192E-004	5	..........a	-327.66
	1028	205.8	-1.99897E-001	-5.02602E-008	0.00000E+000	-2.00000E-001	1.01509E-003	5	..........a	-327.66
	1029	206	-2.09871E-001	-5.04900E-008	0.00000E+000	-2.10000E-001	1.01399E-003	5	..........a	-327.66
	1030	206.2	-2.19841E-001	-5.12908E-008	0.00000E+000	-2.20000E-001	1.00239E-003	5	..........a	-327.66
	1031	206.4	-2.29892E-001	-5.20428E-008	0.00000E+000	-2.30000E-001	1.00229E-003	5	..........a	-327.66
	1032	206.6	-2.39894E-001	-5.28212E-008	0.00000E+000	-2.40000E-001	1.01099E-003	5	..........a	-327.66
	1033	206.8	-2.49863E-001	-5.36668E-008	0.00000E+000	-2.50000E-001	1.00499E-003	5	..........a	-327.66
	1034	207	-2.59770E-001	-5.43719E-008	0.00000E+000	-2.60000E-001	9.93892E-004	5	..........a	-327.66
	1035	207.2	-2.69844E-001	-5.52935E-008	0.00000E+000	-2.70000E-001	1.00299E-003	5	..........a	-327.66
	1036	207.4	-2.79871E-001	-5.62460E-008	0.00000E+000	-2.80000E-001	1.01899E-003	5	..........a	-327.66
	1037	207.6	-2.89875E-001	-5.72687E-008	0.00000E+000	-2.90000E-001	1.00249E-003	5	..........a	-327.66
	1038	207.8	-2.99826E-001	-5.86393E-008	0.00000E+000	-3.00000E-001	1.01289E-003	5	..........a	-327.66
	1039	208	-3.09862E-001	-5.98035E-008	0.00000E+000	-3.10000E-001	1.00699E-003	5	..........a	-327.66
	1040	208.2	-3.19839E-001	-6.09135E-008	0.00000E+000	-3.20000E-001	1.02089E-003	5	..........a	-327.66
	1041	208.4	-3.29869E-001	-6.20243E-008	0.00000E+000	-3.30000E-001	1.02779E-003	5	..........a	-327.66
	1042	208.6	-3.39788E-001	-6.31721E-008	0.00000E+000	-3.40000E-001	1.01699E-003	5	..........a	-327.66
	1043	208.8	-3.49857E-001	-6.42715E-008	0.00000E+000	-3.50000E-001	1.01799E-003	5	..........a	-327.66
	1044	209	-3.59855E-001	-6.55180E-008	0.00000E+000	-3.60000E-001	1.01839E-003	5	..........a	-327.66
	1045	209.2	-3.69848E-001	-6.62707E-008	0.00000E+000	-3.70000E-001	1.01869E-003	5	..........a	-327.66
	1046	209.4	-3.79817E-001	-6.71869E-008	0.00000E+000	-3.80000E-001	1.00599E-003	5	..........a	-327.66
	1047	209.6	-3.89907E-001	-6.82133E-008	0.00000E+000	-3.90000E-001	1.01819E-003	5	..........a	-327.66
	1048	209.8	-3.99851E-001	-6.95219E-008	0.00000E+000	-4.00000E-001	1.02359E-003	5	..........a	-327.66
	1049	210	-4.09837E-001	-7.04210E-008	0.00000E+000	-4.10000E-001	1.00859E-003	5	..........a	-327.66
	1050	210.2	-4.19761E-001	-7.16945E-008	0.00000E+000	-4.20000E-001	1.02549E-003	5	..........a	-327.66
	1051	210.4	-4.29844E-001	-7.30216E-008	0.00000E+000	-4.30000E-001	1.02249E-003	5	..........a	-327.66
	1052	210.6	-4.39862E-001	-7.44133E-008	0.00000E+000	-4.40000E-001	1.01589E-003	5	..........a	-327.66
	1053	210.8	-4.49823E-001	-7.59507E-008	0.00000E+000	-4.50000E-001	9.93792E-004	5	..........a	-327.66
	1054	211	-4.59780E-001	-7.75124E-008	0.00000E+000	-4.60000E-001	9.92292E-004	5	..........a	-327.66
	1055	211.2	-4.69841E-001	-7.91082E-008	0.00000E+000	-4.70000E-001	1.00399E-003	5	..........a	-327.66
	1056	211.4	-4.79821E-001	-8.07093E-008	0.00000E+000	-4.80000E-001	1.02279E-003	5	..........a	-327.66
	1057	211.6	-4.89836E-001	-8.25189E-008	0.00000E+000	-4.90000E-001	1.01609E-003	5	..........a	-327.66
	1058	211.8	-4.99806E-001	-8.40520E-008	0.00000E+000	-5.00000E-001	1.01149E-003	5	..........a	-327.66
	1059	212	-5.09825E-001	-8.58155E-008	0.00000E+000	-5.10000E-001	1.00839E-003	5	..........a	-327.66
	1060	212.2	-5.19827E-001	-8.77207E-008	0.00000E+000	-5.20000E-001	1.01759E-003	5	..........a	-327.66
	1061	212.4	-5.29824E-001	-8.96558E-008	0.00000E+000	-5.30000E-001	1.02949E-003	5	..........a	-327.66
	1062	212.6	-5.39753E-001	-9.13585E-008	0.00000E+000	-5.40000E-001	9.99692E-004	5	..........a	-327.66
	1063	212.8	-5.49836E-001	-9.34279E-008	0.00000E+000	-5.50000E-001	1.01049E-003	5	..........a	-327.66
	1064	213	-5.59840E-001	-9.54946E-008	0.00000E+000	-5.60000E-001	1.02589E-003	5	..........a	-327.66
	1065	213.2	-5.69835E-001	-9.76436E-008	0.00000E+000	-5.70000E-001	1.00379E-003	5	..........a	-327.66
	1066	213.4	-5.79777E-001	-9.98790E-008	0.00000E+000	-5.80000E-001	1.00129E-003	5	..........a	-327.66
	1067	213.6	-5.89837E-001	-1.02268E-007	0.00000E+000	-5.90000E-001	1.01649E-003	5	..........a	-327.66
	1068	213.8	-5.99826E-001	-1.04803E-007	0.00000E+000	-6.00000E-001	1.00809E-003	5	..........a	-327.66
CURVE5	TABLE
	Pt	T	Vf	Im	Vu	Sig	Ach	IERange	Over	Temp
	#	s	V vs. Ref.	A	V	V	V	#	bits	deg C
	1069	214	-5.89836E-001	-9.08066E-008	0.00000E+000	-5.90000E-001	1.01569E-003	5	..........a	-327.66
	1070	214.2	-5.79794E-001	-8.15387E-008	0.00000E+000	-5.80000E-001	1.00129E-003	5	..........a	-327.66
	1071	214.4	-5.69893E-001	-7.41736E-008	0.00000E+000	-5.70000E-001	1.01269E-003	5	..........a	-327.66
	1072	214.6	-5.59889E-001	-6.79285E-008	0.00000E+000	-5.60000E-001	1.00939E-003	5	..........a	-327.66
	1073	214.8	-5.49861E-001	-6.25825E-008	0.00000E+000	-5.50000E-001	1.00289E-003	5	..........a	-327.66
	1074	215	-5.39776E-001	-5.77634E-008	0.00000E+000	-5.40000E-001	1.01149E-003	5	..........a	-327.66
	1075	215.2	-5.29848E-001	-5.33981E-008	0.00000E+000	-5.30000E-001	1.01369E-003	5	..........a	-327.66
	1076	215.4	-5.19812E-001	-4.93710E-008	0.00000E+000	-5.20000E-001	1.00649E-003	5	..........a	-327.66
	1077	215.6	-5.09838E-001	-4.56942E-008	0.00000E+000	-5.10000E-001	1.01539E-003	5	..........a	-327.66
	1078	215.8	-4.99823E-001	-4.23077E-008	0.00000E+000	-5.00000E-001	1.00469E-003	5	..........a	-327.66
	1079	216	-4.89841E-001	-3.90624E-008	0.00000E+000	-4.90000E-001	1.01559E-003	5	..........a	-327.66
	1080	216.2	-4.79850E-001	-3.60805E-008	0.00000E+000	-4.80000E-001	1.01959E-003	5	..........a	-327.66
	1081	216.4	-4.69894E-001	-3.32702E-008	0.00000E+000	-4.70000E-001	9.98092E-004	5	..........a	-327.66
	1082	216.6	-4.59806E-001	-3.04445E-008	0.00000E+000	-4.60000E-001	1.00269E-003	5	..........a	-327.66
	1083	216.8	-4.49853E-001	-2.79399E-008	0.00000E+000	-4.50000E-001	1.01169E-003	5	..........a	-327.66
	1084	217	-4.39858E-001	-2.54926E-008	0.00000E+000	-4.40000E-001	1.02249E-003	5	..........a	-327.66
	1085	217.2	-4.29872E-001	-2.33621E-008	0.00000E+000	-4.30000E-001	1.03199E-003	5	..........a	-327.66
	1086	217.4	-4.19794E-001	-2.16816E-008	0.00000E+000	-4.20000E-001	9.93292E-004	5	..........a	-327.66
	1087	217.6	-4.09872E-001	-1.95364E-008	0.00000E+000	-4.10000E-001	1.02109E-003	5	..........a	-327.66
	1088	217.8	-3.99886E-001	-1.74990E-008	0.00000E+000	-4.00000E-001	1.00009E-003	5	..........a	-327.66
	1089	218	-3.89936E-001	-1.55821E-008	0.00000E+000	-3.90000E-001	1.03309E-003	5	..........a	-327.66
	1090	218.2	-3.79835E-001	-1.36521E-008	0.00000E+000	-3.80000E-001	1.00779E-003	5	..........a	-327.66
	1091	218.4	-3.69849E-001	-1.18060E-008	0.00000E+000	-3.70000E-001	1.02179E-003	5	..........a	-327.66
	1092	218.6	-3.59893E-001	-1.00426E-008	0.00000E+000	-3.60000E-001	1.02139E-003	5	..........a	-327.66
	1093	218.8	-3.49856E-001	-8.31897E-009	0.00000E+000	-3.50000E-001	1.01169E-003	5	..........a	-327.66
	1094	219	-3.39815E-001	-6.70540E-009	0.00000E+000	-3.40000E-001	9.97792E-004	5	..........a	-327.66
	1095	219.2	-3.29865E-001	-5.10633E-009	0.00000E+000	-3.30000E-001	1.00939E-003	5	..........a	-327.66
	1096	219.4	-3.19865E-001	-3.51918E-009	0.00000E+000	-3.20000E-001	1.01139E-003	5	..........a	-327.66
	1097	219.6	-3.09951E-001	-2.08217E-009	0.00000E+000	-3.10000E-001	1.01149E-003	5	..........a	-327.66
	1098	219.8	-2.99861E-001	-6.90099E-010	0.00000E+000	-3.00000E-001	9.97692E-004	5	..........a	-327.66
	1099	220	-2.89917E-001	7.51465E-010	0.00000E+000	-2.90000E-001	1.01269E-003	5	..........a	-327.66
	1100	220.2	-2.79918E-001	2.11659E-009	0.00000E+000	-2.80000E-001	1.01649E-003	5	..........a	-327.66
	1101	220.4	-2.69871E-001	3.37925E-009	0.00000E+000	-2.70000E-001	1.02049E-003	5	..........a	-327.66
	1102	220.6	-2.59813E-001	4.63833E-009	0.00000E+000	-2.60000E-001	1.00449E-003	5	..........a	-327.66
	1103	220.8	-2.49879E-001	5.82109E-009	0.00000E+000	-2.50000E-001	1.01589E-003	5	..........a	-327.66
	1104	221	-2.39915E-001	6.98715E-009	0.00000E+000	-2.40000E-001	1.02259E-003	5	..........a	-327.66
	1105	221.2	-2.29973E-001	8.13164E-009	0.00000E+000	-2.30000E-001	1.01919E-003	5	..........a	-327.66
	1106	221.4	-2.19874E-001	9.21877E-009	0.00000E+000	-2.20000E-001	1.00579E-003	5	..........a	-327.66
	1107	221.6	-2.09927E-001	1.02931E-008	0.00000E+000	-2.10000E-001	1.01039E-003	5	..........a	-327.66
	1108	221.8	-1.99970E-001	1.13680E-008	0.00000E+000	-2.00000E-001	1.02139E-003	5	..........a	-327.66
	1109	222	-1.90219E-001	1.24044E-008	0.00000E+000	-1.90000E-001	9.98692E-004	5	..........a	-327.66
	1110	222.2	-1.79915E-001	1.34473E-008	0.00000E+000	-1.80000E-001	9.90792E-004	5	..........a	-327.66
	1111	222.4	-1.69895E-001	1.44443E-008	0.00000E+000	-1.70000E-001	9.98792E-004	5	..........a	-327.66
	1112	222.6	-1.59991E-001	1.54021E-008	0.00000E+000	-1.60000E-001	1.00739E-003	5	..........a	-327.66
	1113	222.8	-1.49982E-001	1.64116E-008	0.00000E+000	-1.50000E-001	1.01249E-003	5	..........a	-327.66
	1114	223	-1.39897E-001	1.73628E-008	0.00000E+000	-1.40000E-001	1.01959E-003	5	..........a	-327.66
	1115	223.2	-1.29975E-001	1.83132E-008	0.00000E+000	-1.30000E-001	1.03709E-003	5	..........a	-327.66
	1116	223.4	-1.19959E-001	1.92588E-008	0.00000E+000	-1.20000E-001	1.01759E-003	5	..........a	-327.66
	1117	223.6	-1.10015E-001	2.01943E-008	0.00000E+000	-1.10000E-001	1.02429E-003	5	..........a	-327.66
	1118	223.8	-9.99073E-002	2.10968E-008	0.00000E+000	-1.00000E-001	1.00669E-003	5	..........a	-327.66