File: data/raw/batch_data/20240321_ZZC_GM0016_HL03_E14_CV50.DTA
EXPLAIN
TAG	CV
TITLE	LABEL	Cyclic Voltammetry	Test &Identifier
DATE	LABEL	3/21/2024	Date
TIME	LABEL	19:37:25	Time
NOTES	NOTES	1	&Notes...

PSTAT	PSTAT	REF600P-43058	Potentiostat
VINIT	POTEN	0.00000E+000	T	Initial &E (V)
VLIMIT1	POTEN	-6.00000E-001	F	Scan Limit &1 (V)
VLIMIT2	POTEN	8.00000E-001	F	Scan Limit &2 (V)
VFINAL	POTEN	0.00000E+000	T	Final &E (V)
SCANRATE	QUANT	4.99999E+001	&Scan Rate (mV/s)
STEPSIZE	QUANT	1.00000E+001	St&ep Size (mV)
CYCLES	IQUANT	4	C&ycles (#)
IMODE	SELECTOR	1	I/E Range &Mode
IRANGE	QUANT	1.00000E-005	&Max Current (mA)
AREA	QUANT	1.00000E+000	Electrode &Area (cm^2)
ELECTRODETYPE	SELECTOR	0	Electrode Type
STRIPPING	TOGGLE	F	Used for Stripping
POLARITY	TOGGLE	F	Signal Polarity
CONDIT	TWOPARAM	F	1.50000E+001	0.00000E+000	Conditionin&g	Time(s)	E(V)
DELAY	TWOPARAM	T	1.00000E+001	0.00000E+000	Init. De&lay	Time(s)	Stab.(mV/s)
EQDELAY	QUANT	1.00000E+001	Equil. &Time (s)
IRCOMP	SELECTOR	0	IRCom&p
PFCOR	QUANT	5.00000E+001	PF Corr. (ohm)
SAMPLINGMODE	SELECTOR	1	Sampling &Mode
OCVCURVE	TABLE	39
	Pt	T	Vf	Vm	Ach	Over	Temp
	#	s	V vs. Ref.	V	V	bits	deg C
	0	0.258333	3.49400E-001	3.49400E-001	2.36889E-004	..........a	-327.66
	1	0.516667	3.49403E-001	3.49553E-001	2.33756E-004	..........a	-327.66
	2	0.775	3.49419E-001	3.49578E-001	2.56022E-004	..........a	-327.66
	3	1.03333	3.49457E-001	3.49662E-001	2.43022E-004	..........a	-327.66
	4	1.29167	3.49516E-001	3.49843E-001	2.29489E-004	..........a	-327.66
	5	1.55	3.49598E-001	3.50053E-001	2.27556E-004	..........a	-327.66
	6	1.80833	3.49712E-001	3.50354E-001	2.40422E-004	..........a	-327.66
	7	2.06667	3.49871E-001	3.50566E-001	2.38356E-004	..........a	-327.66
	8	2.325	3.50073E-001	3.50767E-001	2.39089E-004	..........a	-327.66
	9	2.58333	3.50303E-001	3.51175E-001	2.27756E-004	..........a	-327.66
	10	2.84167	3.50549E-001	3.51249E-001	2.48889E-004	..........a	-327.66
	11	3.1	3.50799E-001	3.51412E-001	2.25622E-004	..........a	-327.66
	12	3.35833	3.51032E-001	3.51612E-001	2.45622E-004	..........a	-327.66
	13	3.61667	3.51239E-001	3.51892E-001	2.44689E-004	..........a	-327.66
	14	3.875	3.51434E-001	3.52127E-001	2.28289E-004	..........a	-327.66
	15	4.13333	3.51640E-001	3.52355E-001	2.33756E-004	..........a	-327.66
	16	4.39167	3.51868E-001	3.52750E-001	2.31489E-004	..........a	-327.66
	17	4.65	3.52115E-001	3.52831E-001	2.48822E-004	..........a	-327.66
	18	4.90833	3.52370E-001	3.52986E-001	2.22222E-004	..........a	-327.66
	19	5.16667	3.52608E-001	3.53159E-001	2.40756E-004	..........a	-327.66
	20	5.425	3.52812E-001	3.53420E-001	2.39089E-004	..........a	-327.66
	21	5.68333	3.52999E-001	3.53640E-001	2.40889E-004	..........a	-327.66
	22	5.94167	3.53190E-001	3.53836E-001	2.27289E-004	..........a	-327.66
	23	6.2	3.53397E-001	3.54121E-001	2.26489E-004	..........a	-327.66
	24	6.45833	3.53618E-001	3.54400E-001	2.54956E-004	..........a	-327.66
	25	6.71667	3.53851E-001	3.54456E-001	2.45022E-004	..........a	-327.66
	26	6.975	3.54082E-001	3.54626E-001	2.11822E-004	..........a	-327.66
	27	7.23333	3.54289E-001	3.54838E-001	2.16956E-004	..........a	-327.66
	28	7.49167	3.54473E-001	3.55084E-001	2.21089E-004	..........a	-327.66
	29	7.75	3.54653E-001	3.55287E-001	2.43356E-004	..........a	-327.66
	30	8.00833	3.54846E-001	3.55479E-001	2.29022E-004	..........a	-327.66
	31	8.26667	3.55054E-001	3.55826E-001	2.29956E-004	..........a	-327.66
	32	8.525	3.55276E-001	3.55997E-001	2.13489E-004	..........a	-327.66
	33	8.78333	3.55508E-001	3.56083E-001	2.46756E-004	..........a	-327.66
	34	9.04167	3.55731E-001	3.56253E-001	2.38156E-004	..........a	-327.66
	35	9.3	3.55928E-001	3.56449E-001	2.42422E-004	..........a	-327.66
	36	9.5583	3.56101E-001	3.56683E-001	2.17422E-004	..........a	-327.66
	37	9.8167	3.56272E-001	3.56886E-001	2.27756E-004	..........a	-327.66
	38	10.075	3.56457E-001	3.57056E-001	2.30422E-004	..........a	-327.66
EOC	QUANT	0.3564574	Open Circuit (V)
PSTATMODEL	IQUANT	7	Pstat Model
PSTATSECTION	LABEL	REF600P-43058	Pstat Section
PSTATSERIALNO	LABEL	43058	Pstat Serial Number
CTRLMODE	IQUANT	1	Control Mode
ELECTROMETER	IQUANT	0	RE=0 or CS=1
IESTAB	IQUANT	2	I/E Stability
CASPEED	IQUANT	4	Control Amp Speed
CONVENTION	IQUANT	1	Current Convention
ICHRANGE	IQUANT	2	Ich Range
ICHRANGEMODE	TOGGLE	F	Ich Auto Range
ICHOFFSETENABLE	TOGGLE	F	Ich Offset Enable
ICHOFFSET	QUANT	0	Ich Offset (V)
ICHFILTER	IQUANT	2	Ich Filter
VCHRANGE	IQUANT	2	Vch Range
VCHRANGEMODE	TOGGLE	F	Vch Auto Range
VCHOFFSETENABLE	TOGGLE	F	Vch Offset Enable
VCHOFFSET	QUANT	0	Vch Offset (V)
VCHFILTER	IQUANT	2	Vch Filter
ACHRANGE	IQUANT	2	Ach Range
ACHOFFSETENABLE	TOGGLE	F	Ach Offset Enable
ACHOFFSET	QUANT	0	Ach Offset (V)
ACHFILTER	IQUANT	1	Ach Filter
IERANGELOWERLIMIT	IQUANT	1	I/E Range Lower Limit
IERANGEMODE	TOGGLE	F	I/E AutoRange
IERANGE	IQUANT	4	I/E Range
POSFEEDENABLE	TOGGLE	F	Positive Feedback IR Comp
POSFEEDRESISTANCE	QUANT	0	Positive Feedback Resistance (ohm)
ACHSELECT	IQUANT	4	Ach Select
SENSECABLEID	IQUANT	7	Sense Cable ID
PWRCABLEID	IQUANT	7	Power Cable ID
DCCALDATE	LABEL	12/18/2023	DC Calibration Date
ACCALDATE	LABEL	12/18/2023	AC Calibration Date
THERMOSELECT	IQUANT	1	Thermo Select
FRAMEWORKVERSION	LABEL	7.8.4	Framework Version
INSTRUMENTVERSION	LABEL	4.42	Instrument Version
CURVE1	TABLE
	Pt	T	Vf	Im	Vu	Sig	Ach	IERange	Over	Temp
	#	s	V vs. Ref.	A	V	V	V	#	bits	deg C
	0	0.2	3.56356E-001	1.97796E-011	0.00000E+000	3.56450E-001	1.00652E-003	4	..........a	-327.66
	1	0.4	3.46450E-001	-1.26867E-011	0.00000E+000	3.46450E-001	1.02382E-003	4	..........a	-327.66
	2	0.6	3.36470E-001	-2.72762E-011	0.00000E+000	3.36450E-001	1.03852E-003	4	..........a	-327.66
	3	0.8	3.26412E-001	-3.60996E-011	0.00000E+000	3.26450E-001	1.01732E-003	4	..........a	-327.66
	4	1	3.16462E-001	-3.78167E-011	0.00000E+000	3.16450E-001	1.01132E-003	4	..........a	-327.66
	5	1.2	3.06447E-001	-4.12578E-011	0.00000E+000	3.06450E-001	1.01742E-003	4	..........a	-327.66
	6	1.4	2.96316E-001	-4.55969E-011	0.00000E+000	2.96450E-001	1.02752E-003	4	..........a	-327.66
	7	1.6	2.86424E-001	-4.89931E-011	0.00000E+000	2.86450E-001	1.01492E-003	4	..........a	-327.66
	8	1.8	2.76385E-001	-5.07882E-011	0.00000E+000	2.76450E-001	1.01632E-003	4	..........a	-327.66
	9	2	2.66470E-001	-5.26262E-011	0.00000E+000	2.66450E-001	1.03192E-003	4	..........a	-327.66
	10	2.2	2.56453E-001	-5.43473E-011	0.00000E+000	2.56450E-001	1.03442E-003	4	..........a	-327.66
	11	2.4	2.46442E-001	-5.64974E-011	0.00000E+000	2.46450E-001	1.03602E-003	4	..........a	-327.66
	12	2.6	2.36422E-001	-5.80424E-011	0.00000E+000	2.36450E-001	1.05232E-003	4	..........a	-327.66
	13	2.8	2.26415E-001	-6.10876E-011	0.00000E+000	2.26450E-001	1.03952E-003	4	..........a	-327.66
	14	3	2.16452E-001	-6.24506E-011	0.00000E+000	2.16450E-001	9.96822E-004	4	..........a	-327.66
	15	3.2	2.06370E-001	-6.63157E-011	0.00000E+000	2.06450E-001	9.96322E-004	4	..........a	-327.66
	16	3.4	1.96398E-001	-6.58957E-011	0.00000E+000	1.96450E-001	1.04492E-003	4	..........a	-327.66
	17	3.6	1.86485E-001	-6.85658E-011	0.00000E+000	1.86450E-001	1.03442E-003	4	..........a	-327.66
	18	3.8	1.76501E-001	-6.93479E-011	0.00000E+000	1.76450E-001	1.02102E-003	4	..........a	-327.66
	19	4	1.66476E-001	-7.03439E-011	0.00000E+000	1.66450E-001	1.00632E-003	4	..........a	-327.66
	20	4.2	1.56440E-001	-7.11709E-011	0.00000E+000	1.56450E-001	1.05112E-003	4	..........a	-327.66
	21	4.4	1.46445E-001	-7.24080E-011	0.00000E+000	1.46450E-001	9.94122E-004	4	..........a	-327.66
	22	4.6	1.36520E-001	-7.40740E-011	0.00000E+000	1.36450E-001	1.02302E-003	4	..........a	-327.66
	23	4.8	1.26434E-001	-7.48761E-011	0.00000E+000	1.26450E-001	1.02112E-003	4	..........a	-327.66
	24	5	1.16398E-001	-7.60361E-011	0.00000E+000	1.16450E-001	1.01692E-003	4	..........a	-327.66
	25	5.2	1.06467E-001	-7.78552E-011	0.00000E+000	1.06450E-001	1.02562E-003	4	..........a	-327.66
	26	5.4	9.64324E-002	-7.93863E-011	0.00000E+000	9.64500E-002	1.01692E-003	4	..........a	-327.66
	27	5.6	8.64828E-002	-8.09893E-011	0.00000E+000	8.64500E-002	1.03782E-003	4	..........a	-327.66
	28	5.8	7.64048E-002	-8.11023E-011	0.00000E+000	7.64500E-002	1.01622E-003	4	..........a	-327.66
	29	6	6.64330E-002	-8.23534E-011	0.00000E+000	6.64500E-002	1.04972E-003	4	..........a	-327.66
	30	6.2	5.64770E-002	-8.33644E-011	0.00000E+000	5.64500E-002	1.02472E-003	4	..........a	-327.66
	31	6.4	4.64597E-002	-8.38844E-011	0.00000E+000	4.64500E-002	1.01782E-003	4	..........a	-327.66
	32	6.6	3.64959E-002	-8.52375E-011	0.00000E+000	3.64500E-002	1.00912E-003	4	..........a	-327.66
	33	6.8	2.64512E-002	-8.60765E-011	0.00000E+000	2.64500E-002	1.05202E-003	4	..........a	-327.66
	34	7	1.66450E-002	-8.84126E-011	0.00000E+000	1.64500E-002	1.02952E-003	4	..........a	-327.66
	35	7.2	6.45764E-003	-9.01287E-011	0.00000E+000	6.45000E-003	1.04682E-003	4	..........a	-327.66
	36	7.4	-3.57696E-003	-8.99286E-011	0.00000E+000	-3.54999E-003	1.02782E-003	4	..........a	-327.66
	37	7.6	-1.35020E-002	-9.09337E-011	0.00000E+000	-1.35500E-002	1.01392E-003	4	..........a	-327.66
	38	7.8	-2.35436E-002	-9.48168E-011	0.00000E+000	-2.35500E-002	1.03232E-003	4	..........a	-327.66
	39	8	-3.35926E-002	-9.72199E-011	0.00000E+000	-3.35500E-002	1.02412E-003	4	..........a	-327.66
	40	8.2	-4.35549E-002	-9.68939E-011	0.00000E+000	-4.35500E-002	1.02132E-003	4	..........a	-327.66
	41	8.4	-5.35407E-002	-9.99580E-011	0.00000E+000	-5.35500E-002	1.02892E-003	4	..........a	-327.66
	42	8.6	-6.34988E-002	-1.00962E-010	0.00000E+000	-6.35500E-002	1.02602E-003	4	..........a	-327.66
	43	8.8	-7.35145E-002	-1.04617E-010	0.00000E+000	-7.35500E-002	1.02952E-003	4	..........a	-327.66
	44	9	-8.35992E-002	-1.07428E-010	0.00000E+000	-8.35500E-002	9.96522E-004	4	..........a	-327.66
	45	9.2	-9.35004E-002	-1.10539E-010	0.00000E+000	-9.35500E-002	1.01682E-003	4	..........a	-327.66
	46	9.4	-1.03569E-001	-1.14372E-010	0.00000E+000	-1.03550E-001	1.02442E-003	4	..........a	-327.66
	47	9.6	-1.13484E-001	-1.17773E-010	0.00000E+000	-1.13550E-001	9.91122E-004	4	..........a	-327.66
	48	9.8	-1.23568E-001	-1.20742E-010	0.00000E+000	-1.23550E-001	1.02732E-003	4	..........a	-327.66
	49	10	-1.33579E-001	-1.25641E-010	0.00000E+000	-1.33550E-001	1.02122E-003	4	..........a	-327.66
	50	10.2	-1.43552E-001	-1.29892E-010	0.00000E+000	-1.43550E-001	1.00022E-003	4	..........a	-327.66
	51	10.4	-1.53599E-001	-1.31508E-010	0.00000E+000	-1.53550E-001	1.01692E-003	4	..........a	-327.66
	52	10.6	-1.63594E-001	-1.36986E-010	0.00000E+000	-1.63550E-001	1.02752E-003	4	..........a	-327.66
	53	10.8	-1.73562E-001	-1.41924E-010	0.00000E+000	-1.73550E-001	1.00562E-003	4	..........a	-327.66
	54	11	-1.83509E-001	-1.47222E-010	0.00000E+000	-1.83550E-001	9.93922E-004	4	..........a	-327.66
	55	11.2	-1.93544E-001	-1.51673E-010	0.00000E+000	-1.93550E-001	1.01452E-003	4	..........a	-327.66
	56	11.4	-2.03596E-001	-1.58573E-010	0.00000E+000	-2.03550E-001	9.86722E-004	4	..........a	-327.66
	57	11.6	-2.13546E-001	-1.64085E-010	0.00000E+000	-2.13550E-001	1.03562E-003	4	..........a	-327.66
	58	11.8	-2.23488E-001	-1.69525E-010	0.00000E+000	-2.23550E-001	1.00992E-003	4	..........a	-327.66
	59	12	-2.33549E-001	-1.76872E-010	0.00000E+000	-2.33550E-001	1.02422E-003	4	..........a	-327.66
	60	12.2	-2.43523E-001	-1.83674E-010	0.00000E+000	-2.43550E-001	1.03852E-003	4	..........a	-327.66
	61	12.4	-2.53574E-001	-1.92525E-010	0.00000E+000	-2.53550E-001	1.01252E-003	4	..........a	-327.66
	62	12.6	-2.63508E-001	-2.00458E-010	0.00000E+000	-2.63550E-001	1.00952E-003	4	..........a	-327.66
	63	12.8	-2.73501E-001	-2.09883E-010	0.00000E+000	-2.73550E-001	1.03572E-003	4	..........a	-327.66
	64	13	-2.83555E-001	-2.19508E-010	0.00000E+000	-2.83550E-001	1.01022E-003	4	..........a	-327.66
	65	13.2	-2.93525E-001	-2.30270E-010	0.00000E+000	-2.93550E-001	1.00632E-003	4	..........a	-327.66
	66	13.4	-3.03471E-001	-2.41822E-010	0.00000E+000	-3.03550E-001	1.00842E-003	4	..........a	-327.66
	67	13.6	-3.13588E-001	-2.55317E-010	0.00000E+000	-3.13550E-001	1.00282E-003	4	..........a	-327.66
	68	13.8	-3.23452E-001	-2.66241E-010	0.00000E+000	-3.23550E-001	1.01842E-003	4	..........a	-327.66
	69	14	-3.33528E-001	-2.88396E-010	0.00000E+000	-3.33550E-001	1.02632E-003	4	..........a	-327.66
	70	14.2	-3.43514E-001	-2.97882E-010	0.00000E+000	-3.43550E-001	1.01272E-003	4	..........a	-327.66
	71	14.4	-3.53461E-001	-3.13909E-010	0.00000E+000	-3.53550E-001	1.05172E-003	4	..........a	-327.66
	72	14.6	-3.63483E-001	-3.29780E-010	0.00000E+000	-3.63550E-001	1.00162E-003	4	..........a	-327.66
	73	14.8	-3.73471E-001	-3.47256E-010	0.00000E+000	-3.73550E-001	1.01462E-003	4	..........a	-327.66
	74	15	-3.83538E-001	-3.59745E-010	0.00000E+000	-3.83550E-001	1.02862E-003	4	..........a	-327.66
	75	15.2	-3.93463E-001	-3.85443E-010	0.00000E+000	-3.93550E-001	1.00492E-003	4	..........a	-327.66
	76	15.4	-4.03497E-001	-4.09999E-010	0.00000E+000	-4.03550E-001	1.03552E-003	4	..........a	-327.66
	77	15.6	-4.13438E-001	-4.28049E-010	0.00000E+000	-4.13550E-001	9.86922E-004	4	..........a	-327.66
	78	15.8	-4.23442E-001	-4.52243E-010	0.00000E+000	-4.23550E-001	1.02692E-003	4	..........a	-327.66
	79	16	-4.33437E-001	-4.72047E-010	0.00000E+000	-4.33550E-001	1.04902E-003	4	..........a	-327.66
	80	16.2	-4.43480E-001	-4.95590E-010	0.00000E+000	-4.43550E-001	9.96722E-004	4	..........a	-327.66
	81	16.4	-4.53423E-001	-5.18875E-010	0.00000E+000	-4.53550E-001	1.01802E-003	4	..........a	-327.66
	82	16.6	-4.63408E-001	-5.45906E-010	0.00000E+000	-4.63550E-001	1.02152E-003	4	..........a	-327.66
	83	16.8	-4.73456E-001	-5.70688E-010	0.00000E+000	-4.73550E-001	1.02182E-003	4	..........a	-327.66
	84	17	-4.83471E-001	-5.96685E-010	0.00000E+000	-4.83550E-001	1.04382E-003	4	..........a	-327.66
	85	17.2	-4.93436E-001	-6.23542E-010	0.00000E+000	-4.93550E-001	9.93422E-004	4	..........a	-327.66
	86	17.4	-5.03423E-001	-6.53319E-010	0.00000E+000	-5.03550E-001	9.95522E-004	4	..........a	-327.66
	87	17.6	-5.13483E-001	-6.84714E-010	0.00000E+000	-5.13550E-001	1.00692E-003	4	..........a	-327.66
	88	17.8	-5.23470E-001	-7.16619E-010	0.00000E+000	-5.23550E-001	1.03872E-003	4	..........a	-327.66
	89	18	-5.33490E-001	-7.51151E-010	0.00000E+000	-5.33550E-001	1.00092E-003	4	..........a	-327.66
	90	18.2	-5.43436E-001	-7.92682E-010	0.00000E+000	-5.43550E-001	1.02742E-003	4	..........a	-327.66
	91	18.4	-5.53429E-001	-8.27161E-010	0.00000E+000	-5.53550E-001	1.00612E-003	4	..........a	-327.66
	92	18.6	-5.63483E-001	-8.63669E-010	0.00000E+000	-5.63550E-001	1.04082E-003	4	..........a	-327.66
	93	18.8	-5.73441E-001	-9.15951E-010	0.00000E+000	-5.73550E-001	1.04582E-003	4	..........a	-327.66
	94	19	-5.83415E-001	-9.66108E-010	0.00000E+000	-5.83550E-001	1.03322E-003	4	..........a	-327.66
	95	19.2	-5.93486E-001	-1.02098E-009	0.00000E+000	-5.93550E-001	1.03162E-003	4	..........a	-327.66
	96	19.4	-6.03442E-001	-1.08248E-009	0.00000E+000	-6.03550E-001	1.03112E-003	4	..........a	-327.66
	97	19.6	-5.93424E-001	-8.22703E-010	0.00000E+000	-5.93550E-001	1.02712E-003	4	..........a	-327.66
	98	19.8	-5.83419E-001	-6.61805E-010	0.00000E+000	-5.83550E-001	1.03972E-003	4	..........a	-327.66
	99	20	-5.73431E-001	-5.50549E-010	0.00000E+000	-5.73550E-001	1.00732E-003	4	..........a	-327.66
	100	20.2	-5.63443E-001	-4.67884E-010	0.00000E+000	-5.63550E-001	1.03152E-003	4	..........a	-327.66
	101	20.4	-5.53435E-001	-4.01122E-010	0.00000E+000	-5.53550E-001	1.01892E-003	4	..........a	-327.66
	102	20.6	-5.43447E-001	-3.45724E-010	0.00000E+000	-5.43550E-001	1.00082E-003	4	..........a	-327.66
	103	20.8	-5.33426E-001	-2.98081E-010	0.00000E+000	-5.33550E-001	1.04362E-003	4	..........a	-327.66
	104	21	-5.23501E-001	-2.56874E-010	0.00000E+000	-5.23550E-001	1.02612E-003	4	..........a	-327.66
	105	21.2	-5.13515E-001	-2.19428E-010	0.00000E+000	-5.13550E-001	1.03822E-003	4	..........a	-327.66
	106	21.4	-5.03449E-001	-1.86009E-010	0.00000E+000	-5.03550E-001	1.00422E-003	4	..........a	-327.66
	107	21.6	-4.93525E-001	-1.57201E-010	0.00000E+000	-4.93550E-001	1.02982E-003	4	..........a	-327.66
	108	21.8	-4.83519E-001	-1.29706E-010	0.00000E+000	-4.83550E-001	1.02522E-003	4	..........a	-327.66
	109	22	-4.73479E-001	-1.04792E-010	0.00000E+000	-4.73550E-001	1.01182E-003	4	..........a	-327.66
	110	22.2	-4.63414E-001	-8.26314E-011	0.00000E+000	-4.63550E-001	1.02832E-003	4	..........a	-327.66
	111	22.4	-4.53458E-001	-6.24446E-011	0.00000E+000	-4.53550E-001	1.00612E-003	4	..........a	-327.66
	112	22.6	-4.43515E-001	-4.29698E-011	0.00000E+000	-4.43550E-001	1.01792E-003	4	..........a	-327.66
	113	22.8	-4.33564E-001	-2.81613E-011	0.00000E+000	-4.33550E-001	1.01182E-003	4	..........a	-327.66
	114	23	-4.23448E-001	-9.57157E-012	0.00000E+000	-4.23550E-001	1.00272E-003	4	..........a	-327.66
	115	23.2	-4.13493E-001	4.79198E-012	0.00000E+000	-4.13550E-001	1.01392E-003	4	..........a	-327.66
	116	23.4	-4.03493E-001	1.83035E-011	0.00000E+000	-4.03550E-001	9.95922E-004	4	..........a	-327.66
	117	23.6	-3.93519E-001	2.90359E-011	0.00000E+000	-3.93550E-001	1.03732E-003	4	..........a	-327.66
	118	23.8	-3.83490E-001	4.12104E-011	0.00000E+000	-3.83550E-001	1.02872E-003	4	..........a	-327.66
	119	24	-3.73446E-001	5.22918E-011	0.00000E+000	-3.73550E-001	9.94722E-004	4	..........a	-327.66
	120	24.2	-3.63524E-001	6.04911E-011	0.00000E+000	-3.63550E-001	1.02312E-003	4	..........a	-327.66
	121	24.4	-3.53480E-001	6.96795E-011	0.00000E+000	-3.53550E-001	1.05002E-003	4	..........a	-327.66
	122	24.6	-3.43649E-001	7.69148E-011	0.00000E+000	-3.43550E-001	1.01022E-003	4	..........a	-327.66
	123	24.8	-3.33496E-001	8.38010E-011	0.00000E+000	-3.33550E-001	1.02192E-003	4	..........a	-327.66
	124	25	-3.23465E-001	8.96252E-011	0.00000E+000	-3.23550E-001	1.02922E-003	4	..........a	-327.66
	125	25.2	-3.13531E-001	9.23904E-011	0.00000E+000	-3.13550E-001	1.02732E-003	4	..........a	-327.66
	126	25.4	-3.03471E-001	9.82576E-011	0.00000E+000	-3.03550E-001	9.97922E-004	4	..........a	-327.66
	127	25.6	-2.93599E-001	1.02504E-010	0.00000E+000	-2.93550E-001	1.00762E-003	4	..........a	-327.66
	128	25.8	-2.83580E-001	1.09897E-010	0.00000E+000	-2.83550E-001	1.04212E-003	4	..........a	-327.66
	129	26	-2.73516E-001	1.10957E-010	0.00000E+000	-2.73550E-001	1.01512E-003	4	..........a	-327.66
	130	26.2	-2.63468E-001	1.15996E-010	0.00000E+000	-2.63550E-001	1.01352E-003	4	..........a	-327.66
	131	26.4	-2.53500E-001	1.17097E-010	0.00000E+000	-2.53550E-001	1.03022E-003	4	..........a	-327.66
	132	26.6	-2.43489E-001	1.20080E-010	0.00000E+000	-2.43550E-001	1.01292E-003	4	..........a	-327.66
	133	26.8	-2.33577E-001	1.20702E-010	0.00000E+000	-2.33550E-001	1.00542E-003	4	..........a	-327.66
	134	27	-2.23466E-001	1.21673E-010	0.00000E+000	-2.23550E-001	1.02592E-003	4	..........a	-327.66
	135	27.2	-2.13514E-001	1.23666E-010	0.00000E+000	-2.13550E-001	1.03872E-003	4	..........a	-327.66
	136	27.4	-2.03580E-001	1.23725E-010	0.00000E+000	-2.03550E-001	1.03262E-003	4	..........a	-327.66
	137	27.6	-1.93514E-001	1.26954E-010	0.00000E+000	-1.93550E-001	1.02232E-003	4	..........a	-327.66
	138	27.8	-1.83528E-001	1.24922E-010	0.00000E+000	-1.83550E-001	1.02112E-003	4	..........a	-327.66
	139	28	-1.73467E-001	1.27859E-010	0.00000E+000	-1.73550E-001	1.04592E-003	4	..........a	-327.66
	140	28.2	-1.63636E-001	1.24874E-010	0.00000E+000	-1.63550E-001	9.93122E-004	4	..........a	-327.66
	141	28.4	-1.53532E-001	1.27919E-010	0.00000E+000	-1.53550E-001	1.01332E-003	4	..........a	-327.66
	142	28.6	-1.43518E-001	1.25536E-010	0.00000E+000	-1.43550E-001	9.93822E-004	4	..........a	-327.66
	143	28.8	-1.33544E-001	1.25086E-010	0.00000E+000	-1.33550E-001	1.02392E-003	4	..........a	-327.66
	144	29	-1.23605E-001	1.27759E-010	0.00000E+000	-1.23550E-001	1.02332E-003	4	..........a	-327.66
	145	29.2	-1.13661E-001	1.24435E-010	0.00000E+000	-1.13550E-001	9.97122E-004	4	..........a	-327.66
	146	29.4	-1.03617E-001	1.28119E-010	0.00000E+000	-1.03550E-001	1.04002E-003	4	..........a	-327.66
	147	29.6	-9.34823E-002	1.25553E-010	0.00000E+000	-9.35500E-002	9.95822E-004	4	..........a	-327.66
	148	29.8	-8.36700E-002	1.27467E-010	0.00000E+000	-8.35500E-002	1.02522E-003	4	..........a	-327.66
	149	30	-7.35652E-002	1.25635E-010	0.00000E+000	-7.35500E-002	9.98722E-004	4	..........a	-327.66
	150	30.2	-6.34322E-002	1.25803E-010	0.00000E+000	-6.35500E-002	1.00982E-003	4	..........a	-327.66
	151	30.4	-5.35335E-002	1.27375E-010	0.00000E+000	-5.35500E-002	1.00112E-003	4	..........a	-327.66
	152	30.6	-4.35547E-002	1.26631E-010	0.00000E+000	-4.35500E-002	1.03792E-003	4	..........a	-327.66
	153	30.8	-3.35204E-002	1.28316E-010	0.00000E+000	-3.35500E-002	1.00902E-003	4	..........a	-327.66
	154	31	-2.35698E-002	1.27814E-010	0.00000E+000	-2.35500E-002	1.00942E-003	4	..........a	-327.66
	155	31.2	-1.34935E-002	1.29616E-010	0.00000E+000	-1.35500E-002	1.02912E-003	4	..........a	-327.66
	156	31.4	-3.61461E-003	1.29622E-010	0.00000E+000	-3.54999E-003	1.02792E-003	4	..........a	-327.66
	157	31.6	6.51654E-003	1.30795E-010	0.00000E+000	6.45000E-003	1.04652E-003	4	..........a	-327.66
	158	31.8	1.66422E-002	1.31980E-010	0.00000E+000	1.64500E-002	9.95722E-004	4	..........a	-327.66
	159	32	2.64707E-002	1.32712E-010	0.00000E+000	2.64500E-002	1.01702E-003	4	..........a	-327.66
	160	32.2	3.64977E-002	1.33924E-010	0.00000E+000	3.64500E-002	1.01192E-003	4	..........a	-327.66
	161	32.4	4.64706E-002	1.34449E-010	0.00000E+000	4.64500E-002	1.02302E-003	4	..........a	-327.66
	162	32.6	5.65099E-002	1.36492E-010	0.00000E+000	5.64500E-002	1.03352E-003	4	..........a	-327.66
	163	32.8	6.64983E-002	1.38010E-010	0.00000E+000	6.64500E-002	1.03162E-003	4	..........a	-327.66
	164	33	7.64180E-002	1.39130E-010	0.00000E+000	7.64500E-002	1.05012E-003	4	..........a	-327.66
	165	33.2	8.64852E-002	1.40379E-010	0.00000E+000	8.64500E-002	9.92322E-004	4	..........a	-327.66
	166	33.4	9.65107E-002	1.42797E-010	0.00000E+000	9.64500E-002	1.04282E-003	4	..........a	-327.66
	167	33.6	1.06469E-001	1.44670E-010	0.00000E+000	1.06450E-001	1.00132E-003	4	..........a	-327.66
	168	33.8	1.16277E-001	1.52908E-010	0.00000E+000	1.16450E-001	1.01702E-003	4	..........a	-327.66
	169	34	1.26435E-001	1.51122E-010	0.00000E+000	1.26450E-001	1.04352E-003	4	..........a	-327.66
	170	34.2	1.36529E-001	1.56686E-010	0.00000E+000	1.36450E-001	1.00682E-003	4	..........a	-327.66
	171	34.4	1.46471E-001	1.54507E-010	0.00000E+000	1.46450E-001	1.03252E-003	4	..........a	-327.66
	172	34.6	1.56451E-001	1.55772E-010	0.00000E+000	1.56450E-001	1.03272E-003	4	..........a	-327.66
	173	34.8	1.66543E-001	1.62622E-010	0.00000E+000	1.66450E-001	1.01842E-003	4	..........a	-327.66
	174	35	1.76500E-001	1.64687E-010	0.00000E+000	1.76450E-001	1.00182E-003	4	..........a	-327.66
	175	35.2	1.86532E-001	1.68034E-010	0.00000E+000	1.86450E-001	1.01172E-003	4	..........a	-327.66
	176	35.4	1.96397E-001	1.70669E-010	0.00000E+000	1.96450E-001	1.02182E-003	4	..........a	-327.66
	177	35.6	2.06397E-001	1.74390E-010	0.00000E+000	2.06450E-001	1.04242E-003	4	..........a	-327.66
	178	35.8	2.16452E-001	1.79694E-010	0.00000E+000	2.16450E-001	1.02112E-003	4	..........a	-327.66
	179	36	2.26415E-001	1.82410E-010	0.00000E+000	2.26450E-001	1.03392E-003	4	..........a	-327.66
	180	36.2	2.36414E-001	1.91548E-010	0.00000E+000	2.36450E-001	9.98922E-004	4	..........a	-327.66
	181	36.4	2.46421E-001	1.90183E-010	0.00000E+000	2.46450E-001	1.04242E-003	4	..........a	-327.66
	182	36.6	2.56399E-001	1.96060E-010	0.00000E+000	2.56450E-001	9.78422E-004	4	..........a	-327.66
	183	36.8	2.66476E-001	1.99171E-010	0.00000E+000	2.66450E-001	1.03072E-003	4	..........a	-327.66
	184	37	2.76403E-001	2.05092E-010	0.00000E+000	2.76450E-001	1.00552E-003	4	..........a	-327.66
	185	37.2	2.86437E-001	2.10025E-010	0.00000E+000	2.86450E-001	1.04832E-003	4	..........a	-327.66
	186	37.4	2.95820E-001	2.15884E-010	0.00000E+000	2.96450E-001	1.01772E-003	4	..........a	-327.66
	187	37.6	3.06437E-001	2.19071E-010	0.00000E+000	3.06450E-001	1.04142E-003	4	..........a	-327.66
	188	37.8	3.16423E-001	2.23143E-010	0.00000E+000	3.16450E-001	1.03882E-003	4	..........a	-327.66
	189	38	3.26365E-001	2.30683E-010	0.00000E+000	3.26450E-001	1.02982E-003	4	..........a	-327.66
	190	38.2	3.36436E-001	2.42428E-010	0.00000E+000	3.36450E-001	1.00612E-003	4	..........a	-327.66
	191	38.4	3.46395E-001	2.49649E-010	0.00000E+000	3.46450E-001	1.03312E-003	4	..........a	-327.66
	192	38.6	3.56376E-001	2.57623E-010	0.00000E+000	3.56450E-001	1.03882E-003	4	..........a	-327.66
	193	38.8	3.66384E-001	2.65789E-010	0.00000E+000	3.66450E-001	1.03882E-003	4	..........a	-327.66
	194	39	3.76401E-001	2.75731E-010	0.00000E+000	3.76450E-001	1.03202E-003	4	..........a	-327.66
	195	39.2	3.86409E-001	2.85238E-010	0.00000E+000	3.86450E-001	1.02052E-003	4	..........a	-327.66
	196	39.4	3.96417E-001	2.95785E-010	0.00000E+000	3.96450E-001	1.00802E-003	4	..........a	-327.66
	197	39.6	4.06365E-001	3.06538E-010	0.00000E+000	4.06450E-001	1.00932E-003	4	..........a	-327.66
	198	39.8	4.16404E-001	3.17821E-010	0.00000E+000	4.16450E-001	1.02722E-003	4	..........a	-327.66
	199	40	4.26357E-001	3.29561E-010	0.00000E+000	4.26450E-001	1.05412E-003	4	..........a	-327.66
	200	40.2	4.36366E-001	3.42188E-010	0.00000E+000	4.36450E-001	1.01342E-003	4	..........a	-327.66
	201	40.4	4.46430E-001	3.54409E-010	0.00000E+000	4.46450E-001	1.02242E-003	4	..........a	-327.66
	202	40.6	4.56410E-001	3.67804E-010	0.00000E+000	4.56450E-001	1.01082E-003	4	..........a	-327.66
	203	40.8	4.66432E-001	3.82287E-010	0.00000E+000	4.66450E-001	1.03252E-003	4	..........a	-327.66
	204	41	4.76334E-001	3.94839E-010	0.00000E+000	4.76450E-001	1.00932E-003	4	..........a	-327.66
	205	41.2	4.86383E-001	4.07982E-010	0.00000E+000	4.86450E-001	1.03352E-003	4	..........a	-327.66
	206	41.4	4.96411E-001	4.22387E-010	0.00000E+000	4.96450E-001	1.01242E-003	4	..........a	-327.66
	207	41.6	5.06447E-001	4.36592E-010	0.00000E+000	5.06450E-001	1.01902E-003	4	..........a	-327.66
	208	41.8	5.16387E-001	4.50692E-010	0.00000E+000	5.16450E-001	1.01632E-003	4	..........a	-327.66
	209	42	5.26486E-001	4.64503E-010	0.00000E+000	5.26450E-001	1.00192E-003	4	..........a	-327.66
	210	42.2	5.36422E-001	4.78305E-010	0.00000E+000	5.36450E-001	1.02162E-003	4	..........a	-327.66
	211	42.4	5.46452E-001	4.94689E-010	0.00000E+000	5.46450E-001	1.02182E-003	4	..........a	-327.66
	212	42.6	5.56324E-001	5.09516E-010	0.00000E+000	5.56450E-001	1.01892E-003	4	..........a	-327.66
	213	42.8	5.66407E-001	5.23380E-010	0.00000E+000	5.66450E-001	1.01512E-003	4	..........a	-327.66
	214	43	5.76308E-001	5.40464E-010	0.00000E+000	5.76450E-001	9.93822E-004	4	..........a	-327.66
	215	43.2	5.86435E-001	5.54331E-010	0.00000E+000	5.86450E-001	1.03742E-003	4	..........a	-327.66
	216	43.4	5.96394E-001	5.70276E-010	0.00000E+000	5.96450E-001	1.03162E-003	4	..........a	-327.66
	217	43.6	6.06391E-001	5.86303E-010	0.00000E+000	6.06450E-001	1.01792E-003	4	..........a	-327.66
	218	43.8	6.16361E-001	6.01812E-010	0.00000E+000	6.16450E-001	1.01122E-003	4	..........a	-327.66
	219	44	6.26415E-001	6.19579E-010	0.00000E+000	6.26450E-001	1.01422E-003	4	..........a	-327.66
	220	44.2	6.36313E-001	6.36842E-010	0.00000E+000	6.36450E-001	1.02242E-003	4	..........a	-327.66
	221	44.4	6.46375E-001	6.54047E-010	0.00000E+000	6.46450E-001	1.00842E-003	4	..........a	-327.66
	222	44.6	6.56385E-001	6.70400E-010	0.00000E+000	6.56450E-001	1.02182E-003	4	..........a	-327.66
	223	44.8	6.66425E-001	6.88359E-010	0.00000E+000	6.66450E-001	1.00922E-003	4	..........a	-327.66
	224	45	6.76351E-001	7.05494E-010	0.00000E+000	6.76450E-001	1.01922E-003	4	..........a	-327.66
	225	45.2	6.86359E-001	7.22836E-010	0.00000E+000	6.86450E-001	1.02602E-003	4	..........a	-327.66
	226	45.4	6.96363E-001	7.38542E-010	0.00000E+000	6.96450E-001	1.01552E-003	4	..........a	-327.66
	227	45.6	7.06400E-001	7.59398E-010	0.00000E+000	7.06450E-001	1.02112E-003	4	..........a	-327.66
	228	45.8	7.16295E-001	7.78480E-010	0.00000E+000	7.16450E-001	1.03052E-003	4	..........a	-327.66
	229	46	7.26359E-001	7.98027E-010	0.00000E+000	7.26450E-001	1.02112E-003	4	..........a	-327.66
	230	46.2	7.36374E-001	8.18665E-010	0.00000E+000	7.36450E-001	1.00382E-003	4	..........a	-327.66
	231	46.4	7.46409E-001	8.39983E-010	0.00000E+000	7.46450E-001	1.02522E-003	4	..........a	-327.66
	232	46.6	7.56374E-001	8.62062E-010	0.00000E+000	7.56450E-001	1.00552E-003	4	..........a	-327.66
	233	46.8	7.66313E-001	8.84721E-010	0.00000E+000	7.66450E-001	1.00902E-003	4	..........a	-327.66
	234	47	7.76347E-001	9.07114E-010	0.00000E+000	7.76450E-001	1.01512E-003	4	..........a	-327.66
	235	47.2	7.86404E-001	9.30512E-010	0.00000E+000	7.86450E-001	1.02182E-003	4	..........a	-327.66
	236	47.4	7.96338E-001	9.54680E-010	0.00000E+000	7.96450E-001	9.99522E-004	4	..........a	-327.66
CURVE2	TABLE
	Pt	T	Vf	Im	Vu	Sig	Ach	IERange	Over	Temp
	#	s	V vs. Ref.	A	V	V	V	#	bits	deg C
	237	47.6	7.89944E-001	7.32352E-010	0.00000E+000	7.90000E-001	1.02912E-003	4	..........a	-327.66
	238	47.8	7.79933E-001	5.46130E-010	0.00000E+000	7.80000E-001	1.00852E-003	4	..........a	-327.66
	239	48	7.69908E-001	4.12043E-010	0.00000E+000	7.70000E-001	9.90222E-004	4	..........a	-327.66
	240	48.2	7.59856E-001	3.14832E-010	0.00000E+000	7.60000E-001	1.01322E-003	4	..........a	-327.66
	241	48.4	7.49912E-001	2.40331E-010	0.00000E+000	7.50000E-001	1.03162E-003	4	..........a	-327.66
	242	48.6	7.39994E-001	1.83279E-010	0.00000E+000	7.40000E-001	1.03472E-003	4	..........a	-327.66
	243	48.8	7.29981E-001	1.36759E-010	0.00000E+000	7.30000E-001	1.02362E-003	4	..........a	-327.66
	244	49	7.19922E-001	9.68455E-011	0.00000E+000	7.20000E-001	1.03972E-003	4	..........a	-327.66
	245	49.2	7.09879E-001	6.93325E-011	0.00000E+000	7.10000E-001	1.04772E-003	4	..........a	-327.66
	246	49.4	6.99971E-001	4.44795E-011	0.00000E+000	7.00000E-001	1.03572E-003	4	..........a	-327.66
	247	49.6	6.89880E-001	2.47127E-011	0.00000E+000	6.90000E-001	1.03362E-003	4	..........a	-327.66
	248	49.8	6.79802E-001	5.13600E-012	0.00000E+000	6.80000E-001	1.03582E-003	4	..........a	-327.66
	249	50	6.69892E-001	-8.59753E-012	0.00000E+000	6.70000E-001	1.02092E-003	4	..........a	-327.66
	250	50.2	6.59994E-001	-2.34131E-011	0.00000E+000	6.60000E-001	1.02482E-003	4	..........a	-327.66
	251	50.4	6.49921E-001	-3.64196E-011	0.00000E+000	6.50000E-001	1.01382E-003	4	..........a	-327.66
	252	50.6	6.39906E-001	-4.43259E-011	0.00000E+000	6.40000E-001	1.03302E-003	4	..........a	-327.66
	253	50.8	6.29913E-001	-5.44013E-011	0.00000E+000	6.30000E-001	1.00862E-003	4	..........a	-327.66
	254	51	6.20000E-001	-6.12826E-011	0.00000E+000	6.20000E-001	1.02002E-003	4	..........a	-327.66
	255	51.2	6.09938E-001	-7.04209E-011	0.00000E+000	6.10000E-001	1.02052E-003	4	..........a	-327.66
	256	51.4	5.99957E-001	-7.71462E-011	0.00000E+000	6.00000E-001	1.02652E-003	4	..........a	-327.66
	257	51.6	5.89924E-001	-8.37744E-011	0.00000E+000	5.90000E-001	1.03962E-003	4	..........a	-327.66
	258	51.8	5.79983E-001	-9.00457E-011	0.00000E+000	5.80000E-001	1.03402E-003	4	..........a	-327.66
	259	52	5.69951E-001	-9.62069E-011	0.00000E+000	5.70000E-001	1.03602E-003	4	..........a	-327.66
	260	52.2	5.59935E-001	-1.00211E-010	0.00000E+000	5.60000E-001	1.01642E-003	4	..........a	-327.66
	261	52.4	5.49933E-001	-1.04202E-010	0.00000E+000	5.50000E-001	1.01052E-003	4	..........a	-327.66
	262	52.6	5.40009E-001	-1.08816E-010	0.00000E+000	5.40000E-001	1.03852E-003	4	..........a	-327.66
	263	52.8	5.29904E-001	-1.12726E-010	0.00000E+000	5.30000E-001	9.99622E-004	4	..........a	-327.66
	264	53	5.19948E-001	-1.16080E-010	0.00000E+000	5.20000E-001	9.95822E-004	4	..........a	-327.66
	265	53.2	5.09933E-001	-1.19322E-010	0.00000E+000	5.10000E-001	1.02062E-003	4	..........a	-327.66
	266	53.4	5.00011E-001	-1.22375E-010	0.00000E+000	5.00000E-001	1.01882E-003	4	..........a	-327.66
	267	53.6	4.89930E-001	-1.24946E-010	0.00000E+000	4.90000E-001	1.04402E-003	4	..........a	-327.66
	268	53.8	4.79921E-001	-1.26115E-010	0.00000E+000	4.80000E-001	1.02322E-003	4	..........a	-327.66
	269	54	4.69952E-001	-1.29702E-010	0.00000E+000	4.70000E-001	1.04922E-003	4	..........a	-327.66
	270	54.2	4.60009E-001	-1.28894E-010	0.00000E+000	4.60000E-001	1.04252E-003	4	..........a	-327.66
	271	54.4	4.49943E-001	-1.33099E-010	0.00000E+000	4.50000E-001	1.02102E-003	4	..........a	-327.66
	272	54.6	4.39926E-001	-1.31963E-010	0.00000E+000	4.40000E-001	1.01932E-003	4	..........a	-327.66
	273	54.8	4.29969E-001	-1.35110E-010	0.00000E+000	4.30000E-001	9.97922E-004	4	..........a	-327.66
	274	55	4.20003E-001	-1.35733E-010	0.00000E+000	4.20000E-001	1.00382E-003	4	..........a	-327.66
	275	55.2	4.09921E-001	-1.36362E-010	0.00000E+000	4.10000E-001	1.03422E-003	4	..........a	-327.66
	276	55.4	3.99921E-001	-1.37240E-010	0.00000E+000	4.00000E-001	1.02712E-003	4	..........a	-327.66
	277	55.6	3.89947E-001	-1.37557E-010	0.00000E+000	3.90000E-001	1.02292E-003	4	..........a	-327.66
	278	55.8	3.79995E-001	-1.39098E-010	0.00000E+000	3.80000E-001	1.04232E-003	4	..........a	-327.66
	279	56	3.69969E-001	-1.39482E-010	0.00000E+000	3.70000E-001	1.02642E-003	4	..........a	-327.66
	280	56.2	3.59845E-001	-1.40176E-010	0.00000E+000	3.60000E-001	1.03642E-003	4	..........a	-327.66
	281	56.4	3.49942E-001	-1.40141E-010	0.00000E+000	3.50000E-001	1.04272E-003	4	..........a	-327.66
	282	56.6	3.40025E-001	-1.40506E-010	0.00000E+000	3.40000E-001	1.04542E-003	4	..........a	-327.66
	283	56.8	3.29966E-001	-1.41249E-010	0.00000E+000	3.30000E-001	9.98722E-004	4	..........a	-327.66
	284	57	3.19878E-001	-1.40991E-010	0.00000E+000	3.20000E-001	1.03212E-003	4	..........a	-327.66
	285	57.2	3.09956E-001	-1.41334E-010	0.00000E+000	3.10000E-001	1.03962E-003	4	..........a	-327.66
	286	57.4	2.99978E-001	-1.41518E-010	0.00000E+000	3.00000E-001	1.02592E-003	4	..........a	-327.66
	287	57.6	2.89973E-001	-1.41740E-010	0.00000E+000	2.90000E-001	1.02372E-003	4	..........a	-327.66
	288	57.8	2.79925E-001	-1.42278E-010	0.00000E+000	2.80000E-001	1.03882E-003	4	..........a	-327.66
	289	58	2.69918E-001	-1.42097E-010	0.00000E+000	2.70000E-001	1.03812E-003	4	..........a	-327.66
	290	58.2	2.59986E-001	-1.42420E-010	0.00000E+000	2.60000E-001	1.02522E-003	4	..........a	-327.66
	291	58.4	2.49973E-001	-1.42476E-010	0.00000E+000	2.50000E-001	1.05072E-003	4	..........a	-327.66
	292	58.6	2.39914E-001	-1.43618E-010	0.00000E+000	2.40000E-001	1.01112E-003	4	..........a	-327.66
	293	58.8	2.29935E-001	-1.42400E-010	0.00000E+000	2.30000E-001	1.02072E-003	4	..........a	-327.66
	294	59	2.19976E-001	-1.43065E-010	0.00000E+000	2.20000E-001	1.04642E-003	4	..........a	-327.66
	295	59.2	2.09972E-001	-1.42594E-010	0.00000E+000	2.10000E-001	1.04262E-003	4	..........a	-327.66
	296	59.4	1.99943E-001	-1.43239E-010	0.00000E+000	2.00000E-001	1.00692E-003	4	..........a	-327.66
	297	59.6	1.89996E-001	-1.42096E-010	0.00000E+000	1.90000E-001	1.01442E-003	4	..........a	-327.66
	298	59.8	1.80012E-001	-1.42595E-010	0.00000E+000	1.80000E-001	1.01752E-003	4	..........a	-327.66
	299	60	1.70011E-001	-1.42252E-010	0.00000E+000	1.70000E-001	1.01652E-003	4	..........a	-327.66
	300	60.2	1.59913E-001	-1.42276E-010	0.00000E+000	1.60000E-001	1.03652E-003	4	..........a	-327.66
	301	60.4	1.49978E-001	-1.41456E-010	0.00000E+000	1.50000E-001	1.03922E-003	4	..........a	-327.66
	302	60.6	1.40053E-001	-1.41835E-010	0.00000E+000	1.40000E-001	1.03982E-003	4	..........a	-327.66
	303	60.8	1.30006E-001	-1.41223E-010	0.00000E+000	1.30000E-001	9.94022E-004	4	..........a	-327.66
	304	61	1.19950E-001	-1.41344E-010	0.00000E+000	1.20000E-001	1.03532E-003	4	..........a	-327.66
	305	61.2	1.10005E-001	-1.41071E-010	0.00000E+000	1.10000E-001	1.02172E-003	4	..........a	-327.66
	306	61.4	9.99781E-002	-1.41318E-010	0.00000E+000	1.00000E-001	1.04452E-003	4	..........a	-327.66
	307	61.6	8.99692E-002	-1.41168E-010	0.00000E+000	9.00000E-002	1.02932E-003	4	..........a	-327.66
	308	61.8	7.99000E-002	-1.42253E-010	0.00000E+000	8.00000E-002	1.01942E-003	4	..........a	-327.66
	309	62	6.99575E-002	-1.42506E-010	0.00000E+000	7.00000E-002	1.02112E-003	4	..........a	-327.66
	310	62.2	6.00310E-002	-1.43294E-010	0.00000E+000	6.00000E-002	1.01732E-003	4	..........a	-327.66
	311	62.4	5.00013E-002	-1.44163E-010	0.00000E+000	5.00000E-002	1.03122E-003	4	..........a	-327.66
	312	62.6	3.99443E-002	-1.45667E-010	0.00000E+000	4.00000E-002	1.02432E-003	4	..........a	-327.66
	313	62.8	2.99763E-002	-1.46891E-010	0.00000E+000	3.00000E-002	1.01452E-003	4	..........a	-327.66
	314	63	1.99603E-002	-1.48352E-010	0.00000E+000	2.00000E-002	1.01972E-003	4	..........a	-327.66
	315	63.2	1.00332E-002	-1.50511E-010	0.00000E+000	1.00000E-002	1.01462E-003	4	..........a	-327.66
	316	63.4	7.59083E-006	-1.53527E-010	0.00000E+000	7.45058E-009	1.03182E-003	4	..........a	-327.66
	317	63.6	-1.00264E-002	-1.55343E-010	0.00000E+000	-1.00000E-002	1.02262E-003	4	..........a	-327.66
	318	63.8	-1.99701E-002	-1.58463E-010	0.00000E+000	-2.00000E-002	1.03642E-003	4	..........a	-327.66
	319	64	-3.00128E-002	-1.62094E-010	0.00000E+000	-3.00000E-002	1.00022E-003	4	..........a	-327.66
	320	64.2	-3.99868E-002	-1.64370E-010	0.00000E+000	-4.00000E-002	1.03202E-003	4	..........a	-327.66
	321	64.4	-5.00242E-002	-1.67144E-010	0.00000E+000	-5.00000E-002	1.02552E-003	4	..........a	-327.66
	322	64.6	-5.99598E-002	-1.70546E-010	0.00000E+000	-6.00000E-002	1.02802E-003	4	..........a	-327.66
	323	64.8	-7.00060E-002	-1.74563E-010	0.00000E+000	-7.00000E-002	9.98122E-004	4	..........a	-327.66
	324	65	-8.00207E-002	-1.78954E-010	0.00000E+000	-8.00000E-002	1.01872E-003	4	..........a	-327.66
	325	65.2	-9.00020E-002	-1.82507E-010	0.00000E+000	-9.00000E-002	1.04212E-003	4	..........a	-327.66
	326	65.4	-9.99960E-002	-1.87866E-010	0.00000E+000	-1.00000E-001	1.02132E-003	4	..........a	-327.66
	327	65.6	-1.10008E-001	-1.92555E-010	0.00000E+000	-1.10000E-001	1.02382E-003	4	..........a	-327.66
	328	65.8	-1.20062E-001	-1.97722E-010	0.00000E+000	-1.20000E-001	1.01152E-003	4	..........a	-327.66
	329	66	-1.30053E-001	-2.02720E-010	0.00000E+000	-1.30000E-001	1.04482E-003	4	..........a	-327.66
	330	66.2	-1.39987E-001	-2.08590E-010	0.00000E+000	-1.40000E-001	1.02942E-003	4	..........a	-327.66
	331	66.4	-1.50013E-001	-2.14893E-010	0.00000E+000	-1.50000E-001	1.03072E-003	4	..........a	-327.66
	332	66.6	-1.60028E-001	-2.22351E-010	0.00000E+000	-1.60000E-001	1.05232E-003	4	..........a	-327.66
	333	66.8	-1.69993E-001	-2.28289E-010	0.00000E+000	-1.70000E-001	1.01912E-003	4	..........a	-327.66
	334	67	-1.79961E-001	-2.35452E-010	0.00000E+000	-1.80000E-001	1.02752E-003	4	..........a	-327.66
	335	67.2	-1.90051E-001	-2.43252E-010	0.00000E+000	-1.90000E-001	1.00522E-003	4	..........a	-327.66
	336	67.4	-2.00024E-001	-2.51781E-010	0.00000E+000	-2.00000E-001	1.01222E-003	4	..........a	-327.66
	337	67.6	-2.09958E-001	-2.61088E-010	0.00000E+000	-2.10000E-001	1.03602E-003	4	..........a	-327.66
	338	67.8	-2.19930E-001	-2.68950E-010	0.00000E+000	-2.20000E-001	1.01642E-003	4	..........a	-327.66
	339	68	-2.29979E-001	-2.83626E-010	0.00000E+000	-2.30000E-001	1.03252E-003	4	..........a	-327.66
	340	68.2	-2.39923E-001	-2.92011E-010	0.00000E+000	-2.40000E-001	1.02012E-003	4	..........a	-327.66
	341	68.4	-2.49934E-001	-2.98062E-010	0.00000E+000	-2.50000E-001	1.04152E-003	4	..........a	-327.66
	342	68.6	-2.59885E-001	-3.09573E-010	0.00000E+000	-2.60000E-001	1.00872E-003	4	..........a	-327.66
	343	68.8	-2.69935E-001	-3.24276E-010	0.00000E+000	-2.70000E-001	1.03162E-003	4	..........a	-327.66
	344	69	-2.79904E-001	-3.34429E-010	0.00000E+000	-2.80000E-001	9.99722E-004	4	..........a	-327.66
	345	69.2	-2.89974E-001	-3.45496E-010	0.00000E+000	-2.90000E-001	1.03192E-003	4	..........a	-327.66
	346	69.4	-2.99861E-001	-3.52570E-010	0.00000E+000	-3.00000E-001	1.01762E-003	4	..........a	-327.66
	347	69.6	-3.09945E-001	-3.71281E-010	0.00000E+000	-3.10000E-001	1.03132E-003	4	..........a	-327.66
	348	69.8	-3.19919E-001	-3.89426E-010	0.00000E+000	-3.20000E-001	1.03252E-003	4	..........a	-327.66
	349	70	-3.29973E-001	-4.04435E-010	0.00000E+000	-3.30000E-001	1.00432E-003	4	..........a	-327.66
	350	70.2	-3.39920E-001	-4.20691E-010	0.00000E+000	-3.40000E-001	1.01682E-003	4	..........a	-327.66
	351	70.4	-3.49921E-001	-4.35963E-010	0.00000E+000	-3.50000E-001	9.91522E-004	4	..........a	-327.66
	352	70.6	-3.59937E-001	-4.53289E-010	0.00000E+000	-3.60000E-001	1.03912E-003	4	..........a	-327.66
	353	70.8	-3.69910E-001	-4.68025E-010	0.00000E+000	-3.70000E-001	1.02082E-003	4	..........a	-327.66
[...]
	921	184.4	-4.49911E-001	-6.65558E-010	0.00000E+000	-4.50000E-001	1.02372E-003	4	..........a	-327.66
	922	184.6	-4.59898E-001	-6.88400E-010	0.00000E+000	-4.60000E-001	1.00062E-003	4	..........a	-327.66
	923	184.8	-4.69912E-001	-7.14041E-010	0.00000E+000	-4.70000E-001	1.02582E-003	4	..........a	-327.66
	924	185	-4.79931E-001	-7.40021E-010	0.00000E+000	-4.80000E-001	1.00452E-003	4	..........a	-327.66
	925	185.2	-4.89955E-001	-7.67876E-010	0.00000E+000	-4.90000E-001	1.01472E-003	4	..........a	-327.66
	926	185.4	-4.99901E-001	-8.01395E-010	0.00000E+000	-5.00000E-001	1.02032E-003	4	..........a	-327.66
	927	185.6	-5.09888E-001	-8.30619E-010	0.00000E+000	-5.10000E-001	1.01132E-003	4	..........a	-327.66
	928	185.8	-5.19900E-001	-8.65615E-010	0.00000E+000	-5.20000E-001	1.00102E-003	4	..........a	-327.66
	929	186	-5.29905E-001	-9.02041E-010	0.00000E+000	-5.30000E-001	1.03022E-003	4	..........a	-327.66
	930	186.2	-5.39903E-001	-9.44259E-010	0.00000E+000	-5.40000E-001	1.02822E-003	4	..........a	-327.66
	931	186.4	-5.50039E-001	-9.86257E-010	0.00000E+000	-5.50000E-001	1.00322E-003	4	..........a	-327.66
	932	186.6	-5.59990E-001	-1.03655E-009	0.00000E+000	-5.60000E-001	9.92522E-004	4	..........a	-327.66
	933	186.8	-5.69927E-001	-1.08904E-009	0.00000E+000	-5.70000E-001	9.89622E-004	4	..........a	-327.66
	934	187	-5.79875E-001	-1.14641E-009	0.00000E+000	-5.80000E-001	1.00842E-003	4	..........a	-327.66
	935	187.2	-5.89921E-001	-1.21038E-009	0.00000E+000	-5.90000E-001	1.02602E-003	4	..........a	-327.66
	936	187.4	-5.99970E-001	-1.27982E-009	0.00000E+000	-6.00000E-001	9.97822E-004	4	..........a	-327.66
	937	187.6	-5.89897E-001	-9.66601E-010	0.00000E+000	-5.90000E-001	1.00592E-003	4	..........a	-327.66
	938	187.8	-5.79876E-001	-8.09490E-010	0.00000E+000	-5.80000E-001	1.02972E-003	4	..........a	-327.66
	939	188	-5.69971E-001	-7.03505E-010	0.00000E+000	-5.70000E-001	1.03162E-003	4	..........a	-327.66
	940	188.2	-5.59906E-001	-6.21151E-010	0.00000E+000	-5.60000E-001	9.89122E-004	4	..........a	-327.66
	941	188.4	-5.49996E-001	-5.53149E-010	0.00000E+000	-5.50000E-001	1.00912E-003	4	..........a	-327.66
	942	188.6	-5.39892E-001	-4.91146E-010	0.00000E+000	-5.40000E-001	1.02222E-003	4	..........a	-327.66
	943	188.8	-5.29902E-001	-4.42730E-010	0.00000E+000	-5.30000E-001	1.03172E-003	4	..........a	-327.66
	944	189	-5.19952E-001	-3.96327E-010	0.00000E+000	-5.20000E-001	1.00242E-003	4	..........a	-327.66
	945	189.2	-5.09903E-001	-3.53893E-010	0.00000E+000	-5.10000E-001	9.94622E-004	4	..........a	-327.66
	946	189.4	-4.99901E-001	-3.16488E-010	0.00000E+000	-5.00000E-001	1.02232E-003	4	..........a	-327.66
	947	189.6	-4.89936E-001	-2.85678E-010	0.00000E+000	-4.90000E-001	1.00582E-003	4	..........a	-327.66
	948	189.8	-4.79904E-001	-2.49469E-010	0.00000E+000	-4.80000E-001	1.03262E-003	4	..........a	-327.66
	949	190	-4.69869E-001	-2.18743E-010	0.00000E+000	-4.70000E-001	1.01252E-003	4	..........a	-327.66
	950	190.2	-4.59961E-001	-1.91268E-010	0.00000E+000	-4.60000E-001	1.02642E-003	4	..........a	-327.66
	951	190.4	-4.49927E-001	-1.65303E-010	0.00000E+000	-4.50000E-001	1.01382E-003	4	..........a	-327.66
	952	190.6	-4.40015E-001	-1.41168E-010	0.00000E+000	-4.40000E-001	9.99422E-004	4	..........a	-327.66
	953	190.8	-4.29923E-001	-1.17648E-010	0.00000E+000	-4.30000E-001	1.01722E-003	4	..........a	-327.66
	954	191	-4.19925E-001	-9.70729E-011	0.00000E+000	-4.20000E-001	1.01842E-003	4	..........a	-327.66
	955	191.2	-4.09984E-001	-7.55791E-011	0.00000E+000	-4.10000E-001	1.05762E-003	4	..........a	-327.66
	956	191.4	-3.99956E-001	-5.78484E-011	0.00000E+000	-4.00000E-001	1.01532E-003	4	..........a	-327.66
	957	191.6	-3.89984E-001	-4.05648E-011	0.00000E+000	-3.90000E-001	1.00882E-003	4	..........a	-327.66
	958	191.8	-3.79971E-001	-2.51592E-011	0.00000E+000	-3.80000E-001	1.04812E-003	4	..........a	-327.66
	959	192	-3.70005E-001	-8.05451E-012	0.00000E+000	-3.70000E-001	1.02342E-003	4	..........a	-327.66
	960	192.2	-3.59963E-001	7.45409E-012	0.00000E+000	-3.60000E-001	1.02782E-003	4	..........a	-327.66
	961	192.4	-3.49958E-001	2.15176E-011	0.00000E+000	-3.50000E-001	1.02922E-003	4	..........a	-327.66
	962	192.6	-3.39980E-001	3.29131E-011	0.00000E+000	-3.40000E-001	1.01322E-003	4	..........a	-327.66
	963	192.8	-3.29997E-001	4.57716E-011	0.00000E+000	-3.30000E-001	9.93122E-004	4	..........a	-327.66
	964	193	-3.19934E-001	5.66310E-011	0.00000E+000	-3.20000E-001	9.88422E-004	4	..........a	-327.66
	965	193.2	-3.09957E-001	6.67034E-011	0.00000E+000	-3.10000E-001	1.02122E-003	4	..........a	-327.66
	966	193.4	-2.99923E-001	7.72888E-011	0.00000E+000	-3.00000E-001	1.01872E-003	4	..........a	-327.66
	967	193.6	-2.89978E-001	8.69921E-011	0.00000E+000	-2.90000E-001	1.00502E-003	4	..........a	-327.66
	968	193.8	-2.79959E-001	9.31704E-011	0.00000E+000	-2.80000E-001	9.99422E-004	4	..........a	-327.66
	969	194	-2.69941E-001	1.01910E-010	0.00000E+000	-2.70000E-001	1.02102E-003	4	..........a	-327.66
	970	194.2	-2.59976E-001	1.10265E-010	0.00000E+000	-2.60000E-001	1.03742E-003	4	..........a	-327.66
	971	194.4	-2.50030E-001	1.19539E-010	0.00000E+000	-2.50000E-001	1.01142E-003	4	..........a	-327.66
	972	194.6	-2.40006E-001	1.22783E-010	0.00000E+000	-2.40000E-001	1.00922E-003	4	..........a	-327.66
	973	194.8	-2.30067E-001	1.28006E-010	0.00000E+000	-2.30000E-001	1.02992E-003	4	..........a	-327.66
	974	195	-2.19930E-001	1.29890E-010	0.00000E+000	-2.20000E-001	1.00072E-003	4	..........a	-327.66
	975	195.2	-2.10009E-001	1.34790E-010	0.00000E+000	-2.10000E-001	1.03832E-003	4	..........a	-327.66
	976	195.4	-1.99984E-001	1.37092E-010	0.00000E+000	-2.00000E-001	1.00982E-003	4	..........a	-327.66
	977	195.6	-1.90189E-001	1.40029E-010	0.00000E+000	-1.90000E-001	1.03762E-003	4	..........a	-327.66
	978	195.8	-1.79978E-001	1.41555E-010	0.00000E+000	-1.80000E-001	1.04502E-003	4	..........a	-327.66
	979	196	-1.70006E-001	1.42720E-010	0.00000E+000	-1.70000E-001	1.03912E-003	4	..........a	-327.66
	980	196.2	-1.59988E-001	1.44028E-010	0.00000E+000	-1.60000E-001	1.03202E-003	4	..........a	-327.66
	981	196.4	-1.50028E-001	1.45469E-010	0.00000E+000	-1.50000E-001	1.02852E-003	4	..........a	-327.66
	982	196.6	-1.39936E-001	1.51718E-010	0.00000E+000	-1.40000E-001	1.01312E-003	4	..........a	-327.66
	983	196.8	-1.30082E-001	1.48271E-010	0.00000E+000	-1.30000E-001	9.86522E-004	4	..........a	-327.66
	984	197	-1.20007E-001	1.50744E-010	0.00000E+000	-1.20000E-001	1.02782E-003	4	..........a	-327.66
	985	197.2	-1.10055E-001	1.48802E-010	0.00000E+000	-1.10000E-001	9.95722E-004	4	..........a	-327.66
	986	197.4	-9.99442E-002	1.49862E-010	0.00000E+000	-1.00000E-001	1.04402E-003	4	..........a	-327.66
	987	197.6	-9.00251E-002	1.52546E-010	0.00000E+000	-9.00000E-002	9.97922E-004	4	..........a	-327.66
	988	197.8	-8.00078E-002	1.52375E-010	0.00000E+000	-8.00000E-002	1.01492E-003	4	..........a	-327.66
	989	198	-6.99840E-002	1.50140E-010	0.00000E+000	-7.00000E-002	9.98222E-004	4	..........a	-327.66
	990	198.2	-5.99567E-002	1.50664E-010	0.00000E+000	-6.00000E-002	1.00342E-003	4	..........a	-327.66
	991	198.4	-5.00162E-002	1.50982E-010	0.00000E+000	-5.00000E-002	1.03712E-003	4	..........a	-327.66
	992	198.6	-3.99760E-002	1.56318E-010	0.00000E+000	-4.00000E-002	1.00232E-003	4	..........a	-327.66
	993	198.8	-3.00920E-002	1.55478E-010	0.00000E+000	-3.00000E-002	1.00222E-003	4	..........a	-327.66
	994	199	-1.99370E-002	1.52112E-010	0.00000E+000	-2.00000E-002	1.03442E-003	4	..........a	-327.66
	995	199.2	-9.98536E-003	1.52701E-010	0.00000E+000	-1.00000E-002	1.00762E-003	4	..........a	-327.66
	996	199.4	2.14082E-006	1.56025E-010	0.00000E+000	7.45058E-009	1.01372E-003	4	..........a	-327.66
	997	199.6	1.00173E-002	1.58276E-010	0.00000E+000	1.00000E-002	1.02752E-003	4	..........a	-327.66
	998	199.8	2.00680E-002	1.57718E-010	0.00000E+000	2.00000E-002	1.02592E-003	4	..........a	-327.66
	999	200	3.00139E-002	1.53461E-010	0.00000E+000	3.00000E-002	1.03412E-003	4	..........a	-327.66
	1000	200.2	3.97977E-002	1.59238E-010	0.00000E+000	4.00000E-002	1.03122E-003	4	..........a	-327.66
	1001	200.4	4.99822E-002	1.57351E-010	0.00000E+000	5.00000E-002	1.00252E-003	4	..........a	-327.66
	1002	200.6	6.00749E-002	1.59500E-010	0.00000E+000	6.00000E-002	1.01482E-003	4	..........a	-327.66
	1003	200.8	7.00059E-002	1.55912E-010	0.00000E+000	7.00000E-002	1.01402E-003	4	..........a	-327.66
	1004	201	8.00140E-002	1.56429E-010	0.00000E+000	8.00000E-002	1.03242E-003	4	..........a	-327.66
	1005	201.2	8.99772E-002	1.62323E-010	0.00000E+000	9.00000E-002	9.86222E-004	4	..........a	-327.66
	1006	201.4	1.00050E-001	1.63794E-010	0.00000E+000	1.00000E-001	1.02322E-003	4	..........a	-327.66
	1007	201.6	1.10026E-001	1.65023E-010	0.00000E+000	1.10000E-001	1.04002E-003	4	..........a	-327.66
	1008	201.8	1.19968E-001	1.64658E-010	0.00000E+000	1.20000E-001	1.02942E-003	4	..........a	-327.66
	1009	202	1.30051E-001	1.67626E-010	0.00000E+000	1.30000E-001	9.99922E-004	4	..........a	-327.66
	1010	202.2	1.40079E-001	1.71793E-010	0.00000E+000	1.40000E-001	9.92122E-004	4	..........a	-327.66
	1011	202.4	1.49994E-001	1.75012E-010	0.00000E+000	1.50000E-001	1.04222E-003	4	..........a	-327.66
	1012	202.6	1.59992E-001	1.80637E-010	0.00000E+000	1.60000E-001	1.02702E-003	4	..........a	-327.66
	1013	202.8	1.70005E-001	1.81974E-010	0.00000E+000	1.70000E-001	1.02282E-003	4	..........a	-327.66
	1014	203	1.80045E-001	1.87317E-010	0.00000E+000	1.80000E-001	1.00102E-003	4	..........a	-327.66
	1015	203.2	1.90024E-001	1.90686E-010	0.00000E+000	1.90000E-001	1.03222E-003	4	..........a	-327.66
	1016	203.4	2.00005E-001	1.93605E-010	0.00000E+000	2.00000E-001	1.02902E-003	4	..........a	-327.66
	1017	203.6	2.09977E-001	1.97571E-010	0.00000E+000	2.10000E-001	1.01252E-003	4	..........a	-327.66
	1018	203.8	2.19694E-001	1.99773E-010	0.00000E+000	2.20000E-001	1.03082E-003	4	..........a	-327.66
	1019	204	2.29966E-001	2.03847E-010	0.00000E+000	2.30000E-001	1.00502E-003	4	..........a	-327.66
	1020	204.2	2.40015E-001	2.08344E-010	0.00000E+000	2.40000E-001	1.00692E-003	4	..........a	-327.66
	1021	204.4	2.49995E-001	2.11635E-010	0.00000E+000	2.50000E-001	1.01812E-003	4	..........a	-327.66
	1022	204.6	2.60023E-001	2.15223E-010	0.00000E+000	2.60000E-001	1.02102E-003	4	..........a	-327.66
	1023	204.8	2.69971E-001	2.17544E-010	0.00000E+000	2.70000E-001	1.01002E-003	4	..........a	-327.66
	1024	205	2.79983E-001	2.18919E-010	0.00000E+000	2.80000E-001	1.00222E-003	4	..........a	-327.66
	1025	205.2	2.90000E-001	2.21308E-010	0.00000E+000	2.90000E-001	1.02192E-003	4	..........a	-327.66
	1026	205.4	3.00001E-001	2.23192E-010	0.00000E+000	3.00000E-001	1.02262E-003	4	..........a	-327.66
	1027	205.6	3.09978E-001	2.25203E-010	0.00000E+000	3.10000E-001	1.02582E-003	4	..........a	-327.66
	1028	205.8	3.19923E-001	2.27762E-010	0.00000E+000	3.20000E-001	1.01442E-003	4	..........a	-327.66
	1029	206	3.29990E-001	2.31025E-010	0.00000E+000	3.30000E-001	1.03342E-003	4	..........a	-327.66
	1030	206.2	3.39994E-001	2.33140E-010	0.00000E+000	3.40000E-001	1.02912E-003	4	..........a	-327.66
	1031	206.4	3.49946E-001	2.34805E-010	0.00000E+000	3.50000E-001	1.03382E-003	4	..........a	-327.66
	1032	206.6	3.59877E-001	2.37028E-010	0.00000E+000	3.60000E-001	1.00062E-003	4	..........a	-327.66
	1033	206.8	3.69991E-001	2.39168E-010	0.00000E+000	3.70000E-001	1.04812E-003	4	..........a	-327.66
	1034	207	3.79975E-001	2.40660E-010	0.00000E+000	3.80000E-001	1.04342E-003	4	..........a	-327.66
	1035	207.2	3.89941E-001	2.41897E-010	0.00000E+000	3.90000E-001	1.01292E-003	4	..........a	-327.66
	1036	207.4	3.99914E-001	2.43430E-010	0.00000E+000	4.00000E-001	1.01312E-003	4	..........a	-327.66
	1037	207.6	4.09935E-001	2.45310E-010	0.00000E+000	4.10000E-001	1.04272E-003	4	..........a	-327.66
	1038	207.8	4.20001E-001	2.46543E-010	0.00000E+000	4.20000E-001	9.97322E-004	4	..........a	-327.66
	1039	208	4.29904E-001	2.47317E-010	0.00000E+000	4.30000E-001	1.05612E-003	4	..........a	-327.66
	1040	208.2	4.39890E-001	2.48491E-010	0.00000E+000	4.40000E-001	1.02162E-003	4	..........a	-327.66
	1041	208.4	4.49966E-001	2.49621E-010	0.00000E+000	4.50000E-001	1.01772E-003	4	..........a	-327.66
	1042	208.6	4.59944E-001	2.51346E-010	0.00000E+000	4.60000E-001	1.05242E-003	4	..........a	-327.66
	1043	208.8	4.69929E-001	2.52842E-010	0.00000E+000	4.70000E-001	1.01442E-003	4	..........a	-327.66
	1044	209	4.79898E-001	2.55386E-010	0.00000E+000	4.80000E-001	1.01842E-003	4	..........a	-327.66
	1045	209.2	4.89927E-001	2.58007E-010	0.00000E+000	4.90000E-001	9.97522E-004	4	..........a	-327.66
	1046	209.4	4.99938E-001	2.60500E-010	0.00000E+000	5.00000E-001	1.01022E-003	4	..........a	-327.66
	1047	209.6	5.09892E-001	2.63271E-010	0.00000E+000	5.10000E-001	1.04452E-003	4	..........a	-327.66
	1048	209.8	5.19894E-001	2.66696E-010	0.00000E+000	5.20000E-001	1.02152E-003	4	..........a	-327.66
	1049	210	5.29935E-001	2.70290E-010	0.00000E+000	5.30000E-001	1.02142E-003	4	..........a	-327.66
	1050	210.2	5.39993E-001	2.73849E-010	0.00000E+000	5.40000E-001	1.01662E-003	4	..........a	-327.66
	1051	210.4	5.49930E-001	2.77789E-010	0.00000E+000	5.50000E-001	1.01002E-003	4	..........a	-327.66
	1052	210.6	5.59943E-001	2.82378E-010	0.00000E+000	5.60000E-001	1.01012E-003	4	..........a	-327.66
	1053	210.8	5.69935E-001	2.87696E-010	0.00000E+000	5.70000E-001	1.03242E-003	4	..........a	-327.66
	1054	211	5.79944E-001	2.92795E-010	0.00000E+000	5.80000E-001	1.04382E-003	4	..........a	-327.66
	1055	211.2	5.89890E-001	2.99610E-010	0.00000E+000	5.90000E-001	1.00792E-003	4	..........a	-327.66
	1056	211.4	5.99936E-001	3.06849E-010	0.00000E+000	6.00000E-001	1.03442E-003	4	..........a	-327.66
	1057	211.6	6.09906E-001	3.14422E-010	0.00000E+000	6.10000E-001	1.01332E-003	4	..........a	-327.66
	1058	211.8	6.19991E-001	3.23284E-010	0.00000E+000	6.20000E-001	1.00272E-003	4	..........a	-327.66
	1059	212	6.29872E-001	3.32308E-010	0.00000E+000	6.30000E-001	1.02302E-003	4	..........a	-327.66
	1060	212.2	6.39904E-001	3.42662E-010	0.00000E+000	6.40000E-001	1.03502E-003	4	..........a	-327.66
	1061	212.4	6.49906E-001	3.53323E-010	0.00000E+000	6.50000E-001	1.00332E-003	4	..........a	-327.66
	1062	212.6	6.59981E-001	3.67053E-010	0.00000E+000	6.60000E-001	1.02872E-003	4	..........a	-327.66
	1063	212.8	6.69873E-001	3.80676E-010	0.00000E+000	6.70000E-001	1.03522E-003	4	..........a	-327.66
	1064	213	6.79969E-001	3.95387E-010	0.00000E+000	6.80000E-001	1.03572E-003	4	..........a	-327.66
	1065	213.2	6.89887E-001	4.11814E-010	0.00000E+000	6.90000E-001	9.92122E-004	4	..........a	-327.66
	1066	213.4	6.99961E-001	4.30359E-010	0.00000E+000	7.00000E-001	1.00642E-003	4	..........a	-327.66
	1067	213.6	7.09885E-001	4.48492E-010	0.00000E+000	7.10000E-001	1.00052E-003	4	..........a	-327.66
	1068	213.8	7.19935E-001	4.69805E-010	0.00000E+000	7.20000E-001	9.94222E-004	4	..........a	-327.66
	1069	214	7.29917E-001	4.92799E-010	0.00000E+000	7.30000E-001	9.93522E-004	4	..........a	-327.66
	1070	214.2	7.39990E-001	5.17098E-010	0.00000E+000	7.40000E-001	1.01862E-003	4	..........a	-327.66
	1071	214.4	7.49874E-001	5.45277E-010	0.00000E+000	7.50000E-001	1.01512E-003	4	..........a	-327.66
	1072	214.6	7.59900E-001	5.71972E-010	0.00000E+000	7.60000E-001	1.02772E-003	4	..........a	-327.66
	1073	214.8	7.69885E-001	6.02270E-010	0.00000E+000	7.70000E-001	1.00512E-003	4	..........a	-327.66
	1074	215	7.79960E-001	6.37670E-010	0.00000E+000	7.80000E-001	1.03662E-003	4	..........a	-327.66
	1075	215.2	7.89856E-001	6.74025E-010	0.00000E+000	7.90000E-001	9.92522E-004	4	..........a	-327.66
	1076	215.4	7.99913E-001	7.11190E-010	0.00000E+000	8.00000E-001	1.03162E-003	4	..........a	-327.66
CURVE5	TABLE
	Pt	T	Vf	Im	Vu	Sig	Ach	IERange	Over	Temp
	#	s	V vs. Ref.	A	V	V	V	#	bits	deg C
	1077	215.6	7.89896E-001	4.70340E-010	0.00000E+000	7.90000E-001	1.03832E-003	4	..........a	-327.66
	1078	215.8	7.79963E-001	3.30982E-010	0.00000E+000	7.80000E-001	1.02182E-003	4	..........a	-327.66
	1079	216	7.69891E-001	2.40867E-010	0.00000E+000	7.70000E-001	1.00142E-003	4	..........a	-327.66
	1080	216.2	7.59866E-001	1.77891E-010	0.00000E+000	7.60000E-001	1.02172E-003	4	..........a	-327.66
	1081	216.4	7.49895E-001	1.31947E-010	0.00000E+000	7.50000E-001	9.85422E-004	4	..........a	-327.66
	1082	216.6	7.39994E-001	9.27314E-011	0.00000E+000	7.40000E-001	1.00632E-003	4	..........a	-327.66
	1083	216.8	7.29931E-001	6.86684E-011	0.00000E+000	7.30000E-001	1.00282E-003	4	..........a	-327.66
	1084	217	7.19886E-001	4.61676E-011	0.00000E+000	7.20000E-001	1.01572E-003	4	..........a	-327.66
	1085	217.2	7.09907E-001	2.75909E-011	0.00000E+000	7.10000E-001	1.00282E-003	4	..........a	-327.66
	1086	217.4	6.99972E-001	1.41253E-011	0.00000E+000	7.00000E-001	1.03962E-003	4	..........a	-327.66
	1087	217.6	6.89846E-001	2.43789E-012	0.00000E+000	6.90000E-001	1.01172E-003	4	..........a	-327.66
	1088	217.8	6.79815E-001	-8.76954E-012	0.00000E+000	6.80000E-001	1.00802E-003	4	..........a	-327.66
	1089	218	6.69896E-001	-1.97000E-011	0.00000E+000	6.70000E-001	1.03182E-003	4	..........a	-327.66
	1090	218.2	6.59987E-001	-2.92113E-011	0.00000E+000	6.60000E-001	1.02342E-003	4	..........a	-327.66
	1091	218.4	6.49916E-001	-3.66576E-011	0.00000E+000	6.50000E-001	9.97522E-004	4	..........a	-327.66
	1092	218.6	6.39908E-001	-4.14448E-011	0.00000E+000	6.40000E-001	1.04332E-003	4	..........a	-327.66
	1093	218.8	6.29875E-001	-4.77190E-011	0.00000E+000	6.30000E-001	1.01342E-003	4	..........a	-327.66
	1094	219	6.19988E-001	-5.26642E-011	0.00000E+000	6.20000E-001	1.00882E-003	4	..........a	-327.66
	1095	219.2	6.09942E-001	-5.80394E-011	0.00000E+000	6.10000E-001	1.02622E-003	4	..........a	-327.66
	1096	219.4	5.99932E-001	-6.20376E-011	0.00000E+000	6.00000E-001	9.96522E-004	4	..........a	-327.66
	1097	219.6	5.89937E-001	-6.80818E-011	0.00000E+000	5.90000E-001	9.97322E-004	4	..........a	-327.66
	1098	219.8	5.80011E-001	-7.06099E-011	0.00000E+000	5.80000E-001	1.01082E-003	4	..........a	-327.66
	1099	220	5.69916E-001	-7.54181E-011	0.00000E+000	5.70000E-001	1.01252E-003	4	..........a	-327.66
	1100	220.2	5.59921E-001	-7.83722E-011	0.00000E+000	5.60000E-001	1.01892E-003	4	..........a	-327.66
	1101	220.4	5.49923E-001	-8.17213E-011	0.00000E+000	5.50000E-001	1.03542E-003	4	..........a	-327.66
	1102	220.6	5.40002E-001	-8.46095E-011	0.00000E+000	5.40000E-001	1.03682E-003	4	..........a	-327.66
	1103	220.8	5.29972E-001	-8.70375E-011	0.00000E+000	5.30000E-001	1.01722E-003	4	..........a	-327.66
	1104	221	5.19939E-001	-9.01847E-011	0.00000E+000	5.20000E-001	1.00732E-003	4	..........a	-327.66
	1105	221.2	5.09926E-001	-9.24407E-011	0.00000E+000	5.10000E-001	1.05162E-003	4	..........a	-327.66
	1106	221.4	5.00037E-001	-9.38138E-011	0.00000E+000	5.00000E-001	1.01062E-003	4	..........a	-327.66
	1107	221.6	4.89944E-001	-9.89230E-011	0.00000E+000	4.90000E-001	1.00502E-003	4	..........a	-327.66
	1108	221.8	4.79952E-001	-1.01280E-010	0.00000E+000	4.80000E-001	1.03212E-003	4	..........a	-327.66
	1109	222	4.69955E-001	-1.02647E-010	0.00000E+000	4.70000E-001	1.01412E-003	4	..........a	-327.66
	1110	222.2	4.60008E-001	-1.05601E-010	0.00000E+000	4.60000E-001	1.04742E-003	4	..........a	-327.66
	1111	222.4	4.49910E-001	-1.07140E-010	0.00000E+000	4.50000E-001	9.76822E-004	4	..........a	-327.66
	1112	222.6	4.39957E-001	-1.09961E-010	0.00000E+000	4.40000E-001	1.03762E-003	4	..........a	-327.66
	1113	222.8	4.29929E-001	-1.12449E-010	0.00000E+000	4.30000E-001	1.04922E-003	4	..........a	-327.66
	1114	223	4.20009E-001	-1.14180E-010	0.00000E+000	4.20000E-001	1.02512E-003	4	..........a	-327.66
	1115	223.2	4.09929E-001	-1.16058E-010	0.00000E+000	4.10000E-001	9.93522E-004	4	..........a	-327.66
	1116	223.4	4.00013E-001	-1.17957E-010	0.00000E+000	4.00000E-001	1.01802E-003	4	..........a	-327.66
	1117	223.6	3.89957E-001	-1.20636E-010	0.00000E+000	3.90000E-001	9.90022E-004	4	..........a	-327.66
	1118	223.8	3.80007E-001	-1.23172E-010	0.00000E+000	3.80000E-001	1.00372E-003	4	..........a	-327.66
	1119	224	3.69971E-001	-1.24245E-010	0.00000E+000	3.70000E-001	1.00122E-003	4	..........a	-327.66
	1120	224.2	3.59918E-001	-1.27186E-010	0.00000E+000	3.60000E-001	1.00112E-003	4	..........a	-327.66