File: data/raw/batch_data/20240321_ZE_GM0016_HL03_E08_CV50.DTA
EXPLAIN
TAG	CV
TITLE	LABEL	Cyclic Voltammetry	Test &Identifier
DATE	LABEL	3/21/2024	Date
TIME	LABEL	18:14:42	Time
NOTES	NOTES	1	&Notes...

PSTAT	PSTAT	REF600P-43058	Potentiostat
VINIT	POTEN	0.00000E+000	T	Initial &E (V)
VLIMIT1	POTEN	-6.00000E-001	F	Scan Limit &1 (V)
VLIMIT2	POTEN	8.00000E-001	F	Scan Limit &2 (V)
VFINAL	POTEN	0.00000E+000	T	Final &E (V)
SCANRATE	QUANT	4.99999E+001	&Scan Rate (mV/s)
STEPSIZE	QUANT	1.00000E+001	St&ep Size (mV)
CYCLES	IQUANT	4	C&ycles (#)
IMODE	SELECTOR	1	I/E Range &Mode
IRANGE	QUANT	1.00000E-005	&Max Current (mA)
AREA	QUANT	1.00000E+000	Electrode &Area (cm^2)
ELECTRODETYPE	SELECTOR	0	Electrode Type
STRIPPING	TOGGLE	F	Used for Stripping
POLARITY	TOGGLE	F	Signal Polarity
CONDIT	TWOPARAM	F	1.50000E+001	0.00000E+000	Conditionin&g	Time(s)	E(V)
DELAY	TWOPARAM	T	1.00000E+001	0.00000E+000	Init. De&lay	Time(s)	Stab.(mV/s)
EQDELAY	QUANT	1.00000E+001	Equil. &Time (s)
IRCOMP	SELECTOR	0	IRCom&p
PFCOR	QUANT	5.00000E+001	PF Corr. (ohm)
SAMPLINGMODE	SELECTOR	1	Sampling &Mode
OCVCURVE	TABLE	39
	Pt	T	Vf	Vm	Ach	Over	Temp
	#	s	V vs. Ref.	V	V	bits	deg C
	0	0.258333	2.64965E-001	2.64965E-001	2.39222E-004	..........a	-327.66
	1	0.516667	2.64980E-001	2.65759E-001	2.35689E-004	..........a	-327.66
	2	0.775	2.65076E-001	2.66688E-001	2.36622E-004	..........a	-327.66
	3	1.03333	2.65364E-001	2.67735E-001	2.27222E-004	..........a	-327.66
	4	1.29167	2.65912E-001	2.68757E-001	2.28622E-004	..........a	-327.66
	5	1.55	2.66699E-001	2.69751E-001	2.39422E-004	..........a	-327.66
	6	1.80833	2.67630E-001	2.70312E-001	2.17289E-004	..........a	-327.66
	7	2.06667	2.68601E-001	2.71910E-001	2.36089E-004	..........a	-327.66
	8	2.325	2.69580E-001	2.72907E-001	2.31356E-004	..........a	-327.66
	9	2.58333	2.70602E-001	2.74016E-001	2.25756E-004	..........a	-327.66
	10	2.84167	2.71685E-001	2.75040E-001	2.36556E-004	..........a	-327.66
	11	3.1	2.72793E-001	2.76095E-001	2.36422E-004	..........a	-327.66
	12	3.35833	2.73887E-001	2.77106E-001	2.30556E-004	..........a	-327.66
	13	3.61667	2.74955E-001	2.78122E-001	2.21689E-004	..........a	-327.66
	14	3.875	2.76000E-001	2.79216E-001	2.47089E-004	..........a	-327.66
	15	4.13333	2.77034E-001	2.80177E-001	2.30822E-004	..........a	-327.66
	16	4.39167	2.78064E-001	2.81148E-001	2.14822E-004	..........a	-327.66
	17	4.65	2.79088E-001	2.82313E-001	2.38222E-004	..........a	-327.66
	18	4.90833	2.80107E-001	2.83185E-001	2.40356E-004	..........a	-327.66
	19	5.16667	2.81125E-001	2.84169E-001	2.37289E-004	..........a	-327.66
	20	5.425	2.82134E-001	2.85175E-001	2.28822E-004	..........a	-327.66
	21	5.68333	2.83127E-001	2.86145E-001	2.16822E-004	..........a	-327.66
	22	5.94167	2.84112E-001	2.87206E-001	2.30556E-004	..........a	-327.66
	23	6.2	2.85098E-001	2.88120E-001	2.40822E-004	..........a	-327.66
	24	6.45833	2.86088E-001	2.89046E-001	2.32689E-004	..........a	-327.66
	25	6.71667	2.87071E-001	2.90029E-001	2.19022E-004	..........a	-327.66
	26	6.975	2.88038E-001	2.90973E-001	2.18022E-004	..........a	-327.66
	27	7.23333	2.88995E-001	2.91979E-001	2.31822E-004	..........a	-327.66
	28	7.49167	2.89953E-001	2.92901E-001	2.36422E-004	..........a	-327.66
	29	7.75	2.90914E-001	2.93823E-001	2.40156E-004	..........a	-327.66
	30	8.00833	2.91872E-001	2.94806E-001	2.36822E-004	..........a	-327.66
	31	8.26667	2.92820E-001	2.95576E-001	2.26889E-004	..........a	-327.66
	32	8.525	2.93752E-001	2.96490E-001	2.21022E-004	..........a	-327.66
	33	8.78333	2.94662E-001	2.97526E-001	2.35022E-004	..........a	-327.66
	34	9.04167	2.95565E-001	2.98425E-001	2.47489E-004	..........a	-327.66
	35	9.3	2.96480E-001	2.99323E-001	2.28422E-004	..........a	-327.66
	36	9.5583	2.97406E-001	3.00182E-001	2.39956E-004	..........a	-327.66
	37	9.8167	2.98328E-001	3.01079E-001	2.25689E-004	..........a	-327.66
	38	10.075	2.99233E-001	3.01938E-001	2.25556E-004	..........a	-327.66
EOC	QUANT	0.2992329	Open Circuit (V)
PSTATMODEL	IQUANT	7	Pstat Model
PSTATSECTION	LABEL	REF600P-43058	Pstat Section
PSTATSERIALNO	LABEL	43058	Pstat Serial Number
CTRLMODE	IQUANT	1	Control Mode
ELECTROMETER	IQUANT	0	RE=0 or CS=1
IESTAB	IQUANT	2	I/E Stability
CASPEED	IQUANT	4	Control Amp Speed
CONVENTION	IQUANT	1	Current Convention
ICHRANGE	IQUANT	2	Ich Range
ICHRANGEMODE	TOGGLE	F	Ich Auto Range
ICHOFFSETENABLE	TOGGLE	F	Ich Offset Enable
ICHOFFSET	QUANT	0	Ich Offset (V)
ICHFILTER	IQUANT	2	Ich Filter
VCHRANGE	IQUANT	2	Vch Range
VCHRANGEMODE	TOGGLE	F	Vch Auto Range
VCHOFFSETENABLE	TOGGLE	F	Vch Offset Enable
VCHOFFSET	QUANT	0	Vch Offset (V)
VCHFILTER	IQUANT	2	Vch Filter
ACHRANGE	IQUANT	2	Ach Range
ACHOFFSETENABLE	TOGGLE	F	Ach Offset Enable
ACHOFFSET	QUANT	0	Ach Offset (V)
ACHFILTER	IQUANT	1	Ach Filter
IERANGELOWERLIMIT	IQUANT	1	I/E Range Lower Limit
IERANGEMODE	TOGGLE	F	I/E AutoRange
IERANGE	IQUANT	4	I/E Range
POSFEEDENABLE	TOGGLE	F	Positive Feedback IR Comp
POSFEEDRESISTANCE	QUANT	0	Positive Feedback Resistance (ohm)
ACHSELECT	IQUANT	4	Ach Select
SENSECABLEID	IQUANT	7	Sense Cable ID
PWRCABLEID	IQUANT	7	Power Cable ID
DCCALDATE	LABEL	12/18/2023	DC Calibration Date
ACCALDATE	LABEL	12/18/2023	AC Calibration Date
THERMOSELECT	IQUANT	1	Thermo Select
FRAMEWORKVERSION	LABEL	7.8.4	Framework Version
INSTRUMENTVERSION	LABEL	4.42	Instrument Version
CURVE1	TABLE
	Pt	T	Vf	Im	Vu	Sig	Ach	IERange	Over	Temp
	#	s	V vs. Ref.	A	V	V	V	#	bits	deg C
	0	0.2	2.99245E-001	1.16182E-011	0.00000E+000	2.99250E-001	9.98322E-004	4	..........a	-327.66
	1	0.4	2.89224E-001	-4.52137E-012	0.00000E+000	2.89250E-001	9.62622E-004	4	..........a	-327.66
	2	0.6	2.79232E-001	-1.12856E-011	0.00000E+000	2.79250E-001	9.84722E-004	4	..........a	-327.66
	3	0.8	2.69243E-001	-1.79869E-011	0.00000E+000	2.69250E-001	9.87222E-004	4	..........a	-327.66
	4	1	2.59113E-001	-2.29781E-011	0.00000E+000	2.59250E-001	9.93322E-004	4	..........a	-327.66
	5	1.2	2.49217E-001	-2.61312E-011	0.00000E+000	2.49250E-001	9.98522E-004	4	..........a	-327.66
	6	1.4	2.39272E-001	-2.98824E-011	0.00000E+000	2.39250E-001	9.83622E-004	4	..........a	-327.66
	7	1.6	2.29260E-001	-3.30545E-011	0.00000E+000	2.29250E-001	9.81822E-004	4	..........a	-327.66
	8	1.8	2.19281E-001	-3.51086E-011	0.00000E+000	2.19250E-001	9.90322E-004	4	..........a	-327.66
	9	2	2.09247E-001	-3.69026E-011	0.00000E+000	2.09250E-001	9.94722E-004	4	..........a	-327.66
	10	2.2	1.99316E-001	-3.78087E-011	0.00000E+000	1.99250E-001	9.77922E-004	4	..........a	-327.66
	11	2.4	1.89340E-001	-3.87957E-011	0.00000E+000	1.89250E-001	9.91622E-004	4	..........a	-327.66
	12	2.6	1.79309E-001	-4.02477E-011	0.00000E+000	1.79250E-001	9.75922E-004	4	..........a	-327.66
	13	2.8	1.69350E-001	-4.10558E-011	0.00000E+000	1.69250E-001	9.58622E-004	4	..........a	-327.66
	14	3	1.59341E-001	-4.23008E-011	0.00000E+000	1.59250E-001	9.85922E-004	4	..........a	-327.66
	15	3.2	1.49311E-001	-4.49159E-011	0.00000E+000	1.49250E-001	9.74522E-004	4	..........a	-327.66
	16	3.4	1.39335E-001	-4.62480E-011	0.00000E+000	1.39250E-001	9.82822E-004	4	..........a	-327.66
	17	3.6	1.29262E-001	-4.77700E-011	0.00000E+000	1.29250E-001	9.75622E-004	4	..........a	-327.66
	18	3.8	1.19280E-001	-4.92601E-011	0.00000E+000	1.19250E-001	9.84622E-004	4	..........a	-327.66
	19	4	1.09333E-001	-5.02191E-011	0.00000E+000	1.09250E-001	9.83222E-004	4	..........a	-327.66
	20	4.2	9.92772E-002	-5.16592E-011	0.00000E+000	9.92500E-002	9.84422E-004	4	..........a	-327.66
	21	4.4	8.93115E-002	-5.31042E-011	0.00000E+000	8.92500E-002	9.78122E-004	4	..........a	-327.66
	22	4.6	7.92969E-002	-5.41583E-011	0.00000E+000	7.92500E-002	9.81722E-004	4	..........a	-327.66
	23	4.8	6.94407E-002	-5.48613E-011	0.00000E+000	6.92500E-002	9.66722E-004	4	..........a	-327.66
	24	5	5.93219E-002	-5.61824E-011	0.00000E+000	5.92500E-002	9.75922E-004	4	..........a	-327.66
	25	5.2	4.92827E-002	-5.69344E-011	0.00000E+000	4.92500E-002	9.94722E-004	4	..........a	-327.66
	26	5.4	3.92987E-002	-5.90945E-011	0.00000E+000	3.92500E-002	9.90022E-004	4	..........a	-327.66
	27	5.6	2.93646E-002	-6.09155E-011	0.00000E+000	2.92500E-002	9.61522E-004	4	..........a	-327.66
	28	5.8	1.92612E-002	-6.24126E-011	0.00000E+000	1.92500E-002	9.96922E-004	4	..........a	-327.66
	29	6	9.28254E-003	-6.45207E-011	0.00000E+000	9.25000E-003	9.83622E-004	4	..........a	-327.66
	30	6.2	-7.43609E-004	-6.62247E-011	0.00000E+000	-7.49998E-004	9.75922E-004	4	..........a	-327.66
	31	6.4	-1.06728E-002	-6.81688E-011	0.00000E+000	-1.07500E-002	9.69922E-004	4	..........a	-327.66
	32	6.6	-2.07289E-002	-6.98149E-011	0.00000E+000	-2.07500E-002	9.77422E-004	4	..........a	-327.66
	33	6.8	-3.06920E-002	-7.08159E-011	0.00000E+000	-3.07500E-002	9.64022E-004	4	..........a	-327.66
	34	7	-4.06823E-002	-7.19100E-011	0.00000E+000	-4.07500E-002	9.85022E-004	4	..........a	-327.66
	35	7.2	-5.07135E-002	-7.43281E-011	0.00000E+000	-5.07500E-002	9.69922E-004	4	..........a	-327.66
	36	7.4	-6.06739E-002	-7.79422E-011	0.00000E+000	-6.07500E-002	1.00052E-003	4	..........a	-327.66
	37	7.6	-7.07240E-002	-7.95993E-011	0.00000E+000	-7.07500E-002	9.86222E-004	4	..........a	-327.66
	38	7.8	-8.07080E-002	-8.32474E-011	0.00000E+000	-8.07500E-002	9.83822E-004	4	..........a	-327.66
	39	8	-9.06713E-002	-8.58975E-011	0.00000E+000	-9.07500E-002	9.62022E-004	4	..........a	-327.66
	40	8.2	-1.00726E-001	-8.85696E-011	0.00000E+000	-1.00750E-001	9.87122E-004	4	..........a	-327.66
	41	8.4	-1.10780E-001	-9.23648E-011	0.00000E+000	-1.10750E-001	9.83822E-004	4	..........a	-327.66
	42	8.6	-1.20663E-001	-9.52809E-011	0.00000E+000	-1.20750E-001	9.82422E-004	4	..........a	-327.66
	43	8.8	-1.30710E-001	-9.85780E-011	0.00000E+000	-1.30750E-001	9.88522E-004	4	..........a	-327.66
	44	9	-1.40711E-001	-1.02099E-010	0.00000E+000	-1.40750E-001	1.00392E-003	4	..........a	-327.66
	45	9.2	-1.50721E-001	-1.05818E-010	0.00000E+000	-1.50750E-001	9.78522E-004	4	..........a	-327.66
	46	9.4	-1.60706E-001	-1.10723E-010	0.00000E+000	-1.60750E-001	1.00452E-003	4	..........a	-327.66
	47	9.6	-1.70696E-001	-1.15016E-010	0.00000E+000	-1.70750E-001	9.87622E-004	4	..........a	-327.66
	48	9.8	-1.80717E-001	-1.19052E-010	0.00000E+000	-1.80750E-001	9.79722E-004	4	..........a	-327.66
	49	10	-1.90799E-001	-1.23548E-010	0.00000E+000	-1.90750E-001	9.86922E-004	4	..........a	-327.66
	50	10.2	-2.00732E-001	-1.28464E-010	0.00000E+000	-2.00750E-001	1.01782E-003	4	..........a	-327.66
	51	10.4	-2.10641E-001	-1.33668E-010	0.00000E+000	-2.10750E-001	9.67822E-004	4	..........a	-327.66
	52	10.6	-2.20690E-001	-1.38307E-010	0.00000E+000	-2.20750E-001	9.92522E-004	4	..........a	-327.66
	53	10.8	-2.30762E-001	-1.43630E-010	0.00000E+000	-2.30750E-001	9.78022E-004	4	..........a	-327.66
	54	11	-2.40690E-001	-1.49392E-010	0.00000E+000	-2.40750E-001	9.84222E-004	4	..........a	-327.66
	55	11.2	-2.50648E-001	-1.54444E-010	0.00000E+000	-2.50750E-001	9.71122E-004	4	..........a	-327.66
	56	11.4	-2.60684E-001	-1.61017E-010	0.00000E+000	-2.60750E-001	9.87622E-004	4	..........a	-327.66
	57	11.6	-2.70654E-001	-1.66167E-010	0.00000E+000	-2.70750E-001	1.00052E-003	4	..........a	-327.66
	58	11.8	-2.80673E-001	-1.72433E-010	0.00000E+000	-2.80750E-001	9.91922E-004	4	..........a	-327.66
	59	12	-2.90592E-001	-1.79014E-010	0.00000E+000	-2.90750E-001	9.80822E-004	4	..........a	-327.66
	60	12.2	-3.00683E-001	-1.86189E-010	0.00000E+000	-3.00750E-001	9.67122E-004	4	..........a	-327.66
	61	12.4	-3.10745E-001	-1.92947E-010	0.00000E+000	-3.10750E-001	9.77122E-004	4	..........a	-327.66
	62	12.6	-3.20657E-001	-2.00508E-010	0.00000E+000	-3.20750E-001	9.86622E-004	4	..........a	-327.66
	63	12.8	-3.30666E-001	-2.08959E-010	0.00000E+000	-3.30750E-001	9.83422E-004	4	..........a	-327.66
	64	13	-3.40718E-001	-2.16625E-010	0.00000E+000	-3.40750E-001	9.82722E-004	4	..........a	-327.66
	65	13.2	-3.50689E-001	-2.24831E-010	0.00000E+000	-3.50750E-001	9.84322E-004	4	..........a	-327.66
	66	13.4	-3.60669E-001	-2.33285E-010	0.00000E+000	-3.60750E-001	9.84522E-004	4	..........a	-327.66
	67	13.6	-3.70629E-001	-2.42574E-010	0.00000E+000	-3.70750E-001	9.57622E-004	4	..........a	-327.66
	68	13.8	-3.80677E-001	-2.51865E-010	0.00000E+000	-3.80750E-001	9.79422E-004	4	..........a	-327.66
	69	14	-3.90671E-001	-2.62225E-010	0.00000E+000	-3.90750E-001	9.98822E-004	4	..........a	-327.66
	70	14.2	-4.00637E-001	-2.71163E-010	0.00000E+000	-4.00750E-001	9.81622E-004	4	..........a	-327.66
	71	14.4	-4.10594E-001	-2.87273E-010	0.00000E+000	-4.10750E-001	9.79422E-004	4	..........a	-327.66
	72	14.6	-4.20604E-001	-2.93714E-010	0.00000E+000	-4.20750E-001	9.66722E-004	4	..........a	-327.66
	73	14.8	-4.30610E-001	-3.04366E-010	0.00000E+000	-4.30750E-001	9.86722E-004	4	..........a	-327.66
	74	15	-4.40603E-001	-3.14800E-010	0.00000E+000	-4.40750E-001	9.78922E-004	4	..........a	-327.66
	75	15.2	-4.50613E-001	-3.28574E-010	0.00000E+000	-4.50750E-001	9.88222E-004	4	..........a	-327.66
	76	15.4	-4.60629E-001	-3.41378E-010	0.00000E+000	-4.60750E-001	9.66322E-004	4	..........a	-327.66
	77	15.6	-4.70652E-001	-3.52776E-010	0.00000E+000	-4.70750E-001	9.76222E-004	4	..........a	-327.66
	78	15.8	-4.80609E-001	-3.69109E-010	0.00000E+000	-4.80750E-001	9.69222E-004	4	..........a	-327.66
	79	16	-4.90578E-001	-3.83043E-010	0.00000E+000	-4.90750E-001	9.72522E-004	4	..........a	-327.66
	80	16.2	-5.00617E-001	-3.99942E-010	0.00000E+000	-5.00750E-001	1.00212E-003	4	..........a	-327.66
	81	16.4	-5.10614E-001	-4.19435E-010	0.00000E+000	-5.10750E-001	9.79622E-004	4	..........a	-327.66
	82	16.6	-5.20632E-001	-4.34263E-010	0.00000E+000	-5.20750E-001	9.96922E-004	4	..........a	-327.66
	83	16.8	-5.30614E-001	-4.53961E-010	0.00000E+000	-5.30750E-001	9.85722E-004	4	..........a	-327.66
	84	17	-5.40623E-001	-4.73143E-010	0.00000E+000	-5.40750E-001	1.00222E-003	4	..........a	-327.66
	85	17.2	-5.50626E-001	-4.93099E-010	0.00000E+000	-5.50750E-001	9.87322E-004	4	..........a	-327.66
	86	17.4	-5.60627E-001	-5.17572E-010	0.00000E+000	-5.60750E-001	9.65722E-004	4	..........a	-327.66
	87	17.6	-5.70573E-001	-5.45616E-010	0.00000E+000	-5.70750E-001	9.58722E-004	4	..........a	-327.66
	88	17.8	-5.80614E-001	-5.70577E-010	0.00000E+000	-5.80750E-001	9.62322E-004	4	..........a	-327.66
	89	18	-5.90618E-001	-5.99521E-010	0.00000E+000	-5.90750E-001	9.79622E-004	4	..........a	-327.66
	90	18.2	-6.00634E-001	-6.32605E-010	0.00000E+000	-6.00750E-001	9.70422E-004	4	..........a	-327.66
	91	18.4	-5.90610E-001	-5.02820E-010	0.00000E+000	-5.90750E-001	9.68922E-004	4	..........a	-327.66
	92	18.6	-5.80629E-001	-4.18874E-010	0.00000E+000	-5.80750E-001	9.83522E-004	4	..........a	-327.66
	93	18.8	-5.70601E-001	-3.45718E-010	0.00000E+000	-5.70750E-001	9.72422E-004	4	..........a	-327.66
	94	19	-5.60648E-001	-2.90977E-010	0.00000E+000	-5.60750E-001	9.61822E-004	4	..........a	-327.66
	95	19.2	-5.50623E-001	-2.34019E-010	0.00000E+000	-5.50750E-001	9.84722E-004	4	..........a	-327.66
	96	19.4	-5.40705E-001	-1.90629E-010	0.00000E+000	-5.40750E-001	9.87122E-004	4	..........a	-327.66
	97	19.6	-5.30624E-001	-1.51263E-010	0.00000E+000	-5.30750E-001	9.84022E-004	4	..........a	-327.66
	98	19.8	-5.20675E-001	-1.17230E-010	0.00000E+000	-5.20750E-001	9.88822E-004	4	..........a	-327.66
	99	20	-5.10679E-001	-8.78176E-011	0.00000E+000	-5.10750E-001	9.78022E-004	4	..........a	-327.66
	100	20.2	-5.00628E-001	-6.20726E-011	0.00000E+000	-5.00750E-001	9.58822E-004	4	..........a	-327.66
	101	20.4	-4.90586E-001	-3.90277E-011	0.00000E+000	-4.90750E-001	9.61122E-004	4	..........a	-327.66
	102	20.6	-4.80646E-001	-1.96950E-011	0.00000E+000	-4.80750E-001	9.68922E-004	4	..........a	-327.66
	103	20.8	-4.70717E-001	-1.37425E-012	0.00000E+000	-4.70750E-001	9.72722E-004	4	..........a	-327.66
	104	21	-4.60690E-001	1.40993E-011	0.00000E+000	-4.60750E-001	9.91722E-004	4	..........a	-327.66
	105	21.2	-4.50606E-001	3.16430E-011	0.00000E+000	-4.50750E-001	9.77522E-004	4	..........a	-327.66
	106	21.4	-4.40631E-001	4.21404E-011	0.00000E+000	-4.40750E-001	9.89022E-004	4	..........a	-327.66
	107	21.6	-4.30634E-001	5.36379E-011	0.00000E+000	-4.30750E-001	9.96522E-004	4	..........a	-327.66
	108	21.8	-4.20772E-001	6.22732E-011	0.00000E+000	-4.20750E-001	9.73522E-004	4	..........a	-327.66
	109	22	-4.10572E-001	7.17525E-011	0.00000E+000	-4.10750E-001	9.75522E-004	4	..........a	-327.66
	110	22.2	-4.00633E-001	8.04739E-011	0.00000E+000	-4.00750E-001	9.75222E-004	4	..........a	-327.66
	111	22.4	-3.90687E-001	8.86362E-011	0.00000E+000	-3.90750E-001	9.97622E-004	4	..........a	-327.66
	112	22.6	-3.80700E-001	9.37514E-011	0.00000E+000	-3.80750E-001	9.91822E-004	4	..........a	-327.66
	113	22.8	-3.70514E-001	1.01338E-010	0.00000E+000	-3.70750E-001	9.74522E-004	4	..........a	-327.66
	114	23	-3.60706E-001	1.06884E-010	0.00000E+000	-3.60750E-001	9.78522E-004	4	..........a	-327.66
	115	23.2	-3.50695E-001	1.12677E-010	0.00000E+000	-3.50750E-001	9.73522E-004	4	..........a	-327.66
	116	23.4	-3.40723E-001	1.21349E-010	0.00000E+000	-3.40750E-001	9.81222E-004	4	..........a	-327.66
	117	23.6	-3.30629E-001	1.22346E-010	0.00000E+000	-3.30750E-001	9.82522E-004	4	..........a	-327.66
	118	23.8	-3.20640E-001	1.26967E-010	0.00000E+000	-3.20750E-001	9.93922E-004	4	..........a	-327.66
	119	24	-3.10726E-001	1.29842E-010	0.00000E+000	-3.10750E-001	9.99422E-004	4	..........a	-327.66
	120	24.2	-3.00643E-001	1.33259E-010	0.00000E+000	-3.00750E-001	9.84222E-004	4	..........a	-327.66
	121	24.4	-2.90528E-001	1.35329E-010	0.00000E+000	-2.90750E-001	9.86122E-004	4	..........a	-327.66
	122	24.6	-2.80643E-001	1.37481E-010	0.00000E+000	-2.80750E-001	9.89522E-004	4	..........a	-327.66
	123	24.8	-2.70664E-001	1.39702E-010	0.00000E+000	-2.70750E-001	9.91922E-004	4	..........a	-327.66
	124	25	-2.60682E-001	1.40564E-010	0.00000E+000	-2.60750E-001	9.75222E-004	4	..........a	-327.66
	125	25.2	-2.50655E-001	1.42271E-010	0.00000E+000	-2.50750E-001	9.88622E-004	4	..........a	-327.66
	126	25.4	-2.40636E-001	1.43689E-010	0.00000E+000	-2.40750E-001	9.82322E-004	4	..........a	-327.66
	127	25.6	-2.30753E-001	1.45345E-010	0.00000E+000	-2.30750E-001	9.98822E-004	4	..........a	-327.66
	128	25.8	-2.20659E-001	1.47643E-010	0.00000E+000	-2.20750E-001	9.98422E-004	4	..........a	-327.66
	129	26	-2.10648E-001	1.47551E-010	0.00000E+000	-2.10750E-001	9.66822E-004	4	..........a	-327.66
	130	26.2	-2.00693E-001	1.45577E-010	0.00000E+000	-2.00750E-001	1.00612E-003	4	..........a	-327.66
	131	26.4	-1.90904E-001	1.50811E-010	0.00000E+000	-1.90750E-001	9.91922E-004	4	..........a	-327.66
	132	26.6	-1.80752E-001	1.45342E-010	0.00000E+000	-1.80750E-001	9.87822E-004	4	..........a	-327.66
	133	26.8	-1.70693E-001	1.44318E-010	0.00000E+000	-1.70750E-001	9.81722E-004	4	..........a	-327.66
	134	27	-1.60709E-001	1.43023E-010	0.00000E+000	-1.60750E-001	9.85922E-004	4	..........a	-327.66
	135	27.2	-1.50754E-001	1.42231E-010	0.00000E+000	-1.50750E-001	9.82122E-004	4	..........a	-327.66
	136	27.4	-1.40734E-001	1.43946E-010	0.00000E+000	-1.40750E-001	9.80022E-004	4	..........a	-327.66
	137	27.6	-1.30676E-001	1.41033E-010	0.00000E+000	-1.30750E-001	9.84722E-004	4	..........a	-327.66
	138	27.8	-1.20698E-001	1.40560E-010	0.00000E+000	-1.20750E-001	9.81322E-004	4	..........a	-327.66
	139	28	-1.10729E-001	1.39168E-010	0.00000E+000	-1.10750E-001	9.80722E-004	4	..........a	-327.66
	140	28.2	-1.00679E-001	1.38608E-010	0.00000E+000	-1.00750E-001	9.85922E-004	4	..........a	-327.66
	141	28.4	-9.06715E-002	1.37864E-010	0.00000E+000	-9.07500E-002	9.69722E-004	4	..........a	-327.66
	142	28.6	-8.06821E-002	1.36365E-010	0.00000E+000	-8.07500E-002	9.81722E-004	4	..........a	-327.66
	143	28.8	-7.06683E-002	1.35520E-010	0.00000E+000	-7.07500E-002	9.84422E-004	4	..........a	-327.66
	144	29	-6.06435E-002	1.34334E-010	0.00000E+000	-6.07500E-002	9.95222E-004	4	..........a	-327.66
	145	29.2	-5.06876E-002	1.33767E-010	0.00000E+000	-5.07500E-002	9.69722E-004	4	..........a	-327.66
	146	29.4	-4.06680E-002	1.32573E-010	0.00000E+000	-4.07500E-002	1.00052E-003	4	..........a	-327.66
	147	29.6	-3.07391E-002	1.31934E-010	0.00000E+000	-3.07500E-002	9.79722E-004	4	..........a	-327.66
	148	29.8	-2.06818E-002	1.30575E-010	0.00000E+000	-2.07500E-002	9.85522E-004	4	..........a	-327.66
	149	30	-1.07228E-002	1.30466E-010	0.00000E+000	-1.07500E-002	9.72322E-004	4	..........a	-327.66
	150	30.2	-6.88009E-004	1.29645E-010	0.00000E+000	-7.49998E-004	9.83122E-004	4	..........a	-327.66
	151	30.4	9.31844E-003	1.28434E-010	0.00000E+000	9.25000E-003	9.79522E-004	4	..........a	-327.66
	152	30.6	1.93050E-002	1.28348E-010	0.00000E+000	1.92500E-002	9.85622E-004	4	..........a	-327.66
	153	30.8	2.93947E-002	1.27817E-010	0.00000E+000	2.92500E-002	1.00002E-003	4	..........a	-327.66
	154	31	3.92731E-002	1.26226E-010	0.00000E+000	3.92500E-002	1.01132E-003	4	..........a	-327.66
	155	31.2	4.92765E-002	1.27704E-010	0.00000E+000	4.92500E-002	9.77922E-004	4	..........a	-327.66
	156	31.4	5.92963E-002	1.24910E-010	0.00000E+000	5.92500E-002	1.00802E-003	4	..........a	-327.66
	157	31.6	6.93847E-002	1.27487E-010	0.00000E+000	6.92500E-002	9.80922E-004	4	..........a	-327.66
	158	31.8	7.92901E-002	1.23506E-010	0.00000E+000	7.92500E-002	1.00752E-003	4	..........a	-327.66
	159	32	8.93107E-002	1.23970E-010	0.00000E+000	8.92500E-002	9.91622E-004	4	..........a	-327.66
	160	32.2	9.92636E-002	1.21719E-010	0.00000E+000	9.92500E-002	9.95222E-004	4	..........a	-327.66
	161	32.4	1.09338E-001	1.22332E-010	0.00000E+000	1.09250E-001	9.73722E-004	4	..........a	-327.66
	162	32.6	1.19274E-001	1.24899E-010	0.00000E+000	1.19250E-001	1.01202E-003	4	..........a	-327.66
	163	32.8	1.29275E-001	1.21872E-010	0.00000E+000	1.29250E-001	9.89822E-004	4	..........a	-327.66
	164	33	1.39320E-001	1.23813E-010	0.00000E+000	1.39250E-001	9.81522E-004	4	..........a	-327.66
	165	33.2	1.49374E-001	1.22713E-010	0.00000E+000	1.49250E-001	9.82822E-004	4	..........a	-327.66
	166	33.4	1.59358E-001	1.27123E-010	0.00000E+000	1.59250E-001	9.85822E-004	4	..........a	-327.66
	167	33.6	1.69251E-001	1.23685E-010	0.00000E+000	1.69250E-001	9.93122E-004	4	..........a	-327.66
	168	33.8	1.79323E-001	1.27333E-010	0.00000E+000	1.79250E-001	1.00282E-003	4	..........a	-327.66
	169	34	1.89333E-001	1.24900E-010	0.00000E+000	1.89250E-001	9.66922E-004	4	..........a	-327.66
	170	34.2	1.99268E-001	1.26461E-010	0.00000E+000	1.99250E-001	1.00102E-003	4	..........a	-327.66
	171	34.4	2.09228E-001	1.28186E-010	0.00000E+000	2.09250E-001	9.84022E-004	4	..........a	-327.66
	172	34.6	2.19002E-001	1.28287E-010	0.00000E+000	2.19250E-001	9.85522E-004	4	..........a	-327.66
	173	34.8	2.29271E-001	1.29664E-010	0.00000E+000	2.29250E-001	9.90222E-004	4	..........a	-327.66
	174	35	2.39309E-001	1.31115E-010	0.00000E+000	2.39250E-001	9.99322E-004	4	..........a	-327.66
	175	35.2	2.49236E-001	1.33211E-010	0.00000E+000	2.49250E-001	9.89422E-004	4	..........a	-327.66
	176	35.4	2.59284E-001	1.33592E-010	0.00000E+000	2.59250E-001	9.98222E-004	4	..........a	-327.66
	177	35.6	2.69466E-001	1.35482E-010	0.00000E+000	2.69250E-001	9.90922E-004	4	..........a	-327.66
	178	35.8	2.79245E-001	1.37222E-010	0.00000E+000	2.79250E-001	9.97222E-004	4	..........a	-327.66
	179	36	2.89265E-001	1.38173E-010	0.00000E+000	2.89250E-001	1.00902E-003	4	..........a	-327.66
	180	36.2	2.99268E-001	1.39578E-010	0.00000E+000	2.99250E-001	1.00062E-003	4	..........a	-327.66
	181	36.4	3.09288E-001	1.41071E-010	0.00000E+000	3.09250E-001	9.89522E-004	4	..........a	-327.66
	182	36.6	3.19291E-001	1.43667E-010	0.00000E+000	3.19250E-001	1.00242E-003	4	..........a	-327.66
	183	36.8	3.29210E-001	1.44827E-010	0.00000E+000	3.29250E-001	9.96122E-004	4	..........a	-327.66
	184	37	3.39288E-001	1.47150E-010	0.00000E+000	3.39250E-001	9.94222E-004	4	..........a	-327.66
	185	37.2	3.49273E-001	1.49161E-010	0.00000E+000	3.49250E-001	9.89122E-004	4	..........a	-327.66
	186	37.4	3.59350E-001	1.55802E-010	0.00000E+000	3.59250E-001	9.77022E-004	4	..........a	-327.66
	187	37.6	3.69289E-001	1.59047E-010	0.00000E+000	3.69250E-001	9.88722E-004	4	..........a	-327.66
	188	37.8	3.79332E-001	1.59439E-010	0.00000E+000	3.79250E-001	9.80422E-004	4	..........a	-327.66
	189	38	3.89266E-001	1.56914E-010	0.00000E+000	3.89250E-001	9.83822E-004	4	..........a	-327.66
	190	38.2	3.99319E-001	1.61783E-010	0.00000E+000	3.99250E-001	9.75922E-004	4	..........a	-327.66
	191	38.4	4.09227E-001	1.65325E-010	0.00000E+000	4.09250E-001	1.00542E-003	4	..........a	-327.66
	192	38.6	4.19279E-001	1.67956E-010	0.00000E+000	4.19250E-001	9.85022E-004	4	..........a	-327.66
	193	38.8	4.29341E-001	1.70197E-010	0.00000E+000	4.29250E-001	9.90322E-004	4	..........a	-327.66
	194	39	4.39210E-001	1.72986E-010	0.00000E+000	4.39250E-001	9.98522E-004	4	..........a	-327.66
	195	39.2	4.49155E-001	1.77643E-010	0.00000E+000	4.49250E-001	1.00342E-003	4	..........a	-327.66
	196	39.4	4.59212E-001	1.84723E-010	0.00000E+000	4.59250E-001	9.89622E-004	4	..........a	-327.66
	197	39.6	4.69273E-001	1.85444E-010	0.00000E+000	4.69250E-001	9.87222E-004	4	..........a	-327.66
	198	39.8	4.79259E-001	1.91965E-010	0.00000E+000	4.79250E-001	9.85922E-004	4	..........a	-327.66
	199	40	4.89176E-001	1.94144E-010	0.00000E+000	4.89250E-001	9.98322E-004	4	..........a	-327.66
	200	40.2	4.99289E-001	1.98679E-010	0.00000E+000	4.99250E-001	9.75322E-004	4	..........a	-327.66
	201	40.4	5.09295E-001	2.02870E-010	0.00000E+000	5.09250E-001	9.78522E-004	4	..........a	-327.66
	202	40.6	5.19268E-001	2.07444E-010	0.00000E+000	5.19250E-001	9.94322E-004	4	..........a	-327.66
	203	40.8	5.29243E-001	2.14842E-010	0.00000E+000	5.29250E-001	9.88222E-004	4	..........a	-327.66
	204	41	5.39249E-001	2.18032E-010	0.00000E+000	5.39250E-001	9.97822E-004	4	..........a	-327.66
	205	41.2	5.49244E-001	2.22478E-010	0.00000E+000	5.49250E-001	9.98122E-004	4	..........a	-327.66
	206	41.4	5.59197E-001	2.29811E-010	0.00000E+000	5.59250E-001	1.00992E-003	4	..........a	-327.66
	207	41.6	5.69154E-001	2.36138E-010	0.00000E+000	5.69250E-001	9.91722E-004	4	..........a	-327.66
	208	41.8	5.79143E-001	2.42128E-010	0.00000E+000	5.79250E-001	9.91622E-004	4	..........a	-327.66
	209	42	5.89171E-001	2.48838E-010	0.00000E+000	5.89250E-001	9.94922E-004	4	..........a	-327.66
	210	42.2	5.99200E-001	2.55291E-010	0.00000E+000	5.99250E-001	1.01832E-003	4	..........a	-327.66
	211	42.4	6.09143E-001	2.61873E-010	0.00000E+000	6.09250E-001	9.89622E-004	4	..........a	-327.66
	212	42.6	6.19141E-001	2.69471E-010	0.00000E+000	6.19250E-001	9.99122E-004	4	..........a	-327.66
	213	42.8	6.29133E-001	2.76181E-010	0.00000E+000	6.29250E-001	9.82722E-004	4	..........a	-327.66
	214	43	6.39201E-001	2.84393E-010	0.00000E+000	6.39250E-001	1.00602E-003	4	..........a	-327.66
	215	43.2	6.49145E-001	2.91538E-010	0.00000E+000	6.49250E-001	9.79322E-004	4	..........a	-327.66
	216	43.4	6.59072E-001	2.99741E-010	0.00000E+000	6.59250E-001	1.00532E-003	4	..........a	-327.66
	217	43.6	6.69149E-001	3.08171E-010	0.00000E+000	6.69250E-001	9.83522E-004	4	..........a	-327.66
	218	43.8	6.79263E-001	3.16853E-010	0.00000E+000	6.79250E-001	9.97622E-004	4	..........a	-327.66
	219	44	6.89135E-001	3.25054E-010	0.00000E+000	6.89250E-001	9.78122E-004	4	..........a	-327.66
	220	44.2	6.99167E-001	3.34132E-010	0.00000E+000	6.99250E-001	1.00162E-003	4	..........a	-327.66
	221	44.4	7.09190E-001	3.44036E-010	0.00000E+000	7.09250E-001	9.79922E-004	4	..........a	-327.66
	222	44.6	7.19224E-001	3.54593E-010	0.00000E+000	7.19250E-001	9.94022E-004	4	..........a	-327.66
	223	44.8	7.29175E-001	3.66267E-010	0.00000E+000	7.29250E-001	9.92122E-004	4	..........a	-327.66
	224	45	7.39113E-001	3.77688E-010	0.00000E+000	7.39250E-001	9.95622E-004	4	..........a	-327.66
	225	45.2	7.49203E-001	3.90488E-010	0.00000E+000	7.49250E-001	9.81322E-004	4	..........a	-327.66
	226	45.4	7.59243E-001	4.05373E-010	0.00000E+000	7.59250E-001	9.90022E-004	4	..........a	-327.66
	227	45.6	7.69133E-001	4.19776E-010	0.00000E+000	7.69250E-001	1.01022E-003	4	..........a	-327.66
	228	45.8	7.79218E-001	4.37099E-010	0.00000E+000	7.79250E-001	9.73722E-004	4	..........a	-327.66
	229	46	7.89224E-001	4.56142E-010	0.00000E+000	7.89250E-001	9.85022E-004	4	..........a	-327.66
	230	46.2	7.99239E-001	4.75963E-010	0.00000E+000	7.99250E-001	9.97922E-004	4	..........a	-327.66
CURVE2	TABLE
	Pt	T	Vf	Im	Vu	Sig	Ach	IERange	Over	Temp
	#	s	V vs. Ref.	A	V	V	V	#	bits	deg C
	231	46.4	7.89894E-001	3.56194E-010	0.00000E+000	7.90000E-001	9.73422E-004	4	..........a	-327.66
	232	46.6	7.79967E-001	2.77421E-010	0.00000E+000	7.80000E-001	9.87822E-004	4	..........a	-327.66
	233	46.8	7.69965E-001	2.19191E-010	0.00000E+000	7.70000E-001	9.84422E-004	4	..........a	-327.66
	234	47	7.59903E-001	1.79207E-010	0.00000E+000	7.60000E-001	9.93522E-004	4	..........a	-327.66
	235	47.2	7.49891E-001	1.48426E-010	0.00000E+000	7.50000E-001	9.95322E-004	4	..........a	-327.66
	236	47.4	7.39971E-001	1.20306E-010	0.00000E+000	7.40000E-001	9.92322E-004	4	..........a	-327.66
	237	47.6	7.29967E-001	9.35844E-011	0.00000E+000	7.30000E-001	9.95222E-004	4	..........a	-327.66
	238	47.8	7.19938E-001	7.62377E-011	0.00000E+000	7.20000E-001	9.84922E-004	4	..........a	-327.66
	239	48	7.09939E-001	5.94421E-011	0.00000E+000	7.10000E-001	9.95022E-004	4	..........a	-327.66
	240	48.2	6.99976E-001	4.61856E-011	0.00000E+000	7.00000E-001	9.85222E-004	4	..........a	-327.66
	241	48.4	6.89844E-001	3.35471E-011	0.00000E+000	6.90000E-001	9.64722E-004	4	..........a	-327.66
	242	48.6	6.79790E-001	2.71488E-011	0.00000E+000	6.80000E-001	9.78622E-004	4	..........a	-327.66
	243	48.8	6.69917E-001	1.20793E-011	0.00000E+000	6.70000E-001	9.81022E-004	4	..........a	-327.66
	244	49	6.59999E-001	3.60494E-012	0.00000E+000	6.60000E-001	9.71122E-004	4	..........a	-327.66
	245	49.2	6.49941E-001	-5.66242E-012	0.00000E+000	6.50000E-001	9.67722E-004	4	..........a	-327.66
	246	49.4	6.39820E-001	-1.12206E-011	0.00000E+000	6.40000E-001	9.70822E-004	4	..........a	-327.66
	247	49.6	6.29918E-001	-1.92399E-011	0.00000E+000	6.30000E-001	9.64322E-004	4	..........a	-327.66
	248	49.8	6.20005E-001	-2.40531E-011	0.00000E+000	6.20000E-001	9.88122E-004	4	..........a	-327.66
	249	50	6.09934E-001	-3.19814E-011	0.00000E+000	6.10000E-001	9.64422E-004	4	..........a	-327.66
	250	50.2	5.99961E-001	-3.67966E-011	0.00000E+000	6.00000E-001	9.98922E-004	4	..........a	-327.66
	251	50.4	5.90002E-001	-3.95997E-011	0.00000E+000	5.90000E-001	9.78322E-004	4	..........a	-327.66
	252	50.6	5.80032E-001	-4.35409E-011	0.00000E+000	5.80000E-001	9.75822E-004	4	..........a	-327.66
	253	50.8	5.69924E-001	-4.83301E-011	0.00000E+000	5.70000E-001	9.72522E-004	4	..........a	-327.66
	254	51	5.59997E-001	-5.20452E-011	0.00000E+000	5.60000E-001	9.81922E-004	4	..........a	-327.66
	255	51.2	5.49999E-001	-5.46883E-011	0.00000E+000	5.50000E-001	9.82822E-004	4	..........a	-327.66
	256	51.4	5.40027E-001	-5.71584E-011	0.00000E+000	5.40000E-001	9.99722E-004	4	..........a	-327.66
	257	51.6	5.29945E-001	-6.04365E-011	0.00000E+000	5.30000E-001	9.61222E-004	4	..........a	-327.66
	258	51.8	5.19956E-001	-6.29056E-011	0.00000E+000	5.20000E-001	1.00042E-003	4	..........a	-327.66
	259	52	5.09924E-001	-6.53217E-011	0.00000E+000	5.10000E-001	9.93922E-004	4	..........a	-327.66
	260	52.2	5.00028E-001	-6.77928E-011	0.00000E+000	5.00000E-001	9.69222E-004	4	..........a	-327.66
	261	52.4	4.90003E-001	-6.98389E-011	0.00000E+000	4.90000E-001	9.89122E-004	4	..........a	-327.66
	262	52.6	4.79923E-001	-7.10169E-011	0.00000E+000	4.80000E-001	9.89922E-004	4	..........a	-327.66
	263	52.8	4.69986E-001	-7.27000E-011	0.00000E+000	4.70000E-001	1.00742E-003	4	..........a	-327.66
	264	53	4.60017E-001	-7.43771E-011	0.00000E+000	4.60000E-001	9.89122E-004	4	..........a	-327.66
	265	53.2	4.49903E-001	-7.64121E-011	0.00000E+000	4.50000E-001	9.79022E-004	4	..........a	-327.66
	266	53.4	4.39924E-001	-7.82902E-011	0.00000E+000	4.40000E-001	9.93222E-004	4	..........a	-327.66
	267	53.6	4.29904E-001	-7.98153E-011	0.00000E+000	4.30000E-001	9.95322E-004	4	..........a	-327.66
	268	53.8	4.20028E-001	-8.10903E-011	0.00000E+000	4.20000E-001	9.98322E-004	4	..........a	-327.66
	269	54	4.09945E-001	-8.27764E-011	0.00000E+000	4.10000E-001	9.92722E-004	4	..........a	-327.66
	270	54.2	3.99983E-001	-8.39374E-011	0.00000E+000	4.00000E-001	9.91622E-004	4	..........a	-327.66
	271	54.4	3.89997E-001	-8.51795E-011	0.00000E+000	3.90000E-001	9.85022E-004	4	..........a	-327.66
	272	54.6	3.80035E-001	-8.59985E-011	0.00000E+000	3.80000E-001	1.01282E-003	4	..........a	-327.66
	273	54.8	3.70034E-001	-8.67665E-011	0.00000E+000	3.70000E-001	9.94322E-004	4	..........a	-327.66
	274	55	3.59979E-001	-8.85466E-011	0.00000E+000	3.60000E-001	9.94522E-004	4	..........a	-327.66
	275	55.2	3.49993E-001	-8.97016E-011	0.00000E+000	3.50000E-001	9.79322E-004	4	..........a	-327.66
	276	55.4	3.40072E-001	-9.02757E-011	0.00000E+000	3.40000E-001	9.90422E-004	4	..........a	-327.66
	277	55.6	3.30023E-001	-9.17607E-011	0.00000E+000	3.30000E-001	9.75022E-004	4	..........a	-327.66
	278	55.8	3.20011E-001	-9.27718E-011	0.00000E+000	3.20000E-001	9.76522E-004	4	..........a	-327.66
	279	56	3.09969E-001	-9.45978E-011	0.00000E+000	3.10000E-001	1.00652E-003	4	..........a	-327.66
	280	56.2	3.00012E-001	-9.54339E-011	0.00000E+000	3.00000E-001	1.01212E-003	4	..........a	-327.66
	281	56.4	2.89990E-001	-9.63509E-011	0.00000E+000	2.90000E-001	9.90722E-004	4	..........a	-327.66
	282	56.6	2.79973E-001	-9.74149E-011	0.00000E+000	2.80000E-001	1.00192E-003	4	..........a	-327.66
	283	56.8	2.69925E-001	-9.74449E-011	0.00000E+000	2.70000E-001	9.77922E-004	4	..........a	-327.66
	284	57	2.60023E-001	-9.96350E-011	0.00000E+000	2.60000E-001	1.00302E-003	4	..........a	-327.66
	285	57.2	2.50038E-001	-9.99640E-011	0.00000E+000	2.50000E-001	9.85822E-004	4	..........a	-327.66
	286	57.4	2.40004E-001	-1.00536E-010	0.00000E+000	2.40000E-001	9.91422E-004	4	..........a	-327.66
	287	57.6	2.30000E-001	-1.01606E-010	0.00000E+000	2.30000E-001	9.94322E-004	4	..........a	-327.66
	288	57.8	2.20057E-001	-1.02334E-010	0.00000E+000	2.20000E-001	9.92722E-004	4	..........a	-327.66
	289	58	2.10033E-001	-1.02944E-010	0.00000E+000	2.10000E-001	9.79622E-004	4	..........a	-327.66
	290	58.2	2.00041E-001	-1.03517E-010	0.00000E+000	2.00000E-001	1.00772E-003	4	..........a	-327.66
	291	58.4	1.90049E-001	-1.03540E-010	0.00000E+000	1.90000E-001	9.88022E-004	4	..........a	-327.66
	292	58.6	1.80084E-001	-1.03988E-010	0.00000E+000	1.80000E-001	9.79422E-004	4	..........a	-327.66
	293	58.8	1.70067E-001	-1.04875E-010	0.00000E+000	1.70000E-001	1.00632E-003	4	..........a	-327.66
	294	59	1.60061E-001	-1.04977E-010	0.00000E+000	1.60000E-001	9.90322E-004	4	..........a	-327.66
	295	59.2	1.50021E-001	-1.05268E-010	0.00000E+000	1.50000E-001	9.95622E-004	4	..........a	-327.66
	296	59.4	1.40104E-001	-1.05727E-010	0.00000E+000	1.40000E-001	9.89222E-004	4	..........a	-327.66
	297	59.6	1.30079E-001	-1.06423E-010	0.00000E+000	1.30000E-001	9.73022E-004	4	..........a	-327.66
	298	59.8	1.20067E-001	-1.06492E-010	0.00000E+000	1.20000E-001	9.87322E-004	4	..........a	-327.66
	299	60	1.10044E-001	-1.07187E-010	0.00000E+000	1.10000E-001	1.02102E-003	4	..........a	-327.66
	300	60.2	1.00031E-001	-1.07914E-010	0.00000E+000	1.00000E-001	9.94522E-004	4	..........a	-327.66
	301	60.4	8.99471E-002	-1.09555E-010	0.00000E+000	9.00000E-002	9.75122E-004	4	..........a	-327.66
	302	60.6	8.00486E-002	-1.11257E-010	0.00000E+000	8.00000E-002	9.94122E-004	4	..........a	-327.66
	303	60.8	6.99597E-002	-1.12675E-010	0.00000E+000	7.00000E-002	1.00622E-003	4	..........a	-327.66
	304	61	6.00692E-002	-1.13257E-010	0.00000E+000	6.00000E-002	1.01342E-003	4	..........a	-327.66
	305	61.2	5.00723E-002	-1.15327E-010	0.00000E+000	5.00000E-002	9.88022E-004	4	..........a	-327.66
	306	61.4	4.01109E-002	-1.16960E-010	0.00000E+000	4.00000E-002	9.82022E-004	4	..........a	-327.66
	307	61.6	3.00361E-002	-1.17974E-010	0.00000E+000	3.00000E-002	1.00602E-003	4	..........a	-327.66
	308	61.8	2.00476E-002	-1.20434E-010	0.00000E+000	2.00000E-002	9.93922E-004	4	..........a	-327.66
	309	62	1.00723E-002	-1.23415E-010	0.00000E+000	1.00000E-002	9.81122E-004	4	..........a	-327.66
	310	62.2	3.38408E-005	-1.25788E-010	0.00000E+000	7.45058E-009	9.86122E-004	4	..........a	-327.66
	311	62.4	-1.00693E-002	-1.28750E-010	0.00000E+000	-1.00000E-002	9.81822E-004	4	..........a	-327.66
	312	62.6	-1.99295E-002	-1.30770E-010	0.00000E+000	-2.00000E-002	9.89822E-004	4	..........a	-327.66
	313	62.8	-2.99146E-002	-1.34927E-010	0.00000E+000	-3.00000E-002	9.85722E-004	4	..........a	-327.66
	314	63	-4.00330E-002	-1.38561E-010	0.00000E+000	-4.00000E-002	9.81822E-004	4	..........a	-327.66
	315	63.2	-5.00355E-002	-1.41892E-010	0.00000E+000	-5.00000E-002	9.75922E-004	4	..........a	-327.66
	316	63.4	-5.99836E-002	-1.45427E-010	0.00000E+000	-6.00000E-002	1.01432E-003	4	..........a	-327.66
	317	63.6	-6.99380E-002	-1.49168E-010	0.00000E+000	-7.00000E-002	1.00122E-003	4	..........a	-327.66
	318	63.8	-7.99440E-002	-1.53094E-010	0.00000E+000	-8.00000E-002	9.81922E-004	4	..........a	-327.66
	319	64	-8.99763E-002	-1.57928E-010	0.00000E+000	-9.00000E-002	9.83122E-004	4	..........a	-327.66
	320	64.2	-9.99515E-002	-1.62231E-010	0.00000E+000	-1.00000E-001	1.00962E-003	4	..........a	-327.66
	321	64.4	-1.09935E-001	-1.66218E-010	0.00000E+000	-1.10000E-001	9.90522E-004	4	..........a	-327.66
	322	64.6	-1.19960E-001	-1.70809E-010	0.00000E+000	-1.20000E-001	9.78922E-004	4	..........a	-327.66
	323	64.8	-1.30042E-001	-1.75799E-010	0.00000E+000	-1.30000E-001	1.01232E-003	4	..........a	-327.66
	324	65	-1.39961E-001	-1.80273E-010	0.00000E+000	-1.40000E-001	9.95022E-004	4	..........a	-327.66
	325	65.2	-1.49970E-001	-1.84798E-010	0.00000E+000	-1.50000E-001	9.97122E-004	4	..........a	-327.66
	326	65.4	-1.60029E-001	-1.89583E-010	0.00000E+000	-1.60000E-001	1.00442E-003	4	..........a	-327.66
	327	65.6	-1.69984E-001	-1.94239E-010	0.00000E+000	-1.70000E-001	1.00862E-003	4	..........a	-327.66
	328	65.8	-1.79997E-001	-1.98915E-010	0.00000E+000	-1.80000E-001	9.83622E-004	4	..........a	-327.66
	329	66	-1.90008E-001	-2.03314E-010	0.00000E+000	-1.90000E-001	9.99822E-004	4	..........a	-327.66
	330	66.2	-2.00027E-001	-2.08443E-010	0.00000E+000	-2.00000E-001	1.00842E-003	4	..........a	-327.66
	331	66.4	-2.09938E-001	-2.13122E-010	0.00000E+000	-2.10000E-001	1.00142E-003	4	..........a	-327.66
	332	66.6	-2.19888E-001	-2.17456E-010	0.00000E+000	-2.20000E-001	9.89822E-004	4	..........a	-327.66
	333	66.8	-2.29966E-001	-2.23165E-010	0.00000E+000	-2.30000E-001	9.99922E-004	4	..........a	-327.66
	334	67	-2.39867E-001	-2.28376E-010	0.00000E+000	-2.40000E-001	9.73822E-004	4	..........a	-327.66
	335	67.2	-2.49900E-001	-2.33875E-010	0.00000E+000	-2.50000E-001	9.94422E-004	4	..........a	-327.66
	336	67.4	-2.59895E-001	-2.39646E-010	0.00000E+000	-2.60000E-001	9.89222E-004	4	..........a	-327.66
	337	67.6	-2.69882E-001	-2.45239E-010	0.00000E+000	-2.70000E-001	9.88322E-004	4	..........a	-327.66
	338	67.8	-2.79927E-001	-2.51221E-010	0.00000E+000	-2.80000E-001	9.93622E-004	4	..........a	-327.66
	339	68	-2.89970E-001	-2.58680E-010	0.00000E+000	-2.90000E-001	9.93822E-004	4	..........a	-327.66
	340	68.2	-2.99858E-001	-2.62940E-010	0.00000E+000	-3.00000E-001	9.81822E-004	4	..........a	-327.66
	341	68.4	-3.09898E-001	-2.71445E-010	0.00000E+000	-3.10000E-001	9.69122E-004	4	..........a	-327.66
	342	68.6	-3.19891E-001	-2.79337E-010	0.00000E+000	-3.20000E-001	9.88622E-004	4	..........a	-327.66
	343	68.8	-3.29917E-001	-2.90659E-010	0.00000E+000	-3.30000E-001	9.92422E-004	4	..........a	-327.66
	344	69	-3.39867E-001	-2.92979E-010	0.00000E+000	-3.40000E-001	9.93722E-004	4	..........a	-327.66
	345	69.2	-3.49878E-001	-3.00479E-010	0.00000E+000	-3.50000E-001	9.80322E-004	4	..........a	-327.66
	346	69.4	-3.59885E-001	-3.07917E-010	0.00000E+000	-3.60000E-001	1.00042E-003	4	..........a	-327.66
	347	69.6	-3.69851E-001	-3.17388E-010	0.00000E+000	-3.70000E-001	9.81622E-004	4	..........a	-327.66
	348	69.8	-3.79875E-001	-3.24146E-010	0.00000E+000	-3.80000E-001	9.91122E-004	4	..........a	-327.66
	349	70	-3.89891E-001	-3.32093E-010	0.00000E+000	-3.90000E-001	9.89422E-004	4	..........a	-327.66
	350	70.2	-3.99871E-001	-3.40614E-010	0.00000E+000	-4.00000E-001	9.87722E-004	4	..........a	-327.66
	351	70.4	-4.09844E-001	-3.48179E-010	0.00000E+000	-4.10000E-001	1.00492E-003	4	..........a	-327.66
	352	70.6	-4.19812E-001	-3.56655E-010	0.00000E+000	-4.20000E-001	9.87322E-004	4	..........a	-327.66
	353	70.8	-4.29841E-001	-3.69226E-010	0.00000E+000	-4.30000E-001	9.92622E-004	4	..........a	-327.66
[...]
	921	184.4	-5.09843E-001	-5.34532E-010	0.00000E+000	-5.10000E-001	9.92222E-004	4	..........a	-327.66
	922	184.6	-5.19864E-001	-5.52261E-010	0.00000E+000	-5.20000E-001	9.98622E-004	4	..........a	-327.66
	923	184.8	-5.29865E-001	-5.68644E-010	0.00000E+000	-5.30000E-001	9.74122E-004	4	..........a	-327.66
	924	185	-5.39836E-001	-5.88191E-010	0.00000E+000	-5.40000E-001	9.94522E-004	4	..........a	-327.66
	925	185.2	-5.49908E-001	-6.08909E-010	0.00000E+000	-5.50000E-001	9.85522E-004	4	..........a	-327.66
	926	185.4	-5.59871E-001	-6.32056E-010	0.00000E+000	-5.60000E-001	9.92722E-004	4	..........a	-327.66
	927	185.6	-5.69883E-001	-6.57101E-010	0.00000E+000	-5.70000E-001	9.89622E-004	4	..........a	-327.66
	928	185.8	-5.79842E-001	-6.84355E-010	0.00000E+000	-5.80000E-001	9.83622E-004	4	..........a	-327.66
	929	186	-5.89864E-001	-7.15017E-010	0.00000E+000	-5.90000E-001	9.87722E-004	4	..........a	-327.66
	930	186.2	-5.99844E-001	-7.48512E-010	0.00000E+000	-6.00000E-001	1.01472E-003	4	..........a	-327.66
	931	186.4	-5.89805E-001	-5.36067E-010	0.00000E+000	-5.90000E-001	1.00622E-003	4	..........a	-327.66
	932	186.6	-5.79838E-001	-4.09490E-010	0.00000E+000	-5.80000E-001	9.84022E-004	4	..........a	-327.66
	933	186.8	-5.69839E-001	-3.25011E-010	0.00000E+000	-5.70000E-001	9.83422E-004	4	..........a	-327.66
	934	187	-5.59917E-001	-2.60246E-010	0.00000E+000	-5.60000E-001	9.72622E-004	4	..........a	-327.66
	935	187.2	-5.49851E-001	-2.13085E-010	0.00000E+000	-5.50000E-001	9.97322E-004	4	..........a	-327.66
	936	187.4	-5.39905E-001	-1.74701E-010	0.00000E+000	-5.40000E-001	9.78822E-004	4	..........a	-327.66
	937	187.6	-5.29902E-001	-1.43474E-010	0.00000E+000	-5.30000E-001	9.99322E-004	4	..........a	-327.66
	938	187.8	-5.19887E-001	-1.17462E-010	0.00000E+000	-5.20000E-001	1.00142E-003	4	..........a	-327.66
	939	188	-5.09843E-001	-9.47338E-011	0.00000E+000	-5.10000E-001	9.83522E-004	4	..........a	-327.66
	940	188.2	-4.99861E-001	-7.43661E-011	0.00000E+000	-5.00000E-001	9.77222E-004	4	..........a	-327.66
	941	188.4	-4.89918E-001	-5.65154E-011	0.00000E+000	-4.90000E-001	1.00632E-003	4	..........a	-327.66
	942	188.6	-4.79860E-001	-3.96077E-011	0.00000E+000	-4.80000E-001	9.76522E-004	4	..........a	-327.66
	943	188.8	-4.69791E-001	-2.42291E-011	0.00000E+000	-4.70000E-001	9.90922E-004	4	..........a	-327.66
	944	189	-4.59857E-001	-9.32456E-012	0.00000E+000	-4.60000E-001	1.00592E-003	4	..........a	-327.66
	945	189.2	-4.49892E-001	2.69290E-012	0.00000E+000	-4.50000E-001	9.90922E-004	4	..........a	-327.66
	946	189.4	-4.39898E-001	1.51904E-011	0.00000E+000	-4.40000E-001	9.98022E-004	4	..........a	-327.66
	947	189.6	-4.29870E-001	2.60948E-011	0.00000E+000	-4.30000E-001	9.90222E-004	4	..........a	-327.66
	948	189.8	-4.19854E-001	3.74862E-011	0.00000E+000	-4.20000E-001	9.96522E-004	4	..........a	-327.66
	949	190	-4.09910E-001	4.82937E-011	0.00000E+000	-4.10000E-001	9.98422E-004	4	..........a	-327.66
	950	190.2	-3.99891E-001	5.62960E-011	0.00000E+000	-4.00000E-001	1.00102E-003	4	..........a	-327.66
	951	190.4	-3.89860E-001	6.58753E-011	0.00000E+000	-3.90000E-001	9.96922E-004	4	..........a	-327.66
	952	190.6	-3.79896E-001	7.48967E-011	0.00000E+000	-3.80000E-001	1.00702E-003	4	..........a	-327.66
	953	190.8	-3.69959E-001	8.33750E-011	0.00000E+000	-3.70000E-001	9.97322E-004	4	..........a	-327.66
	954	191	-3.59912E-001	8.98182E-011	0.00000E+000	-3.60000E-001	1.00462E-003	4	..........a	-327.66
	955	191.2	-3.49895E-001	9.71665E-011	0.00000E+000	-3.50000E-001	9.95922E-004	4	..........a	-327.66
	956	191.4	-3.39960E-001	1.04501E-010	0.00000E+000	-3.40000E-001	9.95422E-004	4	..........a	-327.66
	957	191.6	-3.29967E-001	1.11095E-010	0.00000E+000	-3.30000E-001	1.02042E-003	4	..........a	-327.66
	958	191.8	-3.19898E-001	1.17170E-010	0.00000E+000	-3.20000E-001	9.86422E-004	4	..........a	-327.66
	959	192	-3.09879E-001	1.22461E-010	0.00000E+000	-3.10000E-001	9.74422E-004	4	..........a	-327.66
	960	192.2	-2.99881E-001	1.28173E-010	0.00000E+000	-3.00000E-001	9.77422E-004	4	..........a	-327.66
	961	192.4	-2.89946E-001	1.32996E-010	0.00000E+000	-2.90000E-001	1.01402E-003	4	..........a	-327.66
	962	192.6	-2.79891E-001	1.37752E-010	0.00000E+000	-2.80000E-001	1.00602E-003	4	..........a	-327.66
	963	192.8	-2.69887E-001	1.43834E-010	0.00000E+000	-2.70000E-001	9.91022E-004	4	..........a	-327.66
	964	193	-2.59907E-001	1.49054E-010	0.00000E+000	-2.60000E-001	9.98422E-004	4	..........a	-327.66
	965	193.2	-2.49907E-001	1.50715E-010	0.00000E+000	-2.50000E-001	9.82622E-004	4	..........a	-327.66
	966	193.4	-2.39872E-001	1.52987E-010	0.00000E+000	-2.40000E-001	9.84222E-004	4	..........a	-327.66
	967	193.6	-2.29998E-001	1.59947E-010	0.00000E+000	-2.30000E-001	9.70922E-004	4	..........a	-327.66
	968	193.8	-2.19909E-001	1.60869E-010	0.00000E+000	-2.20000E-001	9.92322E-004	4	..........a	-327.66
	969	194	-2.09983E-001	1.61506E-010	0.00000E+000	-2.10000E-001	9.70122E-004	4	..........a	-327.66
	970	194.2	-1.99994E-001	1.60814E-010	0.00000E+000	-2.00000E-001	1.00612E-003	4	..........a	-327.66
	971	194.4	-1.90098E-001	1.63194E-010	0.00000E+000	-1.90000E-001	9.98222E-004	4	..........a	-327.66
	972	194.6	-1.79932E-001	1.64520E-010	0.00000E+000	-1.80000E-001	1.00032E-003	4	..........a	-327.66
	973	194.8	-1.69923E-001	1.64829E-010	0.00000E+000	-1.70000E-001	1.00142E-003	4	..........a	-327.66
	974	195	-1.59985E-001	1.64277E-010	0.00000E+000	-1.60000E-001	9.96522E-004	4	..........a	-327.66
	975	195.2	-1.49954E-001	1.63295E-010	0.00000E+000	-1.50000E-001	9.83122E-004	4	..........a	-327.66
	976	195.4	-1.39866E-001	1.64389E-010	0.00000E+000	-1.40000E-001	1.01382E-003	4	..........a	-327.66
	977	195.6	-1.30003E-001	1.64015E-010	0.00000E+000	-1.30000E-001	1.00572E-003	4	..........a	-327.66
	978	195.8	-1.19914E-001	1.62739E-010	0.00000E+000	-1.20000E-001	1.00652E-003	4	..........a	-327.66
	979	196	-1.09967E-001	1.60089E-010	0.00000E+000	-1.10000E-001	9.79022E-004	4	..........a	-327.66
	980	196.2	-9.99450E-002	1.57965E-010	0.00000E+000	-1.00000E-001	9.93622E-004	4	..........a	-327.66
	981	196.4	-8.99274E-002	1.61281E-010	0.00000E+000	-9.00000E-002	1.00062E-003	4	..........a	-327.66
	982	196.6	-7.98995E-002	1.60247E-010	0.00000E+000	-8.00000E-002	1.00222E-003	4	..........a	-327.66
	983	196.8	-6.99239E-002	1.56797E-010	0.00000E+000	-7.00000E-002	9.99422E-004	4	..........a	-327.66
	984	197	-5.99199E-002	1.54572E-010	0.00000E+000	-6.00000E-002	1.00522E-003	4	..........a	-327.66
	985	197.2	-4.99273E-002	1.53947E-010	0.00000E+000	-5.00000E-002	9.98722E-004	4	..........a	-327.66
	986	197.4	-3.99108E-002	1.59243E-010	0.00000E+000	-4.00000E-002	9.94322E-004	4	..........a	-327.66
	987	197.6	-2.99891E-002	1.57640E-010	0.00000E+000	-3.00000E-002	9.76922E-004	4	..........a	-327.66
	988	197.8	-1.98890E-002	1.51296E-010	0.00000E+000	-2.00000E-002	1.00232E-003	4	..........a	-327.66
	989	198	-9.91416E-003	1.50839E-010	0.00000E+000	-1.00000E-002	9.69522E-004	4	..........a	-327.66
	990	198.2	5.52408E-005	1.54572E-010	0.00000E+000	7.45058E-009	1.00662E-003	4	..........a	-327.66
	991	198.4	1.00822E-002	1.54161E-010	0.00000E+000	1.00000E-002	9.81022E-004	4	..........a	-327.66
	992	198.6	2.00567E-002	1.50822E-010	0.00000E+000	2.00000E-002	1.00522E-003	4	..........a	-327.66
	993	198.8	3.00333E-002	1.46713E-010	0.00000E+000	3.00000E-002	1.01352E-003	4	..........a	-327.66
	994	199	3.97803E-002	1.50384E-010	0.00000E+000	4.00000E-002	1.01832E-003	4	..........a	-327.66
	995	199.2	5.00546E-002	1.44730E-010	0.00000E+000	5.00000E-002	9.94622E-004	4	..........a	-327.66
	996	199.4	6.00803E-002	1.44823E-010	0.00000E+000	6.00000E-002	9.99322E-004	4	..........a	-327.66
	997	199.6	6.99892E-002	1.44018E-010	0.00000E+000	7.00000E-002	9.84422E-004	4	..........a	-327.66
	998	199.8	8.00685E-002	1.43265E-010	0.00000E+000	8.00000E-002	9.84322E-004	4	..........a	-327.66
	999	200	9.01386E-002	1.46802E-010	0.00000E+000	9.00000E-002	9.81522E-004	4	..........a	-327.66
	1000	200.2	1.00015E-001	1.43454E-010	0.00000E+000	1.00000E-001	9.98422E-004	4	..........a	-327.66
	1001	200.4	1.10046E-001	1.43673E-010	0.00000E+000	1.10000E-001	9.98022E-004	4	..........a	-327.66
	1002	200.6	1.20063E-001	1.43594E-010	0.00000E+000	1.20000E-001	1.00952E-003	4	..........a	-327.66
	1003	200.8	1.30062E-001	1.44582E-010	0.00000E+000	1.30000E-001	9.73322E-004	4	..........a	-327.66
	1004	201	1.40102E-001	1.48107E-010	0.00000E+000	1.40000E-001	1.00712E-003	4	..........a	-327.66
	1005	201.2	1.49998E-001	1.47342E-010	0.00000E+000	1.50000E-001	9.94822E-004	4	..........a	-327.66
	1006	201.4	1.60076E-001	1.47615E-010	0.00000E+000	1.60000E-001	1.01082E-003	4	..........a	-327.66
	1007	201.6	1.70043E-001	1.48741E-010	0.00000E+000	1.70000E-001	9.99822E-004	4	..........a	-327.66
	1008	201.8	1.80125E-001	1.54430E-010	0.00000E+000	1.80000E-001	9.80922E-004	4	..........a	-327.66
	1009	202	1.90065E-001	1.57250E-010	0.00000E+000	1.90000E-001	1.01082E-003	4	..........a	-327.66
	1010	202.2	2.00109E-001	1.57766E-010	0.00000E+000	2.00000E-001	9.75922E-004	4	..........a	-327.66
	1011	202.4	2.10049E-001	1.53970E-010	0.00000E+000	2.10000E-001	9.98022E-004	4	..........a	-327.66
	1012	202.6	2.19848E-001	1.57298E-010	0.00000E+000	2.20000E-001	9.94122E-004	4	..........a	-327.66
	1013	202.8	2.29935E-001	1.59540E-010	0.00000E+000	2.30000E-001	1.02932E-003	4	..........a	-327.66
	1014	203	2.40067E-001	1.61899E-010	0.00000E+000	2.40000E-001	1.00392E-003	4	..........a	-327.66
	1015	203.2	2.50054E-001	1.62578E-010	0.00000E+000	2.50000E-001	9.85222E-004	4	..........a	-327.66
	1016	203.4	2.60001E-001	1.63487E-010	0.00000E+000	2.60000E-001	1.01232E-003	4	..........a	-327.66
	1017	203.6	2.70018E-001	1.66772E-010	0.00000E+000	2.70000E-001	9.92222E-004	4	..........a	-327.66
	1018	203.8	2.80018E-001	1.67631E-010	0.00000E+000	2.80000E-001	9.90222E-004	4	..........a	-327.66
	1019	204	2.90040E-001	1.69379E-010	0.00000E+000	2.90000E-001	9.87022E-004	4	..........a	-327.66
	1020	204.2	3.00007E-001	1.70732E-010	0.00000E+000	3.00000E-001	1.03082E-003	4	..........a	-327.66
	1021	204.4	3.09991E-001	1.72564E-010	0.00000E+000	3.10000E-001	1.01182E-003	4	..........a	-327.66
	1022	204.6	3.20035E-001	1.74099E-010	0.00000E+000	3.20000E-001	1.00132E-003	4	..........a	-327.66
	1023	204.8	3.30026E-001	1.75419E-010	0.00000E+000	3.30000E-001	9.86022E-004	4	..........a	-327.66
	1024	205	3.40073E-001	1.77483E-010	0.00000E+000	3.40000E-001	1.01262E-003	4	..........a	-327.66
	1025	205.2	3.49975E-001	1.78322E-010	0.00000E+000	3.50000E-001	9.91622E-004	4	..........a	-327.66
	1026	205.4	3.59991E-001	1.78851E-010	0.00000E+000	3.60000E-001	9.98522E-004	4	..........a	-327.66
	1027	205.6	3.70020E-001	1.79909E-010	0.00000E+000	3.70000E-001	9.79322E-004	4	..........a	-327.66
	1028	205.8	3.80045E-001	1.81847E-010	0.00000E+000	3.80000E-001	1.02092E-003	4	..........a	-327.66
	1029	206	3.89968E-001	1.83529E-010	0.00000E+000	3.90000E-001	9.92722E-004	4	..........a	-327.66
	1030	206.2	4.00006E-001	1.83069E-010	0.00000E+000	4.00000E-001	1.00772E-003	4	..........a	-327.66
	1031	206.4	4.09958E-001	1.84861E-010	0.00000E+000	4.10000E-001	9.90122E-004	4	..........a	-327.66
	1032	206.6	4.20045E-001	1.85160E-010	0.00000E+000	4.20000E-001	1.00122E-003	4	..........a	-327.66
	1033	206.8	4.29983E-001	1.85910E-010	0.00000E+000	4.30000E-001	1.00582E-003	4	..........a	-327.66
	1034	207	4.40004E-001	1.91246E-010	0.00000E+000	4.40000E-001	1.00322E-003	4	..........a	-327.66
	1035	207.2	4.49395E-001	1.86821E-010	0.00000E+000	4.50000E-001	9.79522E-004	4	..........a	-327.66
	1036	207.4	4.60048E-001	1.92539E-010	0.00000E+000	4.60000E-001	9.94322E-004	4	..........a	-327.66
	1037	207.6	4.69971E-001	1.90295E-010	0.00000E+000	4.70000E-001	1.00622E-003	4	..........a	-327.66
	1038	207.8	4.80001E-001	1.93264E-010	0.00000E+000	4.80000E-001	9.96322E-004	4	..........a	-327.66
	1039	208	4.89966E-001	1.93577E-010	0.00000E+000	4.90000E-001	9.80522E-004	4	..........a	-327.66
	1040	208.2	5.00012E-001	1.95676E-010	0.00000E+000	5.00000E-001	1.01802E-003	4	..........a	-327.66
	1041	208.4	5.09955E-001	1.97723E-010	0.00000E+000	5.10000E-001	1.00302E-003	4	..........a	-327.66
	1042	208.6	5.19996E-001	1.99483E-010	0.00000E+000	5.20000E-001	1.00642E-003	4	..........a	-327.66
	1043	208.8	5.30043E-001	2.01444E-010	0.00000E+000	5.30000E-001	9.82922E-004	4	..........a	-327.66
	1044	209	5.40028E-001	2.03985E-010	0.00000E+000	5.40000E-001	1.00452E-003	4	..........a	-327.66
	1045	209.2	5.49977E-001	2.06526E-010	0.00000E+000	5.50000E-001	9.91222E-004	4	..........a	-327.66
	1046	209.4	5.60003E-001	2.09498E-010	0.00000E+000	5.60000E-001	9.90022E-004	4	..........a	-327.66
	1047	209.6	5.69984E-001	2.13264E-010	0.00000E+000	5.70000E-001	9.80622E-004	4	..........a	-327.66
	1048	209.8	5.80049E-001	2.16923E-010	0.00000E+000	5.80000E-001	1.01672E-003	4	..........a	-327.66
	1049	210	5.90004E-001	2.18811E-010	0.00000E+000	5.90000E-001	9.92722E-004	4	..........a	-327.66
	1050	210.2	5.99977E-001	2.22278E-010	0.00000E+000	6.00000E-001	1.00882E-003	4	..........a	-327.66
	1051	210.4	6.10013E-001	2.27862E-010	0.00000E+000	6.10000E-001	9.89522E-004	4	..........a	-327.66
	1052	210.6	6.20000E-001	2.33438E-010	0.00000E+000	6.20000E-001	1.00222E-003	4	..........a	-327.66
	1053	210.8	6.29916E-001	2.38156E-010	0.00000E+000	6.30000E-001	9.87522E-004	4	..........a	-327.66
	1054	211	6.39859E-001	2.43746E-010	0.00000E+000	6.40000E-001	9.96422E-004	4	..........a	-327.66
	1055	211.2	6.49958E-001	2.50531E-010	0.00000E+000	6.50000E-001	9.95222E-004	4	..........a	-327.66
	1056	211.4	6.59918E-001	2.57264E-010	0.00000E+000	6.60000E-001	1.02302E-003	4	..........a	-327.66
	1057	211.6	6.69911E-001	2.64273E-010	0.00000E+000	6.70000E-001	1.00482E-003	4	..........a	-327.66
	1058	211.8	6.79950E-001	2.72030E-010	0.00000E+000	6.80000E-001	9.90022E-004	4	..........a	-327.66
	1059	212	6.89935E-001	2.81713E-010	0.00000E+000	6.90000E-001	1.00862E-003	4	..........a	-327.66
	1060	212.2	6.99994E-001	2.90762E-010	0.00000E+000	7.00000E-001	1.00072E-003	4	..........a	-327.66
	1061	212.4	7.09886E-001	3.00269E-010	0.00000E+000	7.10000E-001	9.93722E-004	4	..........a	-327.66
	1062	212.6	7.19883E-001	3.11985E-010	0.00000E+000	7.20000E-001	1.00482E-003	4	..........a	-327.66
	1063	212.8	7.30061E-001	3.24122E-010	0.00000E+000	7.30000E-001	9.92122E-004	4	..........a	-327.66
	1064	213	7.40004E-001	3.37649E-010	0.00000E+000	7.40000E-001	9.79222E-004	4	..........a	-327.66
	1065	213.2	7.49920E-001	3.52469E-010	0.00000E+000	7.50000E-001	1.00382E-003	4	..........a	-327.66
	1066	213.4	7.59916E-001	3.68789E-010	0.00000E+000	7.60000E-001	1.00482E-003	4	..........a	-327.66
	1067	213.6	7.69903E-001	3.86751E-010	0.00000E+000	7.70000E-001	9.74322E-004	4	..........a	-327.66
	1068	213.8	7.79972E-001	4.06451E-010	0.00000E+000	7.80000E-001	1.00502E-003	4	..........a	-327.66
	1069	214	7.89922E-001	4.27562E-010	0.00000E+000	7.90000E-001	1.01162E-003	4	..........a	-327.66
	1070	214.2	7.99921E-001	4.51076E-010	0.00000E+000	8.00000E-001	9.83622E-004	4	..........a	-327.66
CURVE5	TABLE
	Pt	T	Vf	Im	Vu	Sig	Ach	IERange	Over	Temp
	#	s	V vs. Ref.	A	V	V	V	#	bits	deg C
	1071	214.4	7.89902E-001	3.17696E-010	0.00000E+000	7.90000E-001	1.00642E-003	4	..........a	-327.66
	1072	214.6	7.79988E-001	2.35467E-010	0.00000E+000	7.80000E-001	1.00112E-003	4	..........a	-327.66
	1073	214.8	7.69888E-001	1.78946E-010	0.00000E+000	7.70000E-001	9.74022E-004	4	..........a	-327.66
	1074	215	7.59987E-001	1.36455E-010	0.00000E+000	7.60000E-001	1.00302E-003	4	..........a	-327.66
	1075	215.2	7.49970E-001	1.03402E-010	0.00000E+000	7.50000E-001	9.71822E-004	4	..........a	-327.66
	1076	215.4	7.40016E-001	7.63017E-011	0.00000E+000	7.40000E-001	1.02152E-003	4	..........a	-327.66
	1077	215.6	7.29964E-001	5.57039E-011	0.00000E+000	7.30000E-001	9.91822E-004	4	..........a	-327.66
	1078	215.8	7.19891E-001	3.76342E-011	0.00000E+000	7.20000E-001	9.85022E-004	4	..........a	-327.66
	1079	216	7.09949E-001	2.40237E-011	0.00000E+000	7.10000E-001	1.00532E-003	4	..........a	-327.66
	1080	216.2	6.99978E-001	1.16402E-011	0.00000E+000	7.00000E-001	1.00592E-003	4	..........a	-327.66
	1081	216.4	6.89853E-001	1.17184E-012	0.00000E+000	6.90000E-001	9.71422E-004	4	..........a	-327.66
	1082	216.6	6.79825E-001	-7.51349E-012	0.00000E+000	6.80000E-001	9.85922E-004	4	..........a	-327.66
	1083	216.8	6.69897E-001	-1.52558E-011	0.00000E+000	6.70000E-001	9.74422E-004	4	..........a	-327.66
	1084	217	6.60012E-001	-2.15230E-011	0.00000E+000	6.60000E-001	1.01712E-003	4	..........a	-327.66
	1085	217.2	6.49948E-001	-2.64942E-011	0.00000E+000	6.50000E-001	9.86222E-004	4	..........a	-327.66
	1086	217.4	6.39953E-001	-3.26525E-011	0.00000E+000	6.40000E-001	9.89622E-004	4	..........a	-327.66
	1087	217.6	6.29948E-001	-3.72356E-011	0.00000E+000	6.30000E-001	9.89222E-004	4	..........a	-327.66
	1088	217.8	6.19992E-001	-3.99287E-011	0.00000E+000	6.20000E-001	9.98622E-004	4	..........a	-327.66
	1089	218	6.09937E-001	-4.35579E-011	0.00000E+000	6.10000E-001	9.78922E-004	4	..........a	-327.66
	1090	218.2	5.99989E-001	-4.74920E-011	0.00000E+000	6.00000E-001	9.81322E-004	4	..........a	-327.66
	1091	218.4	5.89928E-001	-5.05871E-011	0.00000E+000	5.90000E-001	9.97822E-004	4	..........a	-327.66
	1092	218.6	5.80023E-001	-5.31482E-011	0.00000E+000	5.80000E-001	9.91922E-004	4	..........a	-327.66
	1093	218.8	5.69995E-001	-5.53863E-011	0.00000E+000	5.70000E-001	1.00322E-003	4	..........a	-327.66
	1094	219	5.59982E-001	-5.78534E-011	0.00000E+000	5.60000E-001	1.00342E-003	4	..........a	-327.66
	1095	219.2	5.49955E-001	-6.08595E-011	0.00000E+000	5.50000E-001	9.93722E-004	4	..........a	-327.66
	1096	219.4	5.40009E-001	-6.36006E-011	0.00000E+000	5.40000E-001	1.00372E-003	4	..........a	-327.66
	1097	219.6	5.29945E-001	-6.52697E-011	0.00000E+000	5.30000E-001	9.97922E-004	4	..........a	-327.66
	1098	219.8	5.19945E-001	-6.83408E-011	0.00000E+000	5.20000E-001	9.92122E-004	4	..........a	-327.66
	1099	220	5.09976E-001	-6.95259E-011	0.00000E+000	5.10000E-001	1.00372E-003	4	..........a	-327.66
	1100	220.2	5.00068E-001	-7.11899E-011	0.00000E+000	5.00000E-001	9.88822E-004	4	..........a	-327.66
	1101	220.4	4.89986E-001	-7.35390E-011	0.00000E+000	4.90000E-001	9.87422E-004	4	..........a	-327.66
	1102	220.6	4.79924E-001	-7.55071E-011	0.00000E+000	4.80000E-001	1.01152E-003	4	..........a	-327.66
	1103	220.8	4.69952E-001	-7.74392E-011	0.00000E+000	4.70000E-001	9.93822E-004	4	..........a	-327.66
	1104	221	4.60019E-001	-7.93302E-011	0.00000E+000	4.60000E-001	9.98522E-004	4	..........a	-327.66
	1105	221.2	4.49956E-001	-8.17243E-011	0.00000E+000	4.50000E-001	9.66622E-004	4	..........a	-327.66
	1106	221.4	4.39933E-001	-8.42304E-011	0.00000E+000	4.40000E-001	1.00022E-003	4	..........a	-327.66
	1107	221.6	4.29979E-001	-8.53865E-011	0.00000E+000	4.30000E-001	9.91722E-004	4	..........a	-327.66
	1108	221.8	4.20027E-001	-8.68605E-011	0.00000E+000	4.20000E-001	9.93122E-004	4	..........a	-327.66
	1109	222	4.09968E-001	-8.99957E-011	0.00000E+000	4.10000E-001	9.97622E-004	4	..........a	-327.66
	1110	222.2	4.00013E-001	-9.13597E-011	0.00000E+000	4.00000E-001	1.00282E-003	4	..........a	-327.66
	1111	222.4	3.89974E-001	-9.43178E-011	0.00000E+000	3.90000E-001	9.95322E-004	4	..........a	-327.66
	1112	222.6	3.80021E-001	-9.57129E-011	0.00000E+000	3.80000E-001	9.83522E-004	4	..........a	-327.66
	1113	222.8	3.70008E-001	-9.72559E-011	0.00000E+000	3.70000E-001	9.97222E-004	4	..........a	-327.66
	1114	223	3.60019E-001	-1.00127E-010	0.00000E+000	3.60000E-001	9.95122E-004	4	..........a	-327.66
	1115	223.2	3.50025E-001	-1.01750E-010	0.00000E+000	3.50000E-001	9.99822E-004	4	..........a	-327.66
	1116	223.4	3.40056E-001	-1.02406E-010	0.00000E+000	3.40000E-001	9.94022E-004	4	..........a	-327.66
	1117	223.6	3.30032E-001	-1.04325E-010	0.00000E+000	3.30000E-001	9.88822E-004	4	..........a	-327.66
	1118	223.8	3.20004E-001	-1.05846E-010	0.00000E+000	3.20000E-001	1.00132E-003	4	..........a	-327.66
	1119	224	3.09981E-001	-1.08159E-010	0.00000E+000	3.10000E-001	1.01202E-003	4	..........a	-327.66
	1120	224.2	3.00044E-001	-1.09458E-010	0.00000E+000	3.00000E-001	1.01992E-003	4	..........a	-327.66