File: data/raw/batch_data/20240424_ZB_GM0016_HL03_E07_CV50K.DTA
EXPLAIN
TAG	CV
TITLE	LABEL	Cyclic Voltammetry	Test &Identifier
DATE	LABEL	4/24/2024	Date
TIME	LABEL	18:19:13	Time
NOTES	NOTES	1	&Notes...

PSTAT	PSTAT	REF600P-43058	Potentiostat
VINIT	POTEN	0.00000E+000	T	Initial &E (V)
VLIMIT1	POTEN	-6.00000E-001	F	Scan Limit &1 (V)
VLIMIT2	POTEN	8.00000E-001	F	Scan Limit &2 (V)
VFINAL	POTEN	0.00000E+000	T	Final &E (V)
SCANRATE	QUANT	4.99999E+004	&Scan Rate (mV/s)
STEPSIZE	QUANT	1.00000E+001	St&ep Size (mV)
CYCLES	IQUANT	10	C&ycles (#)
IMODE	SELECTOR	0	I/E Range &Mode
IRANGE	QUANT	1.00000E-005	&Max Current (mA)
AREA	QUANT	1.00000E+000	Electrode &Area (cm^2)
ELECTRODETYPE	SELECTOR	0	Electrode Type
STRIPPING	TOGGLE	F	Used for Stripping
POLARITY	TOGGLE	F	Signal Polarity
CONDIT	TWOPARAM	F	1.50000E+001	0.00000E+000	Conditionin&g	Time(s)	E(V)
DELAY	TWOPARAM	T	1.00000E+001	0.00000E+000	Init. De&lay	Time(s)	Stab.(mV/s)
EQDELAY	QUANT	1.00000E+001	Equil. &Time (s)
IRCOMP	SELECTOR	0	IRCom&p
PFCOR	QUANT	5.00000E+001	PF Corr. (ohm)
SAMPLINGMODE	SELECTOR	1	Sampling &Mode
OCVCURVE	TABLE	39
	Pt	T	Vf	Vm	Ach	Over	Temp
	#	s	V vs. Ref.	V	V	bits	deg C
	0	0.258333	-2.69351E-002	-2.69351E-002	2.01992E-004	..........a	-327.66
	1	0.516667	-2.69386E-002	-2.71176E-002	1.99792E-004	..........a	-327.66
	2	0.775	-2.69602E-002	-2.73000E-002	2.01592E-004	..........a	-327.66
	3	1.03333	-2.70221E-002	-2.74877E-002	2.02592E-004	..........a	-327.66
	4	1.29167	-2.71352E-002	-2.76741E-002	2.02926E-004	..........a	-327.66
	5	1.55	-2.72899E-002	-2.78538E-002	2.05992E-004	..........a	-327.66
	6	1.80833	-2.74675E-002	-2.80313E-002	2.09792E-004	..........a	-327.66
	7	2.06667	-2.76523E-002	-2.82224E-002	2.00726E-004	..........a	-327.66
	8	2.325	-2.78375E-002	-2.84053E-002	2.00792E-004	..........a	-327.66
	9	2.58333	-2.80218E-002	-2.85839E-002	2.13992E-004	..........a	-327.66
	10	2.84167	-2.82055E-002	-2.87635E-002	2.02526E-004	..........a	-327.66
	11	3.1	-2.83883E-002	-2.89462E-002	2.03326E-004	..........a	-327.66
	12	3.35833	-2.85698E-002	-2.91236E-002	2.01326E-004	..........a	-327.66
	13	3.61667	-2.87501E-002	-2.92863E-002	2.07392E-004	..........a	-327.66
	14	3.875	-2.89285E-002	-2.94682E-002	2.15659E-004	..........a	-327.66
	15	4.13333	-2.91044E-002	-2.96352E-002	1.97392E-004	..........a	-327.66
	16	4.39167	-2.92783E-002	-2.98096E-002	2.00392E-004	..........a	-327.66
	17	4.65	-2.94511E-002	-2.99790E-002	1.98459E-004	..........a	-327.66
	18	4.90833	-2.96232E-002	-3.01464E-002	2.00326E-004	..........a	-327.66
	19	5.16667	-2.97944E-002	-3.03143E-002	2.02659E-004	..........a	-327.66
	20	5.425	-2.99643E-002	-3.04791E-002	1.98792E-004	..........a	-327.66
	21	5.68333	-3.01328E-002	-3.06451E-002	2.09792E-004	..........a	-327.66
	22	5.94167	-3.03002E-002	-3.08136E-002	2.12659E-004	..........a	-327.66
	23	6.2	-3.04668E-002	-3.09781E-002	2.08192E-004	..........a	-327.66
	24	6.45833	-3.06330E-002	-3.11399E-002	2.15859E-004	..........a	-327.66
	25	6.71667	-3.07988E-002	-3.13017E-002	2.17126E-004	..........a	-327.66
	26	6.975	-3.09634E-002	-3.14609E-002	2.16326E-004	..........a	-327.66
	27	7.23333	-3.11265E-002	-3.16238E-002	2.15126E-004	..........a	-327.66
	28	7.49167	-3.12883E-002	-3.17797E-002	2.09459E-004	..........a	-327.66
	29	7.75	-3.14493E-002	-3.19509E-002	2.00859E-004	..........a	-327.66
	30	8.00833	-3.16103E-002	-3.21088E-002	2.11392E-004	..........a	-327.66
	31	8.26667	-3.17719E-002	-3.22608E-002	2.06526E-004	..........a	-327.66
	32	8.525	-3.19331E-002	-3.24183E-002	2.15392E-004	..........a	-327.66
	33	8.78333	-3.20924E-002	-3.25711E-002	2.08392E-004	..........a	-327.66
	34	9.04167	-3.22495E-002	-3.27250E-002	2.01392E-004	..........a	-327.66
	35	9.3	-3.24048E-002	-3.28736E-002	1.92726E-004	..........a	-327.66
	36	9.5583	-3.25586E-002	-3.30210E-002	1.94459E-004	..........a	-327.66
	37	9.8167	-3.27104E-002	-3.31589E-002	2.01459E-004	..........a	-327.66
	38	10.075	-3.28595E-002	-3.33033E-002	2.07859E-004	..........a	-327.66
EOC	QUANT	-0.0328595	Open Circuit (V)
PSTATMODEL	IQUANT	7	Pstat Model
PSTATSECTION	LABEL	REF600P-43058	Pstat Section
PSTATSERIALNO	LABEL	43058	Pstat Serial Number
CTRLMODE	IQUANT	1	Control Mode
ELECTROMETER	IQUANT	0	RE=0 or CS=1
IESTAB	IQUANT	2	I/E Stability
CASPEED	IQUANT	4	Control Amp Speed
CONVENTION	IQUANT	1	Current Convention
ICHRANGE	IQUANT	2	Ich Range
ICHRANGEMODE	TOGGLE	F	Ich Auto Range
ICHOFFSETENABLE	TOGGLE	F	Ich Offset Enable
ICHOFFSET	QUANT	0	Ich Offset (V)
ICHFILTER	IQUANT	1	Ich Filter
VCHRANGE	IQUANT	2	Vch Range
VCHRANGEMODE	TOGGLE	F	Vch Auto Range
VCHOFFSETENABLE	TOGGLE	F	Vch Offset Enable
VCHOFFSET	QUANT	0	Vch Offset (V)
VCHFILTER	IQUANT	1	Vch Filter
ACHRANGE	IQUANT	2	Ach Range
ACHOFFSETENABLE	TOGGLE	F	Ach Offset Enable
ACHOFFSET	QUANT	0	Ach Offset (V)
ACHFILTER	IQUANT	1	Ach Filter
IERANGELOWERLIMIT	IQUANT	1	I/E Range Lower Limit
IERANGEMODE	TOGGLE	T	I/E AutoRange
IERANGE	IQUANT	4	I/E Range
POSFEEDENABLE	TOGGLE	F	Positive Feedback IR Comp
POSFEEDRESISTANCE	QUANT	0	Positive Feedback Resistance (ohm)
ACHSELECT	IQUANT	4	Ach Select
SENSECABLEID	IQUANT	7	Sense Cable ID
PWRCABLEID	IQUANT	7	Power Cable ID
DCCALDATE	LABEL	3/22/2024	DC Calibration Date
ACCALDATE	LABEL	3/22/2024	AC Calibration Date
THERMOSELECT	IQUANT	1	Thermo Select
FRAMEWORKVERSION	LABEL	7.8.4	Framework Version
INSTRUMENTVERSION	LABEL	4.42	Instrument Version
CURVE1	TABLE
	Pt	T	Vf	Im	Vu	Sig	Ach	IERange	Over	Temp
	#	s	V vs. Ref.	A	V	V	V	#	bits	deg C
	0	0.0002	-3.27529E-002	2.35001E-007	0.00000E+000	-3.28500E-002	8.15923E-005	8	..........a	-327.66
	1	0.0004	-4.27529E-002	-7.95038E-007	0.00000E+000	-4.28500E-002	8.15923E-005	8	..........a	-327.66
	2	0.0006	-5.27529E-002	-1.48506E-006	0.00000E+000	-5.28500E-002	8.15923E-005	8	..........a	-327.66
	3	0.0008	-6.28529E-002	-2.05509E-006	0.00000E+000	-6.28500E-002	8.15923E-005	8	..........a	-327.66
	4	0.001	-7.28529E-002	-2.59511E-006	0.00000E+000	-7.28500E-002	8.15923E-005	8	..........a	-327.66
	5	0.0012	-8.27529E-002	-2.99512E-006	0.00000E+000	-8.28500E-002	8.15923E-005	8	..........a	-327.66
	6	0.0014	-9.27529E-002	-3.31514E-006	0.00000E+000	-9.28500E-002	8.15923E-005	8	..........a	-327.66
	7	0.0016	-1.02753E-001	-3.64515E-006	0.00000E+000	-1.02850E-001	8.15923E-005	8	..........a	-327.66
	8	0.0018	-1.12853E-001	-3.96516E-006	0.00000E+000	-1.12850E-001	8.15923E-005	8	..........a	-327.66
	9	0.002	-1.22853E-001	-4.21517E-006	0.00000E+000	-1.22850E-001	8.15923E-005	8	..........a	-327.66
	10	0.0022	-1.32653E-001	-4.43518E-006	0.00000E+000	-1.32850E-001	8.15923E-005	8	..........a	-327.66
	11	0.0024	-1.42853E-001	-4.59518E-006	0.00000E+000	-1.42850E-001	8.15923E-005	8	..........a	-327.66
	12	0.0026	-1.52853E-001	-4.80519E-006	0.00000E+000	-1.52850E-001	8.15923E-005	8	..........a	-327.66
	13	0.0028	-1.62753E-001	-5.04520E-006	0.00000E+000	-1.62850E-001	8.15923E-005	8	..........a	-327.66
	14	0.003	-1.72853E-001	-5.18521E-006	0.00000E+000	-1.72850E-001	8.15923E-005	8	..........a	-327.66
	15	0.0032	-1.82853E-001	-5.31521E-006	0.00000E+000	-1.82850E-001	8.15923E-005	8	..........a	-327.66
	16	0.0034	-1.92653E-001	-5.49522E-006	0.00000E+000	-1.92850E-001	8.15923E-005	8	..........a	-327.66
	17	0.0036	-2.02753E-001	-5.57522E-006	0.00000E+000	-2.02850E-001	8.15923E-005	8	..........a	-327.66
	18	0.0038	-2.12753E-001	-5.73523E-006	0.00000E+000	-2.12850E-001	8.15923E-005	8	..........a	-327.66
	19	0.004	-2.22753E-001	-5.87523E-006	0.00000E+000	-2.22850E-001	8.15923E-005	8	..........a	-327.66
	20	0.0042	-2.32653E-001	-5.99524E-006	0.00000E+000	-2.32850E-001	8.15923E-005	8	..........a	-327.66
	21	0.0044	-2.42853E-001	-6.09524E-006	0.00000E+000	-2.42850E-001	8.15923E-005	8	..........a	-327.66
	22	0.0046	-2.52853E-001	-6.20525E-006	0.00000E+000	-2.52850E-001	8.15923E-005	8	..........a	-327.66
	23	0.0048	-2.62853E-001	-6.34525E-006	0.00000E+000	-2.62850E-001	-1.18408E-004	8	..........a	-327.66
	24	0.005	-2.72753E-001	-6.43525E-006	0.00000E+000	-2.72850E-001	8.15923E-005	8	..........a	-327.66
	25	0.0052	-2.82753E-001	-6.57526E-006	0.00000E+000	-2.82850E-001	8.15923E-005	8	..........a	-327.66
	26	0.0054	-2.92653E-001	-6.68526E-006	0.00000E+000	-2.92850E-001	8.15923E-005	8	..........a	-327.66
	27	0.0056	-3.02753E-001	-6.82527E-006	0.00000E+000	-3.02850E-001	8.15923E-005	8	..........a	-327.66
	28	0.0058	-3.12853E-001	-6.88527E-006	0.00000E+000	-3.12850E-001	-3.18408E-004	8	..........a	-327.66
	29	0.006	-3.22853E-001	-7.01528E-006	0.00000E+000	-3.22850E-001	8.15923E-005	8	..........a	-327.66
	30	0.0062	-3.32853E-001	-7.14528E-006	0.00000E+000	-3.32850E-001	8.15923E-005	8	..........a	-327.66
	31	0.0064	-3.42953E-001	-7.29529E-006	0.00000E+000	-3.42850E-001	8.15923E-005	8	..........a	-327.66
	32	0.0066	-3.52753E-001	-7.41529E-006	0.00000E+000	-3.52850E-001	8.15923E-005	8	..........a	-327.66
	33	0.0068	-3.62753E-001	-7.55530E-006	0.00000E+000	-3.62850E-001	8.15923E-005	8	..........a	-327.66
	34	0.007	-3.72853E-001	-7.69530E-006	0.00000E+000	-3.72850E-001	8.15923E-005	8	..........a	-327.66
	35	0.0072	-3.82753E-001	-7.83531E-006	0.00000E+000	-3.82850E-001	8.15923E-005	8	..........a	-327.66
	36	0.0074	-3.92753E-001	-7.97531E-006	0.00000E+000	-3.92850E-001	8.15923E-005	8	..........a	-327.66
	37	0.0076	-4.02953E-001	-8.11532E-006	0.00000E+000	-4.02850E-001	8.15923E-005	8	..........a	-327.66
	38	0.0078	-4.12653E-001	-8.20532E-006	0.00000E+000	-4.12850E-001	8.15923E-005	8	..........a	-327.66
	39	0.008	-4.22803E-001	-8.35533E-006	0.00000E+000	-4.22850E-001	8.15923E-005	8	..........a	-327.66
	40	0.0082	-4.32753E-001	-8.51533E-006	0.00000E+000	-4.32850E-001	8.15923E-005	8	..........a	-327.66
	41	0.0084	-4.42853E-001	-8.60534E-006	0.00000E+000	-4.42850E-001	8.15923E-005	8	..........a	-327.66
	42	0.0086	-4.52753E-001	-8.73534E-006	0.00000E+000	-4.52850E-001	8.15923E-005	8	..........a	-327.66
	43	0.0088	-4.62853E-001	-8.94535E-006	0.00000E+000	-4.62850E-001	8.15923E-005	8	..........a	-327.66
	44	0.009	-4.72853E-001	-9.11536E-006	0.00000E+000	-4.72850E-001	8.15923E-005	8	..........a	-327.66
	45	0.0092	-4.82853E-001	-9.25536E-006	0.00000E+000	-4.82850E-001	8.15923E-005	8	..........a	-327.66
	46	0.0094	-4.92553E-001	-9.39537E-006	0.00000E+000	-4.92850E-001	8.15923E-005	8	..........a	-327.66
	47	0.0096	-5.02653E-001	-9.55537E-006	0.00000E+000	-5.02850E-001	8.15923E-005	8	..........a	-327.66
	48	0.0098	-5.12953E-001	-9.73538E-006	0.00000E+000	-5.12850E-001	-3.18408E-004	8	..........a	-327.66
	49	0.01	-5.22753E-001	-9.85538E-006	0.00000E+000	-5.22850E-001	8.15923E-005	8	..........a	-327.66
	50	0.0102	-5.32753E-001	-1.00354E-005	0.00000E+000	-5.32850E-001	8.15923E-005	8	..........a	-327.66
	51	0.0104	-5.42753E-001	-1.01954E-005	0.00000E+000	-5.42850E-001	8.15923E-005	8	..........a	-327.66
	52	0.0106	-5.52753E-001	-1.03254E-005	0.00000E+000	-5.52850E-001	-3.18408E-004	8	..........a	-327.66
	53	0.0108	-5.62653E-001	-1.04854E-005	0.00000E+000	-5.62850E-001	8.15923E-005	8	..........a	-327.66
	54	0.011	-5.72553E-001	-1.06754E-005	0.00000E+000	-5.72850E-001	-2.18408E-004	8	..........a	-327.66
	55	0.0112	-5.82853E-001	-1.08654E-005	0.00000E+000	-5.82850E-001	8.15923E-005	8	..........a	-327.66
	56	0.0114	-5.92753E-001	-1.09954E-005	0.00000E+000	-5.92850E-001	-3.18408E-004	8	..........a	-327.66
	57	0.0116	-6.02753E-001	-1.11154E-005	0.00000E+000	-6.02850E-001	8.15923E-005	8	..........a	-327.66
	58	0.0118	-5.92753E-001	-9.19536E-006	0.00000E+000	-5.92850E-001	8.15923E-005	8	..........a	-327.66
	59	0.012	-5.82803E-001	-7.69530E-006	0.00000E+000	-5.82850E-001	8.15923E-005	8	..........a	-327.66
	60	0.0122	-5.72753E-001	-6.48526E-006	0.00000E+000	-5.72850E-001	8.15923E-005	8	..........a	-327.66
	61	0.0124	-5.62853E-001	-5.44522E-006	0.00000E+000	-5.62850E-001	-3.18408E-004	8	..........a	-327.66
	62	0.0126	-5.52853E-001	-4.49518E-006	0.00000E+000	-5.52850E-001	8.15923E-005	8	..........a	-327.66
	63	0.0128	-5.42753E-001	-3.61515E-006	0.00000E+000	-5.42850E-001	8.15923E-005	8	..........a	-327.66
	64	0.013	-5.32753E-001	-2.93512E-006	0.00000E+000	-5.32850E-001	8.15923E-005	8	..........a	-327.66
	65	0.0132	-5.22753E-001	-2.17509E-006	0.00000E+000	-5.22850E-001	8.15923E-005	8	..........a	-327.66
	66	0.0134	-5.12753E-001	-1.60507E-006	0.00000E+000	-5.12850E-001	-3.18408E-004	8	..........a	-327.66
	67	0.0136	-5.02753E-001	-1.01505E-006	0.00000E+000	-5.02850E-001	8.15923E-005	8	..........a	-327.66
	68	0.0138	-4.92753E-001	-4.75026E-007	0.00000E+000	-4.92850E-001	8.15923E-005	8	..........a	-327.66
	69	0.014	-4.82853E-001	5.49941E-008	0.00000E+000	-4.82850E-001	8.15923E-005	8	..........a	-327.66
	70	0.0142	-4.72853E-001	4.35009E-007	0.00000E+000	-4.72850E-001	8.15923E-005	8	..........a	-327.66
	71	0.0144	-4.62653E-001	9.05027E-007	0.00000E+000	-4.62850E-001	8.15923E-005	8	..........a	-327.66
	72	0.0146	-4.52853E-001	1.32504E-006	0.00000E+000	-4.52850E-001	8.15923E-005	8	..........a	-327.66
	73	0.0148	-4.42753E-001	1.67506E-006	0.00000E+000	-4.42850E-001	8.15923E-005	8	..........a	-327.66
	74	0.015	-4.32653E-001	2.02507E-006	0.00000E+000	-4.32850E-001	8.15923E-005	8	..........a	-327.66
	75	0.0152	-4.22753E-001	2.34508E-006	0.00000E+000	-4.22850E-001	8.15923E-005	8	..........a	-327.66
	76	0.0154	-4.13053E-001	2.63509E-006	0.00000E+000	-4.12850E-001	8.15923E-005	8	..........a	-327.66
	77	0.0156	-4.02753E-001	2.89510E-006	0.00000E+000	-4.02850E-001	8.15923E-005	8	..........a	-327.66
	78	0.0158	-3.92603E-001	3.22512E-006	0.00000E+000	-3.92850E-001	8.15923E-005	8	..........a	-327.66
	79	0.016	-3.82853E-001	3.47512E-006	0.00000E+000	-3.82850E-001	8.15923E-005	8	..........a	-327.66
	80	0.0162	-3.72853E-001	3.67513E-006	0.00000E+000	-3.72850E-001	8.15923E-005	8	..........a	-327.66
	81	0.0164	-3.62753E-001	3.89514E-006	0.00000E+000	-3.62850E-001	8.15923E-005	8	..........a	-327.66
	82	0.0166	-3.52653E-001	4.10515E-006	0.00000E+000	-3.52850E-001	8.15923E-005	8	..........a	-327.66
	83	0.0168	-3.42953E-001	4.35516E-006	0.00000E+000	-3.42850E-001	8.15923E-005	8	..........a	-327.66
	84	0.017	-3.32953E-001	4.52517E-006	0.00000E+000	-3.32850E-001	8.15923E-005	8	..........a	-327.66
	85	0.0172	-3.22853E-001	4.68517E-006	0.00000E+000	-3.22850E-001	8.15923E-005	8	..........a	-327.66
	86	0.0174	-3.12903E-001	4.84518E-006	0.00000E+000	-3.12850E-001	8.15923E-005	8	..........a	-327.66
	87	0.0176	-3.02953E-001	5.05519E-006	0.00000E+000	-3.02850E-001	8.15923E-005	8	..........a	-327.66
	88	0.0178	-2.92953E-001	5.17519E-006	0.00000E+000	-2.92850E-001	8.15923E-005	8	..........a	-327.66
	89	0.018	-2.82903E-001	5.37520E-006	0.00000E+000	-2.82850E-001	8.15923E-005	8	..........a	-327.66
	90	0.0182	-2.72753E-001	5.51520E-006	0.00000E+000	-2.72850E-001	8.15923E-005	8	..........a	-327.66
	91	0.0184	-2.62853E-001	5.60521E-006	0.00000E+000	-2.62850E-001	-2.18408E-004	8	..........a	-327.66
	92	0.0186	-2.52753E-001	5.76521E-006	0.00000E+000	-2.52850E-001	8.15923E-005	8	..........a	-327.66
	93	0.0188	-2.42953E-001	5.88522E-006	0.00000E+000	-2.42850E-001	8.15923E-005	8	..........a	-327.66
	94	0.019	-2.32853E-001	6.01522E-006	0.00000E+000	-2.32850E-001	8.15923E-005	8	..........a	-327.66
	95	0.0192	-2.22853E-001	6.11523E-006	0.00000E+000	-2.22850E-001	8.15923E-005	8	..........a	-327.66
	96	0.0194	-2.12753E-001	6.24523E-006	0.00000E+000	-2.12850E-001	8.15923E-005	8	..........a	-327.66
	97	0.0196	-2.02953E-001	6.35524E-006	0.00000E+000	-2.02850E-001	8.15923E-005	8	..........a	-327.66
	98	0.0198	-1.92853E-001	6.49524E-006	0.00000E+000	-1.92850E-001	8.15923E-005	8	..........a	-327.66
	99	0.02	-1.82953E-001	6.61525E-006	0.00000E+000	-1.82850E-001	8.15923E-005	8	..........a	-327.66
	100	0.0202	-1.72753E-001	6.66525E-006	0.00000E+000	-1.72850E-001	8.15923E-005	8	..........a	-327.66
	101	0.0204	-1.62853E-001	6.77525E-006	0.00000E+000	-1.62850E-001	8.15923E-005	8	..........a	-327.66
	102	0.0206	-1.52953E-001	6.84525E-006	0.00000E+000	-1.52850E-001	8.15923E-005	8	..........a	-327.66
	103	0.0208	-1.42853E-001	6.97526E-006	0.00000E+000	-1.42850E-001	8.15923E-005	8	..........a	-327.66
	104	0.021	-1.32853E-001	7.06526E-006	0.00000E+000	-1.32850E-001	8.15923E-005	8	..........a	-327.66
	105	0.0212	-1.22953E-001	7.16527E-006	0.00000E+000	-1.22850E-001	8.15923E-005	8	..........a	-327.66
	106	0.0214	-1.13153E-001	7.24527E-006	0.00000E+000	-1.12850E-001	8.15923E-005	8	..........a	-327.66
	107	0.0216	-1.02853E-001	7.30527E-006	0.00000E+000	-1.02850E-001	8.15923E-005	8	..........a	-327.66
	108	0.0218	-9.29529E-002	7.40528E-006	0.00000E+000	-9.28500E-002	8.15923E-005	8	..........a	-327.66
	109	0.022	-8.28529E-002	7.51528E-006	0.00000E+000	-8.28500E-002	8.15923E-005	8	..........a	-327.66
	110	0.0222	-7.30029E-002	7.61528E-006	0.00000E+000	-7.28500E-002	8.15923E-005	8	..........a	-327.66
	111	0.0224	-6.31029E-002	7.68529E-006	0.00000E+000	-6.28500E-002	8.15923E-005	8	..........a	-327.66
	112	0.0226	-5.30029E-002	7.79529E-006	0.00000E+000	-5.28500E-002	8.15923E-005	8	..........a	-327.66
	113	0.0228	-4.28529E-002	7.84529E-006	0.00000E+000	-4.28500E-002	8.15923E-005	8	..........a	-327.66
	114	0.023	-3.27529E-002	7.95530E-006	0.00000E+000	-3.28500E-002	-3.18408E-004	8	..........a	-327.66
	115	0.0232	-2.28529E-002	8.02530E-006	0.00000E+000	-2.28500E-002	8.15923E-005	8	..........a	-327.66
	116	0.0234	-1.26529E-002	8.10530E-006	0.00000E+000	-1.28500E-002	8.15923E-005	8	..........a	-327.66
	117	0.0236	-2.85289E-003	8.23531E-006	0.00000E+000	-2.85000E-003	8.15923E-005	8	..........a	-327.66
	118	0.0238	7.14711E-003	8.27531E-006	0.00000E+000	7.15000E-003	8.15923E-005	8	..........a	-327.66
	119	0.024	1.70971E-002	8.41531E-006	0.00000E+000	1.71500E-002	8.15923E-005	8	..........a	-327.66
	120	0.0242	2.72471E-002	8.45532E-006	0.00000E+000	2.71500E-002	8.15923E-005	8	..........a	-327.66
	121	0.0244	3.72471E-002	8.58532E-006	0.00000E+000	3.71500E-002	8.15923E-005	8	..........a	-327.66
	122	0.0246	4.71471E-002	8.69533E-006	0.00000E+000	4.71500E-002	8.15923E-005	8	..........a	-327.66
	123	0.0248	5.71971E-002	8.76533E-006	0.00000E+000	5.71500E-002	-2.18408E-004	8	..........a	-327.66
	124	0.025	6.68471E-002	8.87533E-006	0.00000E+000	6.71500E-002	-3.18408E-004	8	..........a	-327.66
	125	0.0252	7.70471E-002	8.98534E-006	0.00000E+000	7.71500E-002	-1.18408E-004	8	..........a	-327.66
	126	0.0254	8.71471E-002	9.14534E-006	0.00000E+000	8.71500E-002	-2.18408E-004	8	..........a	-327.66
	127	0.0256	9.70471E-002	9.24535E-006	0.00000E+000	9.71500E-002	-4.18408E-004	8	..........a	-327.66
	128	0.0258	1.07047E-001	9.34535E-006	0.00000E+000	1.07150E-001	-1.18408E-004	8	..........a	-327.66
	129	0.026	1.17147E-001	9.47536E-006	0.00000E+000	1.17150E-001	8.15923E-005	8	..........a	-327.66
	130	0.0262	1.27447E-001	9.58536E-006	0.00000E+000	1.27150E-001	8.15923E-005	8	..........a	-327.66
	131	0.0264	1.37247E-001	9.71536E-006	0.00000E+000	1.37150E-001	8.15923E-005	8	..........a	-327.66
	132	0.0266	1.47347E-001	9.92537E-006	0.00000E+000	1.47150E-001	8.15923E-005	8	..........a	-327.66
	133	0.0268	1.57047E-001	1.00254E-005	0.00000E+000	1.57150E-001	-2.18408E-004	8	..........a	-327.66
	134	0.027	1.67447E-001	1.03054E-005	0.00000E+000	1.67150E-001	8.15923E-005	8	..........a	-327.66
	135	0.0272	1.77147E-001	1.05254E-005	0.00000E+000	1.77150E-001	8.15923E-005	8	..........a	-327.66
	136	0.0274	1.87247E-001	1.06054E-005	0.00000E+000	1.87150E-001	-3.18408E-004	8	..........a	-327.66
	137	0.0276	1.97247E-001	1.07154E-005	0.00000E+000	1.97150E-001	8.15923E-005	8	..........a	-327.66
	138	0.0278	2.07147E-001	1.08954E-005	0.00000E+000	2.07150E-001	8.15923E-005	8	..........a	-327.66
	139	0.028	2.17247E-001	1.10554E-005	0.00000E+000	2.17150E-001	8.15923E-005	8	..........a	-327.66
	140	0.0282	2.27297E-001	1.11554E-005	0.00000E+000	2.27150E-001	8.15923E-005	8	..........a	-327.66
	141	0.0284	2.37047E-001	1.13454E-005	0.00000E+000	2.37150E-001	8.15923E-005	8	..........a	-327.66
	142	0.0286	2.47197E-001	1.15054E-005	0.00000E+000	2.47150E-001	8.15923E-005	8	..........a	-327.66
	143	0.0288	2.57047E-001	1.16854E-005	0.00000E+000	2.57150E-001	8.15923E-005	8	..........a	-327.66
	144	0.029	2.67247E-001	1.19154E-005	0.00000E+000	2.67150E-001	8.15923E-005	8	..........a	-327.66
	145	0.0292	2.77247E-001	1.21155E-005	0.00000E+000	2.77150E-001	-3.18408E-004	8	..........a	-327.66
	146	0.0294	2.87247E-001	1.23655E-005	0.00000E+000	2.87150E-001	8.15923E-005	8	..........a	-327.66
	147	0.0296	2.96997E-001	1.25355E-005	0.00000E+000	2.97150E-001	8.15923E-005	8	..........a	-327.66
	148	0.0298	3.06947E-001	1.27555E-005	0.00000E+000	3.07150E-001	8.15923E-005	8	..........a	-327.66
	149	0.03	3.17097E-001	1.29855E-005	0.00000E+000	3.17150E-001	8.15923E-005	8	..........a	-327.66
	150	0.0302	3.27147E-001	1.31955E-005	0.00000E+000	3.27150E-001	8.15923E-005	8	..........a	-327.66
	151	0.0304	3.37047E-001	1.33955E-005	0.00000E+000	3.37150E-001	8.15923E-005	8	..........a	-327.66
	152	0.0306	3.47147E-001	1.35755E-005	0.00000E+000	3.47150E-001	-3.18408E-004	8	..........a	-327.66
	153	0.0308	3.57147E-001	1.37555E-005	0.00000E+000	3.57150E-001	-3.18408E-004	8	..........a	-327.66
	154	0.031	3.67047E-001	1.39355E-005	0.00000E+000	3.67150E-001	8.15923E-005	8	..........a	-327.66
	155	0.0312	3.76997E-001	1.41655E-005	0.00000E+000	3.77150E-001	8.15923E-005	8	..........a	-327.66
	156	0.0314	3.87047E-001	1.42955E-005	0.00000E+000	3.87150E-001	8.15923E-005	8	..........a	-327.66
	157	0.0316	3.97047E-001	1.45055E-005	0.00000E+000	3.97150E-001	8.15923E-005	8	..........a	-327.66
	158	0.0318	4.06947E-001	1.46656E-005	0.00000E+000	4.07150E-001	8.15923E-005	8	..........a	-327.66
	159	0.032	4.17247E-001	1.48656E-005	0.00000E+000	4.17150E-001	8.15923E-005	8	..........a	-327.66
	160	0.0322	4.27197E-001	1.50756E-005	0.00000E+000	4.27150E-001	8.15923E-005	8	..........a	-327.66
	161	0.0324	4.36847E-001	1.52456E-005	0.00000E+000	4.37150E-001	8.15923E-005	8	..........a	-327.66
	162	0.0326	4.47247E-001	1.54756E-005	0.00000E+000	4.47150E-001	-4.18408E-004	8	..........a	-327.66
	163	0.0328	4.57147E-001	1.57056E-005	0.00000E+000	4.57150E-001	-2.18408E-004	8	..........a	-327.66
	164	0.033	4.67047E-001	1.58056E-005	0.00000E+000	4.67150E-001	-2.18408E-004	8	..........a	-327.66
	165	0.0332	4.77147E-001	1.59356E-005	0.00000E+000	4.77150E-001	8.15923E-005	8	..........a	-327.66
	166	0.0334	4.87097E-001	1.61156E-005	0.00000E+000	4.87150E-001	8.15923E-005	8	..........a	-327.66
	167	0.0336	4.97147E-001	1.62256E-005	0.00000E+000	4.97150E-001	-3.18408E-004	8	..........a	-327.66
	168	0.0338	5.07147E-001	1.64156E-005	0.00000E+000	5.07150E-001	8.15923E-005	8	..........a	-327.66
	169	0.034	5.17047E-001	1.65456E-005	0.00000E+000	5.17150E-001	8.15923E-005	8	..........a	-327.66
	170	0.0342	5.26847E-001	1.67256E-005	0.00000E+000	5.27150E-001	-4.18408E-004	8	..........a	-327.66
	171	0.0344	5.37047E-001	1.68456E-005	0.00000E+000	5.37150E-001	-3.18408E-004	8	..........a	-327.66
	172	0.0346	5.47247E-001	1.70056E-005	0.00000E+000	5.47150E-001	8.15923E-005	8	..........a	-327.66
	173	0.0348	5.57147E-001	1.71456E-005	0.00000E+000	5.57150E-001	8.15923E-005	8	..........a	-327.66
	174	0.035	5.67047E-001	1.72757E-005	0.00000E+000	5.67150E-001	-3.18408E-004	8	..........a	-327.66
	175	0.0352	5.77147E-001	1.73557E-005	0.00000E+000	5.77150E-001	8.15923E-005	8	..........a	-327.66
	176	0.0354	5.87047E-001	1.74857E-005	0.00000E+000	5.87150E-001	-2.18408E-004	8	..........a	-327.66
	177	0.0356	5.97047E-001	1.76457E-005	0.00000E+000	5.97150E-001	8.15923E-005	8	..........a	-327.66
	178	0.0358	6.06997E-001	1.77957E-005	0.00000E+000	6.07150E-001	8.15923E-005	8	..........a	-327.66
	179	0.036	6.17097E-001	1.79057E-005	0.00000E+000	6.17150E-001	-2.18408E-004	8	..........a	-327.66
	180	0.0362	6.26947E-001	1.79857E-005	0.00000E+000	6.27150E-001	8.15923E-005	8	..........a	-327.66
	181	0.0364	6.37047E-001	1.81157E-005	0.00000E+000	6.37150E-001	8.15923E-005	8	..........a	-327.66
	182	0.0366	6.47147E-001	1.81857E-005	0.00000E+000	6.47150E-001	8.15923E-005	8	..........a	-327.66
	183	0.0368	6.57147E-001	1.83157E-005	0.00000E+000	6.57150E-001	8.15923E-005	8	..........a	-327.66
	184	0.037	6.67147E-001	1.84257E-005	0.00000E+000	6.67150E-001	8.15923E-005	8	..........a	-327.66
	185	0.0372	6.77047E-001	1.85157E-005	0.00000E+000	6.77150E-001	8.15923E-005	8	..........a	-327.66
	186	0.0374	6.87147E-001	1.86457E-005	0.00000E+000	6.87150E-001	8.15923E-005	8	..........a	-327.66
	187	0.0376	6.97147E-001	1.87757E-005	0.00000E+000	6.97150E-001	8.15923E-005	8	..........a	-327.66
	188	0.0378	7.07247E-001	1.88657E-005	0.00000E+000	7.07150E-001	8.15923E-005	8	..........a	-327.66
	189	0.038	7.17047E-001	1.89557E-005	0.00000E+000	7.17150E-001	8.15923E-005	8	..........a	-327.66
	190	0.0382	7.27147E-001	1.91357E-005	0.00000E+000	7.27150E-001	8.15923E-005	8	..........a	-327.66
	191	0.0384	7.37147E-001	1.91957E-005	0.00000E+000	7.37150E-001	8.15923E-005	8	..........a	-327.66
	192	0.0386	7.47147E-001	1.92857E-005	0.00000E+000	7.47150E-001	8.15923E-005	8	..........a	-327.66
	193	0.0388	7.57147E-001	1.93857E-005	0.00000E+000	7.57150E-001	8.15923E-005	8	..........a	-327.66
	194	0.039	7.67247E-001	1.95057E-005	0.00000E+000	7.67150E-001	8.15923E-005	8	..........a	-327.66
	195	0.0392	7.76847E-001	1.95657E-005	0.00000E+000	7.77150E-001	8.15923E-005	8	..........a	-327.66
	196	0.0394	7.87097E-001	1.96557E-005	0.00000E+000	7.87150E-001	8.15923E-005	8	..........a	-327.66
	197	0.0396	7.97047E-001	1.97457E-005	0.00000E+000	7.97150E-001	8.15923E-005	8	..........a	-327.66
CURVE2	TABLE
	Pt	T	Vf	Im	Vu	Sig	Ach	IERange	Over	Temp
	#	s	V vs. Ref.	A	V	V	V	#	bits	deg C
	198	0.0398	7.89847E-001	1.75257E-005	0.00000E+000	7.90000E-001	-2.18408E-004	8	..........a	-327.66
	199	0.04	7.80047E-001	1.54456E-005	0.00000E+000	7.80000E-001	-3.18408E-004	8	..........a	-327.66
	200	0.0402	7.69947E-001	1.36855E-005	0.00000E+000	7.70000E-001	-3.18408E-004	8	..........a	-327.66
	201	0.0404	7.59947E-001	1.22355E-005	0.00000E+000	7.60000E-001	8.15923E-005	8	..........a	-327.66
	202	0.0406	7.49847E-001	1.08454E-005	0.00000E+000	7.50000E-001	-2.18408E-004	8	..........a	-327.66
	203	0.0408	7.39847E-001	9.70536E-006	0.00000E+000	7.40000E-001	-3.18408E-004	8	..........a	-327.66
	204	0.041	7.29947E-001	8.55532E-006	0.00000E+000	7.30000E-001	8.15923E-005	8	..........a	-327.66
	205	0.0412	7.19747E-001	7.55528E-006	0.00000E+000	7.20000E-001	8.15923E-005	8	..........a	-327.66
	206	0.0414	7.09947E-001	6.63525E-006	0.00000E+000	7.10000E-001	8.15923E-005	8	..........a	-327.66
	207	0.0416	6.99947E-001	5.77521E-006	0.00000E+000	7.00000E-001	8.15923E-005	8	..........a	-327.66
	208	0.0418	6.89947E-001	4.98518E-006	0.00000E+000	6.90000E-001	8.15923E-005	8	..........a	-327.66
	209	0.042	6.79947E-001	4.22515E-006	0.00000E+000	6.80000E-001	8.15923E-005	8	..........a	-327.66
	210	0.0422	6.69847E-001	3.49513E-006	0.00000E+000	6.70000E-001	8.15923E-005	8	..........a	-327.66
	211	0.0424	6.60147E-001	2.82510E-006	0.00000E+000	6.60000E-001	8.15923E-005	8	..........a	-327.66
	212	0.0426	6.49947E-001	2.16507E-006	0.00000E+000	6.50000E-001	8.15923E-005	8	..........a	-327.66
	213	0.0428	6.39647E-001	1.58505E-006	0.00000E+000	6.40000E-001	8.15923E-005	8	..........a	-327.66
	214	0.043	6.29847E-001	1.00503E-006	0.00000E+000	6.30000E-001	8.15923E-005	8	..........a	-327.66
	215	0.0432	6.20047E-001	5.15012E-007	0.00000E+000	6.20000E-001	8.15923E-005	8	..........a	-327.66
	216	0.0434	6.09897E-001	-3.50093E-008	0.00000E+000	6.10000E-001	8.15923E-005	8	..........a	-327.66
	217	0.0436	6.00047E-001	-4.85027E-007	0.00000E+000	6.00000E-001	8.15923E-005	8	..........a	-327.66
	218	0.0438	5.89947E-001	-9.05043E-007	0.00000E+000	5.90000E-001	8.15923E-005	8	..........a	-327.66
	219	0.044	5.79947E-001	-1.33506E-006	0.00000E+000	5.80000E-001	8.15923E-005	8	..........a	-327.66
	220	0.0442	5.69947E-001	-1.79508E-006	0.00000E+000	5.70000E-001	8.15923E-005	8	..........a	-327.66
	221	0.0444	5.59947E-001	-2.15509E-006	0.00000E+000	5.60000E-001	8.15923E-005	8	..........a	-327.66
	222	0.0446	5.49947E-001	-2.56511E-006	0.00000E+000	5.50000E-001	8.15923E-005	8	..........a	-327.66
	223	0.0448	5.40047E-001	-2.95512E-006	0.00000E+000	5.40000E-001	-3.18408E-004	8	..........a	-327.66
	224	0.045	5.29947E-001	-3.25513E-006	0.00000E+000	5.30000E-001	8.15923E-005	8	..........a	-327.66
	225	0.0452	5.20047E-001	-3.52514E-006	0.00000E+000	5.20000E-001	-1.18408E-004	8	..........a	-327.66
	226	0.0454	5.10147E-001	-3.92516E-006	0.00000E+000	5.10000E-001	8.15923E-005	8	..........a	-327.66
	227	0.0456	4.99947E-001	-4.23517E-006	0.00000E+000	5.00000E-001	8.15923E-005	8	..........a	-327.66
	228	0.0458	4.89947E-001	-4.59518E-006	0.00000E+000	4.90000E-001	8.15923E-005	8	..........a	-327.66
	229	0.046	4.80047E-001	-4.88519E-006	0.00000E+000	4.80000E-001	8.15923E-005	8	..........a	-327.66
	230	0.0462	4.70047E-001	-5.16521E-006	0.00000E+000	4.70000E-001	8.15923E-005	8	..........a	-327.66
	231	0.0464	4.60147E-001	-5.49522E-006	0.00000E+000	4.60000E-001	8.15923E-005	8	..........a	-327.66
	232	0.0466	4.49947E-001	-5.75523E-006	0.00000E+000	4.50000E-001	8.15923E-005	8	..........a	-327.66
	233	0.0468	4.40047E-001	-6.06524E-006	0.00000E+000	4.40000E-001	8.15923E-005	8	..........a	-327.66
	234	0.047	4.29847E-001	-6.31525E-006	0.00000E+000	4.30000E-001	8.15923E-005	8	..........a	-327.66
	235	0.0472	4.20047E-001	-6.58526E-006	0.00000E+000	4.20000E-001	8.15923E-005	8	..........a	-327.66
	236	0.0474	4.10047E-001	-6.88527E-006	0.00000E+000	4.10000E-001	8.15923E-005	8	..........a	-327.66
	237	0.0476	3.99747E-001	-7.12528E-006	0.00000E+000	4.00000E-001	8.15923E-005	8	..........a	-327.66
	238	0.0478	3.90047E-001	-7.39529E-006	0.00000E+000	3.90000E-001	8.15923E-005	8	..........a	-327.66
	239	0.048	3.80047E-001	-7.67530E-006	0.00000E+000	3.80000E-001	8.15923E-005	8	..........a	-327.66
	240	0.0482	3.69847E-001	-7.97531E-006	0.00000E+000	3.70000E-001	8.15923E-005	8	..........a	-327.66
	241	0.0484	3.60047E-001	-8.16532E-006	0.00000E+000	3.60000E-001	8.15923E-005	8	..........a	-327.66
	242	0.0486	3.49947E-001	-8.41533E-006	0.00000E+000	3.50000E-001	8.15923E-005	8	..........a	-327.66
	243	0.0488	3.40047E-001	-8.64534E-006	0.00000E+000	3.40000E-001	-3.18408E-004	8	..........a	-327.66
	244	0.049	3.30047E-001	-8.91535E-006	0.00000E+000	3.30000E-001	8.15923E-005	8	..........a	-327.66
	245	0.0492	3.19947E-001	-9.17536E-006	0.00000E+000	3.20000E-001	8.15923E-005	8	..........a	-327.66
	246	0.0494	3.09947E-001	-9.45537E-006	0.00000E+000	3.10000E-001	8.15923E-005	8	..........a	-327.66
	247	0.0496	3.00147E-001	-9.69538E-006	0.00000E+000	3.00000E-001	8.15923E-005	8	..........a	-327.66
	248	0.0498	2.90047E-001	-9.92539E-006	0.00000E+000	2.90000E-001	-3.18408E-004	8	..........a	-327.66
	249	0.05	2.79997E-001	-1.01954E-005	0.00000E+000	2.80000E-001	-3.18408E-004	8	..........a	-327.66
	250	0.0502	2.69947E-001	-1.04754E-005	0.00000E+000	2.70000E-001	8.15923E-005	8	..........a	-327.66
	251	0.0504	2.60047E-001	-1.06754E-005	0.00000E+000	2.60000E-001	8.15923E-005	8	..........a	-327.66
	252	0.0506	2.49947E-001	-1.09354E-005	0.00000E+000	2.50000E-001	8.15923E-005	8	..........a	-327.66
	253	0.0508	2.39947E-001	-1.11554E-005	0.00000E+000	2.40000E-001	8.15923E-005	8	..........a	-327.66
	254	0.051	2.29797E-001	-1.14354E-005	0.00000E+000	2.30000E-001	8.15923E-005	8	..........a	-327.66
	255	0.0512	2.20147E-001	-1.16355E-005	0.00000E+000	2.20000E-001	8.15923E-005	8	..........a	-327.66
	256	0.0514	2.09847E-001	-1.18055E-005	0.00000E+000	2.10000E-001	8.15923E-005	8	..........a	-327.66
	257	0.0516	2.00247E-001	-1.20155E-005	0.00000E+000	2.00000E-001	8.15923E-005	8	..........a	-327.66
	258	0.0518	1.89947E-001	-1.21755E-005	0.00000E+000	1.90000E-001	8.15923E-005	8	..........a	-327.66
	259	0.052	1.80147E-001	-1.23855E-005	0.00000E+000	1.80000E-001	8.15923E-005	8	..........a	-327.66
	260	0.0522	1.69947E-001	-1.25755E-005	0.00000E+000	1.70000E-001	8.15923E-005	8	..........a	-327.66
	261	0.0524	1.59947E-001	-1.27655E-005	0.00000E+000	1.60000E-001	8.15923E-005	8	..........a	-327.66
	262	0.0526	1.50047E-001	-1.28955E-005	0.00000E+000	1.50000E-001	8.15923E-005	8	..........a	-327.66
	263	0.0528	1.40047E-001	-1.30955E-005	0.00000E+000	1.40000E-001	8.15923E-005	8	..........a	-327.66
	264	0.053	1.30047E-001	-1.32155E-005	0.00000E+000	1.30000E-001	-3.18408E-004	8	..........a	-327.66
	265	0.0532	1.20147E-001	-1.33855E-005	0.00000E+000	1.20000E-001	8.15923E-005	8	..........a	-327.66
	266	0.0534	1.09947E-001	-1.34855E-005	0.00000E+000	1.10000E-001	8.15923E-005	8	..........a	-327.66
	267	0.0536	1.00147E-001	-1.36455E-005	0.00000E+000	1.00000E-001	8.15923E-005	8	..........a	-327.66
	268	0.0538	9.00471E-002	-1.37655E-005	0.00000E+000	9.00000E-002	8.15923E-005	8	..........a	-327.66
	269	0.054	8.01471E-002	-1.39255E-005	0.00000E+000	8.00000E-002	8.15923E-005	8	..........a	-327.66
	270	0.0542	7.00471E-002	-1.40455E-005	0.00000E+000	7.00000E-002	8.15923E-005	8	..........a	-327.66
	271	0.0544	6.01471E-002	-1.41355E-005	0.00000E+000	6.00000E-002	8.15923E-005	8	..........a	-327.66
	272	0.0546	4.99471E-002	-1.42656E-005	0.00000E+000	5.00000E-002	8.15923E-005	8	..........a	-327.66
	273	0.0548	4.00471E-002	-1.44156E-005	0.00000E+000	4.00000E-002	8.15923E-005	8	..........a	-327.66
	274	0.055	2.99471E-002	-1.45456E-005	0.00000E+000	3.00000E-002	8.15923E-005	8	..........a	-327.66
	275	0.0552	2.02471E-002	-1.46156E-005	0.00000E+000	2.00000E-002	8.15923E-005	8	..........a	-327.66
	276	0.0554	9.94711E-003	-1.47556E-005	0.00000E+000	1.00000E-002	8.15923E-005	8	..........a	-327.66
	277	0.0556	-5.28858E-005	-1.49156E-005	0.00000E+000	7.45058E-009	8.15923E-005	8	..........a	-327.66
	278	0.0558	-9.95289E-003	-1.49756E-005	0.00000E+000	-1.00000E-002	8.15923E-005	8	..........a	-327.66
	279	0.056	-1.99529E-002	-1.49956E-005	0.00000E+000	-2.00000E-002	8.15923E-005	8	..........a	-327.66
	280	0.0562	-2.99529E-002	-1.49956E-005	0.00000E+000	-3.00000E-002	8.15923E-005	8	..........a	-327.66
	281	0.0564	-3.99529E-002	-1.49756E-005	0.00000E+000	-4.00000E-002	8.15923E-005	8	..........a	-327.66
	282	0.0566	-4.99529E-002	-1.49256E-005	0.00000E+000	-5.00000E-002	-3.18408E-004	8	..........a	-327.66
	283	0.0568	-5.98529E-002	-1.47956E-005	0.00000E+000	-6.00000E-002	8.15923E-005	8	..........a	-327.66
	284	0.057	-7.00529E-002	-1.46656E-005	0.00000E+000	-7.00000E-002	-4.18408E-004	8	..........a	-327.66
	285	0.0572	-7.99529E-002	-1.44956E-005	0.00000E+000	-8.00000E-002	8.15923E-005	8	..........a	-327.66
	286	0.0574	-9.00029E-002	-1.44556E-005	0.00000E+000	-9.00000E-002	8.15923E-005	8	..........a	-327.66
	287	0.0576	-9.99529E-002	-1.44956E-005	0.00000E+000	-1.00000E-001	8.15923E-005	8	..........a	-327.66
	288	0.0578	-1.10053E-001	-1.45156E-005	0.00000E+000	-1.10000E-001	-2.18408E-004	8	..........a	-327.66
	289	0.058	-1.20053E-001	-1.44556E-005	0.00000E+000	-1.20000E-001	-3.18408E-004	8	..........a	-327.66
	290	0.0582	-1.30053E-001	-1.44356E-005	0.00000E+000	-1.30000E-001	8.15923E-005	8	..........a	-327.66
	291	0.0584	-1.39753E-001	-1.44156E-005	0.00000E+000	-1.40000E-001	8.15923E-005	8	..........a	-327.66
	292	0.0586	-1.50153E-001	-1.42956E-005	0.00000E+000	-1.50000E-001	8.15923E-005	8	..........a	-327.66
	293	0.0588	-1.60053E-001	-1.42356E-005	0.00000E+000	-1.60000E-001	8.15923E-005	8	..........a	-327.66
	294	0.059	-1.69953E-001	-1.41755E-005	0.00000E+000	-1.70000E-001	8.15923E-005	8	..........a	-327.66
	295	0.0592	-1.80053E-001	-1.41555E-005	0.00000E+000	-1.80000E-001	8.15923E-005	8	..........a	-327.66
	296	0.0594	-1.89953E-001	-1.40755E-005	0.00000E+000	-1.90000E-001	-3.18408E-004	8	..........a	-327.66
	297	0.0596	-1.99953E-001	-1.40455E-005	0.00000E+000	-2.00000E-001	8.15923E-005	8	..........a	-327.66
	298	0.0598	-2.09853E-001	-1.38655E-005	0.00000E+000	-2.10000E-001	-3.18408E-004	8	..........a	-327.66
	299	0.06	-2.19853E-001	-1.37755E-005	0.00000E+000	-2.20000E-001	8.15923E-005	8	..........a	-327.66
	300	0.0602	-2.29953E-001	-1.37655E-005	0.00000E+000	-2.30000E-001	-3.18408E-004	8	..........a	-327.66
	301	0.0604	-2.39753E-001	-1.36755E-005	0.00000E+000	-2.40000E-001	8.15923E-005	8	..........a	-327.66
	302	0.0606	-2.49953E-001	-1.36055E-005	0.00000E+000	-2.50000E-001	8.15923E-005	8	..........a	-327.66
	303	0.0608	-2.59753E-001	-1.35155E-005	0.00000E+000	-2.60000E-001	8.15923E-005	8	..........a	-327.66
	304	0.061	-2.70053E-001	-1.34155E-005	0.00000E+000	-2.70000E-001	8.15923E-005	8	..........a	-327.66
	305	0.0612	-2.79953E-001	-1.32855E-005	0.00000E+000	-2.80000E-001	8.15923E-005	8	..........a	-327.66
	306	0.0614	-2.89953E-001	-1.32055E-005	0.00000E+000	-2.90000E-001	8.15923E-005	8	..........a	-327.66
	307	0.0616	-2.99953E-001	-1.30955E-005	0.00000E+000	-3.00000E-001	8.15923E-005	8	..........a	-327.66
	308	0.0618	-3.09953E-001	-1.30555E-005	0.00000E+000	-3.10000E-001	8.15923E-005	8	..........a	-327.66
	309	0.062	-3.19953E-001	-1.29455E-005	0.00000E+000	-3.20000E-001	8.15923E-005	8	..........a	-327.66
	310	0.0622	-3.29953E-001	-1.28555E-005	0.00000E+000	-3.30000E-001	8.15923E-005	8	..........a	-327.66
	311	0.0624	-3.39803E-001	-1.28055E-005	0.00000E+000	-3.40000E-001	8.15923E-005	8	..........a	-327.66
	312	0.0626	-3.49953E-001	-1.26855E-005	0.00000E+000	-3.50000E-001	8.15923E-005	8	..........a	-327.66
	313	0.0628	-3.59953E-001	-1.26155E-005	0.00000E+000	-3.60000E-001	8.15923E-005	8	..........a	-327.66
	314	0.063	-3.69953E-001	-1.25755E-005	0.00000E+000	-3.70000E-001	8.15923E-005	8	..........a	-327.66
	315	0.0632	-3.79753E-001	-1.24955E-005	0.00000E+000	-3.80000E-001	8.15923E-005	8	..........a	-327.66
	316	0.0634	-3.90003E-001	-1.24255E-005	0.00000E+000	-3.90000E-001	-2.18408E-004	8	..........a	-327.66
	317	0.0636	-3.99953E-001	-1.23955E-005	0.00000E+000	-4.00000E-001	8.15923E-005	8	..........a	-327.66
	318	0.0638	-4.09953E-001	-1.23655E-005	0.00000E+000	-4.10000E-001	8.15923E-005	8	..........a	-327.66
	319	0.064	-4.19853E-001	-1.23255E-005	0.00000E+000	-4.20000E-001	8.15923E-005	8	..........a	-327.66
	320	0.0642	-4.29953E-001	-1.23055E-005	0.00000E+000	-4.30000E-001	-3.18408E-004	8	..........a	-327.66
	321	0.0644	-4.39953E-001	-1.23255E-005	0.00000E+000	-4.40000E-001	8.15923E-005	8	..........a	-327.66
	322	0.0646	-4.49953E-001	-1.23055E-005	0.00000E+000	-4.50000E-001	8.15923E-005	8	..........a	-327.66
	323	0.0648	-4.60053E-001	-1.22355E-005	0.00000E+000	-4.60000E-001	-5.18408E-004	8	..........a	-327.66
	324	0.065	-4.69853E-001	-1.22555E-005	0.00000E+000	-4.70000E-001	-3.18408E-004	8	..........a	-327.66
	325	0.0652	-4.79953E-001	-1.22655E-005	0.00000E+000	-4.80000E-001	8.15923E-005	8	..........a	-327.66
	326	0.0654	-4.89853E-001	-1.23155E-005	0.00000E+000	-4.90000E-001	-2.18408E-004	8	..........a	-327.66
	327	0.0656	-5.00053E-001	-1.23055E-005	0.00000E+000	-5.00000E-001	8.15923E-005	8	..........a	-327.66
	328	0.0658	-5.09953E-001	-1.23155E-005	0.00000E+000	-5.10000E-001	8.15923E-005	8	..........a	-327.66
	329	0.066	-5.19753E-001	-1.23355E-005	0.00000E+000	-5.20000E-001	-3.18408E-004	8	..........a	-327.66
	330	0.0662	-5.29953E-001	-1.23755E-005	0.00000E+000	-5.30000E-001	8.15923E-005	8	..........a	-327.66
	331	0.0664	-5.39853E-001	-1.23655E-005	0.00000E+000	-5.40000E-001	8.15923E-005	8	..........a	-327.66
	332	0.0666	-5.49953E-001	-1.24255E-005	0.00000E+000	-5.50000E-001	8.15923E-005	8	..........a	-327.66
	333	0.0668	-5.60003E-001	-1.24655E-005	0.00000E+000	-5.60000E-001	8.15923E-005	8	..........a	-327.66
	334	0.067	-5.69953E-001	-1.25055E-005	0.00000E+000	-5.70000E-001	8.15923E-005	8	..........a	-327.66
	335	0.0672	-5.79853E-001	-1.25355E-005	0.00000E+000	-5.80000E-001	8.15923E-005	8	..........a	-327.66
	336	0.0674	-5.89953E-001	-1.26255E-005	0.00000E+000	-5.90000E-001	-3.18408E-004	8	..........a	-327.66
	337	0.0676	-5.99953E-001	-1.26555E-005	0.00000E+000	-6.00000E-001	-2.18408E-004	8	..........a	-327.66
	338	0.0678	-5.90053E-001	-1.06154E-005	0.00000E+000	-5.90000E-001	-2.18408E-004	8	..........a	-327.66
	339	0.068	-5.79953E-001	-9.00535E-006	0.00000E+000	-5.80000E-001	8.15923E-005	8	..........a	-327.66
	340	0.0682	-5.69853E-001	-7.71530E-006	0.00000E+000	-5.70000E-001	8.15923E-005	8	..........a	-327.66
	341	0.0684	-5.59953E-001	-6.59526E-006	0.00000E+000	-5.60000E-001	-3.18408E-004	8	..........a	-327.66
	342	0.0686	-5.49953E-001	-5.61522E-006	0.00000E+000	-5.50000E-001	8.15923E-005	8	..........a	-327.66
	343	0.0688	-5.39953E-001	-4.73519E-006	0.00000E+000	-5.40000E-001	8.15923E-005	8	..........a	-327.66
[...]
	2604	0.521	-3.29853E-001	4.02515E-006	0.00000E+000	-3.30000E-001	8.15923E-005	8	..........a	-327.66
	2605	0.5212	-3.19953E-001	4.26516E-006	0.00000E+000	-3.20000E-001	8.15923E-005	8	..........a	-327.66
	2606	0.5214	-3.10053E-001	4.45516E-006	0.00000E+000	-3.10000E-001	8.15923E-005	8	..........a	-327.66
	2607	0.5216	-2.99853E-001	4.59517E-006	0.00000E+000	-3.00000E-001	8.15923E-005	8	..........a	-327.66
	2608	0.5218	-2.90053E-001	4.80518E-006	0.00000E+000	-2.90000E-001	8.15923E-005	8	..........a	-327.66
	2609	0.522	-2.79953E-001	4.96518E-006	0.00000E+000	-2.80000E-001	8.15923E-005	8	..........a	-327.66
	2610	0.5222	-2.69953E-001	5.08519E-006	0.00000E+000	-2.70000E-001	-3.18408E-004	8	..........a	-327.66
	2611	0.5224	-2.59903E-001	5.29520E-006	0.00000E+000	-2.60000E-001	-1.18408E-004	8	..........a	-327.66
	2612	0.5226	-2.49953E-001	5.39520E-006	0.00000E+000	-2.50000E-001	-1.18408E-004	8	..........a	-327.66
	2613	0.5228	-2.39853E-001	5.55521E-006	0.00000E+000	-2.40000E-001	8.15923E-005	8	..........a	-327.66
	2614	0.523	-2.30053E-001	5.69521E-006	0.00000E+000	-2.30000E-001	8.15923E-005	8	..........a	-327.66
	2615	0.5232	-2.20053E-001	5.80521E-006	0.00000E+000	-2.20000E-001	8.15923E-005	8	..........a	-327.66
	2616	0.5234	-2.09853E-001	6.00522E-006	0.00000E+000	-2.10000E-001	8.15923E-005	8	..........a	-327.66
	2617	0.5236	-2.00053E-001	6.09523E-006	0.00000E+000	-2.00000E-001	8.15923E-005	8	..........a	-327.66
	2618	0.5238	-1.90153E-001	6.24523E-006	0.00000E+000	-1.90000E-001	-2.18408E-004	8	..........a	-327.66
	2619	0.524	-1.79753E-001	6.39524E-006	0.00000E+000	-1.80000E-001	8.15923E-005	8	..........a	-327.66
	2620	0.5242	-1.69953E-001	6.46524E-006	0.00000E+000	-1.70000E-001	8.15923E-005	8	..........a	-327.66
	2621	0.5244	-1.60053E-001	6.60524E-006	0.00000E+000	-1.60000E-001	8.15923E-005	8	..........a	-327.66
	2622	0.5246	-1.50003E-001	6.70525E-006	0.00000E+000	-1.50000E-001	8.15923E-005	8	..........a	-327.66
	2623	0.5248	-1.39753E-001	6.88526E-006	0.00000E+000	-1.40000E-001	8.15923E-005	8	..........a	-327.66
	2624	0.525	-1.29953E-001	6.95526E-006	0.00000E+000	-1.30000E-001	8.15923E-005	8	..........a	-327.66
	2625	0.5252	-1.20053E-001	7.09526E-006	0.00000E+000	-1.20000E-001	8.15923E-005	8	..........a	-327.66
	2626	0.5254	-1.09953E-001	7.19527E-006	0.00000E+000	-1.10000E-001	8.15923E-005	8	..........a	-327.66
	2627	0.5256	-9.99029E-002	7.31527E-006	0.00000E+000	-1.00000E-001	8.15923E-005	8	..........a	-327.66
	2628	0.5258	-9.01529E-002	7.38527E-006	0.00000E+000	-9.00000E-002	8.15923E-005	8	..........a	-327.66
	2629	0.526	-7.99529E-002	7.54528E-006	0.00000E+000	-8.00000E-002	8.15923E-005	8	..........a	-327.66
	2630	0.5262	-7.00529E-002	7.67529E-006	0.00000E+000	-7.00000E-002	8.15923E-005	8	..........a	-327.66
	2631	0.5264	-5.97529E-002	7.83529E-006	0.00000E+000	-6.00000E-002	8.15923E-005	8	..........a	-327.66
	2632	0.5266	-4.99529E-002	7.91530E-006	0.00000E+000	-5.00000E-002	-3.18408E-004	8	..........a	-327.66
	2633	0.5268	-3.99529E-002	8.04530E-006	0.00000E+000	-4.00000E-002	8.15923E-005	8	..........a	-327.66
	2634	0.527	-2.99529E-002	8.19531E-006	0.00000E+000	-3.00000E-002	8.15923E-005	8	..........a	-327.66
	2635	0.5272	-1.99529E-002	8.30531E-006	0.00000E+000	-2.00000E-002	8.15923E-005	8	..........a	-327.66
	2636	0.5274	-1.00529E-002	8.42531E-006	0.00000E+000	-1.00000E-002	8.15923E-005	8	..........a	-327.66
	2637	0.5276	4.71142E-005	8.55532E-006	0.00000E+000	7.45058E-009	8.15923E-005	8	..........a	-327.66
	2638	0.5278	9.94711E-003	8.69533E-006	0.00000E+000	1.00000E-002	8.15923E-005	8	..........a	-327.66
	2639	0.528	2.01971E-002	8.82533E-006	0.00000E+000	2.00000E-002	8.15923E-005	8	..........a	-327.66
	2640	0.5282	2.98971E-002	8.96533E-006	0.00000E+000	3.00000E-002	8.15923E-005	8	..........a	-327.66
	2641	0.5284	4.01471E-002	9.10534E-006	0.00000E+000	4.00000E-002	8.15923E-005	8	..........a	-327.66
	2642	0.5286	5.00471E-002	9.27535E-006	0.00000E+000	5.00000E-002	8.15923E-005	8	..........a	-327.66
	2643	0.5288	5.99471E-002	9.42535E-006	0.00000E+000	6.00000E-002	8.15923E-005	8	..........a	-327.66
	2644	0.529	6.99471E-002	9.51536E-006	0.00000E+000	7.00000E-002	8.15923E-005	8	..........a	-327.66
	2645	0.5292	7.99471E-002	9.67536E-006	0.00000E+000	8.00000E-002	-3.18408E-004	8	..........a	-327.66
	2646	0.5294	9.01471E-002	9.86537E-006	0.00000E+000	9.00000E-002	8.15923E-005	8	..........a	-327.66
	2647	0.5296	1.00147E-001	1.00254E-005	0.00000E+000	1.00000E-001	8.15923E-005	8	..........a	-327.66
	2648	0.5298	1.10047E-001	1.02254E-005	0.00000E+000	1.10000E-001	8.15923E-005	8	..........a	-327.66
	2649	0.53	1.19897E-001	1.04154E-005	0.00000E+000	1.20000E-001	8.15923E-005	8	..........a	-327.66
	2650	0.5302	1.30047E-001	1.10154E-005	0.00000E+000	1.30000E-001	8.15923E-005	8	..........a	-327.66
	2651	0.5304	1.40147E-001	1.17654E-005	0.00000E+000	1.40000E-001	8.15923E-005	8	..........a	-327.66
	2652	0.5306	1.50047E-001	1.23155E-005	0.00000E+000	1.50000E-001	8.15923E-005	8	..........a	-327.66
	2653	0.5308	1.60047E-001	1.28655E-005	0.00000E+000	1.60000E-001	8.15923E-005	8	..........a	-327.66
	2654	0.531	1.69697E-001	1.32955E-005	0.00000E+000	1.70000E-001	8.15923E-005	8	..........a	-327.66
	2655	0.5312	1.80147E-001	1.34255E-005	0.00000E+000	1.80000E-001	8.15923E-005	8	..........a	-327.66
	2656	0.5314	1.89847E-001	1.30755E-005	0.00000E+000	1.90000E-001	8.15923E-005	8	..........a	-327.66
	2657	0.5316	2.00047E-001	1.25455E-005	0.00000E+000	2.00000E-001	8.15923E-005	8	..........a	-327.66
	2658	0.5318	2.09947E-001	1.23755E-005	0.00000E+000	2.10000E-001	8.15923E-005	8	..........a	-327.66
	2659	0.532	2.19247E-001	1.23455E-005	0.00000E+000	2.20000E-001	-3.18408E-004	8	..........a	-327.66
	2660	0.5322	2.29897E-001	1.24555E-005	0.00000E+000	2.30000E-001	8.15923E-005	8	..........a	-327.66
	2661	0.5324	2.40047E-001	1.26255E-005	0.00000E+000	2.40000E-001	-3.18408E-004	8	..........a	-327.66
	2662	0.5326	2.49897E-001	1.27555E-005	0.00000E+000	2.50000E-001	8.15923E-005	8	..........a	-327.66
	2663	0.5328	2.59997E-001	1.29155E-005	0.00000E+000	2.60000E-001	8.15923E-005	8	..........a	-327.66
	2664	0.533	2.69897E-001	1.30255E-005	0.00000E+000	2.70000E-001	-3.18408E-004	8	..........a	-327.66
	2665	0.5332	2.79697E-001	1.32355E-005	0.00000E+000	2.80000E-001	8.15923E-005	8	..........a	-327.66
	2666	0.5334	2.89947E-001	1.33855E-005	0.00000E+000	2.90000E-001	8.15923E-005	8	..........a	-327.66
	2667	0.5336	3.00147E-001	1.35155E-005	0.00000E+000	3.00000E-001	8.15923E-005	8	..........a	-327.66
	2668	0.5338	3.09847E-001	1.36955E-005	0.00000E+000	3.10000E-001	8.15923E-005	8	..........a	-327.66
	2669	0.534	3.19947E-001	1.38155E-005	0.00000E+000	3.20000E-001	-2.18408E-004	8	..........a	-327.66
	2670	0.5342	3.29747E-001	1.40355E-005	0.00000E+000	3.30000E-001	-3.18408E-004	8	..........a	-327.66
	2671	0.5344	3.39947E-001	1.41555E-005	0.00000E+000	3.40000E-001	8.15923E-005	8	..........a	-327.66
	2672	0.5346	3.49947E-001	1.43355E-005	0.00000E+000	3.50000E-001	8.15923E-005	8	..........a	-327.66
	2673	0.5348	3.59747E-001	1.45055E-005	0.00000E+000	3.60000E-001	-2.18408E-004	8	..........a	-327.66
	2674	0.535	3.70047E-001	1.46856E-005	0.00000E+000	3.70000E-001	8.15923E-005	8	..........a	-327.66
	2675	0.5352	3.79947E-001	1.48656E-005	0.00000E+000	3.80000E-001	8.15923E-005	8	..........a	-327.66
	2676	0.5354	3.90047E-001	1.49756E-005	0.00000E+000	3.90000E-001	8.15923E-005	8	..........a	-327.66
	2677	0.5356	3.99747E-001	1.51656E-005	0.00000E+000	4.00000E-001	8.15923E-005	8	..........a	-327.66
	2678	0.5358	4.09747E-001	1.53356E-005	0.00000E+000	4.10000E-001	8.15923E-005	8	..........a	-327.66
	2679	0.536	4.20047E-001	1.54656E-005	0.00000E+000	4.20000E-001	8.15923E-005	8	..........a	-327.66
	2680	0.5362	4.30047E-001	1.56656E-005	0.00000E+000	4.30000E-001	8.15923E-005	8	..........a	-327.66
	2681	0.5364	4.39847E-001	1.57956E-005	0.00000E+000	4.40000E-001	8.15923E-005	8	..........a	-327.66
	2682	0.5366	4.49647E-001	1.58956E-005	0.00000E+000	4.50000E-001	8.15923E-005	8	..........a	-327.66
	2683	0.5368	4.60097E-001	1.60656E-005	0.00000E+000	4.60000E-001	8.15923E-005	8	..........a	-327.66
	2684	0.537	4.70047E-001	1.62056E-005	0.00000E+000	4.70000E-001	8.15923E-005	8	..........a	-327.66
	2685	0.5372	4.79997E-001	1.62756E-005	0.00000E+000	4.80000E-001	8.15923E-005	8	..........a	-327.66
	2686	0.5374	4.89747E-001	1.63956E-005	0.00000E+000	4.90000E-001	8.15923E-005	8	..........a	-327.66
	2687	0.5376	4.99847E-001	1.65256E-005	0.00000E+000	5.00000E-001	8.15923E-005	8	..........a	-327.66
	2688	0.5378	5.10047E-001	1.66656E-005	0.00000E+000	5.10000E-001	8.15923E-005	8	..........a	-327.66
	2689	0.538	5.19947E-001	1.68156E-005	0.00000E+000	5.20000E-001	-2.18408E-004	8	..........a	-327.66
	2690	0.5382	5.29947E-001	1.68956E-005	0.00000E+000	5.30000E-001	8.15923E-005	8	..........a	-327.66
	2691	0.5384	5.40047E-001	1.69856E-005	0.00000E+000	5.40000E-001	8.15923E-005	8	..........a	-327.66
	2692	0.5386	5.49997E-001	1.70956E-005	0.00000E+000	5.50000E-001	8.15923E-005	8	..........a	-327.66
	2693	0.5388	5.59947E-001	1.71656E-005	0.00000E+000	5.60000E-001	8.15923E-005	8	..........a	-327.66
	2694	0.539	5.70047E-001	1.72757E-005	0.00000E+000	5.70000E-001	8.15923E-005	8	..........a	-327.66
	2695	0.5392	5.79897E-001	1.73757E-005	0.00000E+000	5.80000E-001	8.15923E-005	8	..........a	-327.66
	2696	0.5394	5.89947E-001	1.74357E-005	0.00000E+000	5.90000E-001	8.15923E-005	8	..........a	-327.66
	2697	0.5396	5.99947E-001	1.75357E-005	0.00000E+000	6.00000E-001	-3.18408E-004	8	..........a	-327.66
	2698	0.5398	6.09847E-001	1.76257E-005	0.00000E+000	6.10000E-001	-2.18408E-004	8	..........a	-327.66
	2699	0.54	6.19947E-001	1.77357E-005	0.00000E+000	6.20000E-001	8.15923E-005	8	..........a	-327.66
	2700	0.5402	6.29847E-001	1.77657E-005	0.00000E+000	6.30000E-001	8.15923E-005	8	..........a	-327.66
	2701	0.5404	6.39747E-001	1.78857E-005	0.00000E+000	6.40000E-001	8.15923E-005	8	..........a	-327.66
	2702	0.5406	6.49947E-001	1.78757E-005	0.00000E+000	6.50000E-001	8.15923E-005	8	..........a	-327.66
	2703	0.5408	6.59847E-001	1.79957E-005	0.00000E+000	6.60000E-001	8.15923E-005	8	..........a	-327.66
	2704	0.541	6.69947E-001	1.80957E-005	0.00000E+000	6.70000E-001	8.15923E-005	8	..........a	-327.66
	2705	0.5412	6.79947E-001	1.81357E-005	0.00000E+000	6.80000E-001	8.15923E-005	8	..........a	-327.66
	2706	0.5414	6.89847E-001	1.81757E-005	0.00000E+000	6.90000E-001	8.15923E-005	8	..........a	-327.66
	2707	0.5416	7.00047E-001	1.82257E-005	0.00000E+000	7.00000E-001	8.15923E-005	8	..........a	-327.66
	2708	0.5418	7.09897E-001	1.83357E-005	0.00000E+000	7.10000E-001	8.15923E-005	8	..........a	-327.66
	2709	0.542	7.19847E-001	1.83157E-005	0.00000E+000	7.20000E-001	8.15923E-005	8	..........a	-327.66
	2710	0.5422	7.29947E-001	1.83957E-005	0.00000E+000	7.30000E-001	8.15923E-005	8	..........a	-327.66
	2711	0.5424	7.40147E-001	1.84257E-005	0.00000E+000	7.40000E-001	8.15923E-005	8	..........a	-327.66
	2712	0.5426	7.49947E-001	1.84457E-005	0.00000E+000	7.50000E-001	8.15923E-005	8	..........a	-327.66
	2713	0.5428	7.59747E-001	1.84557E-005	0.00000E+000	7.60000E-001	8.15923E-005	8	..........a	-327.66
	2714	0.543	7.69947E-001	1.84557E-005	0.00000E+000	7.70000E-001	8.15923E-005	8	..........a	-327.66
	2715	0.5432	7.80047E-001	1.84857E-005	0.00000E+000	7.80000E-001	8.15923E-005	8	..........a	-327.66
	2716	0.5434	7.89847E-001	1.84957E-005	0.00000E+000	7.90000E-001	8.15923E-005	8	..........a	-327.66
	2717	0.5436	7.99847E-001	1.85157E-005	0.00000E+000	8.00000E-001	8.15923E-005	8	..........a	-327.66
CURVE11	TABLE
	Pt	T	Vf	Im	Vu	Sig	Ach	IERange	Over	Temp
	#	s	V vs. Ref.	A	V	V	V	#	bits	deg C
	2718	0.5438	7.89847E-001	1.59256E-005	0.00000E+000	7.90000E-001	8.15923E-005	8	..........a	-327.66
	2719	0.544	7.79947E-001	1.40055E-005	0.00000E+000	7.80000E-001	8.15923E-005	8	..........a	-327.66
	2720	0.5442	7.69847E-001	1.23255E-005	0.00000E+000	7.70000E-001	8.15923E-005	8	..........a	-327.66
	2721	0.5444	7.59947E-001	1.08454E-005	0.00000E+000	7.60000E-001	8.15923E-005	8	..........a	-327.66
	2722	0.5446	7.49847E-001	9.58536E-006	0.00000E+000	7.50000E-001	8.15923E-005	8	..........a	-327.66
	2723	0.5448	7.39847E-001	8.45532E-006	0.00000E+000	7.40000E-001	8.15923E-005	8	..........a	-327.66
	2724	0.545	7.30047E-001	7.42528E-006	0.00000E+000	7.30000E-001	-3.18408E-004	8	..........a	-327.66
	2725	0.5452	7.19947E-001	6.44524E-006	0.00000E+000	7.20000E-001	-3.18408E-004	8	..........a	-327.66
	2726	0.5454	7.09847E-001	5.54520E-006	0.00000E+000	7.10000E-001	-2.18408E-004	8	..........a	-327.66
	2727	0.5456	6.99947E-001	4.68517E-006	0.00000E+000	7.00000E-001	8.15923E-005	8	..........a	-327.66
	2728	0.5458	6.89847E-001	3.94514E-006	0.00000E+000	6.90000E-001	8.15923E-005	8	..........a	-327.66
	2729	0.546	6.80047E-001	3.21511E-006	0.00000E+000	6.80000E-001	8.15923E-005	8	..........a	-327.66
	2730	0.5462	6.69847E-001	2.53509E-006	0.00000E+000	6.70000E-001	8.15923E-005	8	..........a	-327.66
	2731	0.5464	6.59947E-001	1.90506E-006	0.00000E+000	6.60000E-001	8.15923E-005	8	..........a	-327.66
	2732	0.5466	6.49947E-001	1.32504E-006	0.00000E+000	6.50000E-001	8.15923E-005	8	..........a	-327.66
	2733	0.5468	6.39947E-001	7.15019E-007	0.00000E+000	6.40000E-001	8.15923E-005	8	..........a	-327.66
	2734	0.547	6.29947E-001	2.55002E-007	0.00000E+000	6.30000E-001	8.15923E-005	8	..........a	-327.66
	2735	0.5472	6.19747E-001	-2.95019E-007	0.00000E+000	6.20000E-001	8.15923E-005	8	..........a	-327.66
	2736	0.5474	6.09947E-001	-7.25036E-007	0.00000E+000	6.10000E-001	8.15923E-005	8	..........a	-327.66
	2737	0.5476	5.99947E-001	-1.19505E-006	0.00000E+000	6.00000E-001	8.15923E-005	8	..........a	-327.66
	2738	0.5478	5.89947E-001	-1.64507E-006	0.00000E+000	5.90000E-001	8.15923E-005	8	..........a	-327.66
	2739	0.548	5.79947E-001	-2.02509E-006	0.00000E+000	5.80000E-001	8.15923E-005	8	..........a	-327.66
	2740	0.5482	5.69847E-001	-2.41510E-006	0.00000E+000	5.70000E-001	8.15923E-005	8	..........a	-327.66
	2741	0.5484	5.59947E-001	-2.82512E-006	0.00000E+000	5.60000E-001	8.15923E-005	8	..........a	-327.66
	2742	0.5486	5.49947E-001	-3.15513E-006	0.00000E+000	5.50000E-001	8.15923E-005	8	..........a	-327.66
	2743	0.5488	5.39947E-001	-3.51514E-006	0.00000E+000	5.40000E-001	8.15923E-005	8	..........a	-327.66
	2744	0.549	5.30047E-001	-3.81515E-006	0.00000E+000	5.30000E-001	8.15923E-005	8	..........a	-327.66
	2745	0.5492	5.20047E-001	-4.15517E-006	0.00000E+000	5.20000E-001	-3.18408E-004	8	..........a	-327.66
	2746	0.5494	5.10047E-001	-4.47518E-006	0.00000E+000	5.10000E-001	8.15923E-005	8	..........a	-327.66
	2747	0.5496	4.99997E-001	-4.77519E-006	0.00000E+000	5.00000E-001	8.15923E-005	8	..........a	-327.66
	2748	0.5498	4.89947E-001	-5.04520E-006	0.00000E+000	4.90000E-001	-3.18408E-004	8	..........a	-327.66
	2749	0.55	4.79847E-001	-5.34521E-006	0.00000E+000	4.80000E-001	8.15923E-005	8	..........a	-327.66
	2750	0.5502	4.70047E-001	-5.63522E-006	0.00000E+000	4.70000E-001	-3.18408E-004	8	..........a	-327.66
	2751	0.5504	4.59747E-001	-5.88523E-006	0.00000E+000	4.60000E-001	-4.18408E-004	8	..........a	-327.66
	2752	0.5506	4.50047E-001	-6.10524E-006	0.00000E+000	4.50000E-001	8.15923E-005	8	..........a	-327.66
	2753	0.5508	4.39847E-001	-6.41525E-006	0.00000E+000	4.40000E-001	8.15923E-005	8	..........a	-327.66
	2754	0.551	4.29947E-001	-6.64526E-006	0.00000E+000	4.30000E-001	-3.18408E-004	8	..........a	-327.66
	2755	0.5512	4.19947E-001	-6.91527E-006	0.00000E+000	4.20000E-001	8.15923E-005	8	..........a	-327.66
	2756	0.5514	4.09747E-001	-7.17528E-006	0.00000E+000	4.10000E-001	-2.18408E-004	8	..........a	-327.66
	2757	0.5516	4.00147E-001	-7.40529E-006	0.00000E+000	4.00000E-001	8.15923E-005	8	..........a	-327.66
	2758	0.5518	3.90047E-001	-7.65530E-006	0.00000E+000	3.90000E-001	8.15923E-005	8	..........a	-327.66
	2759	0.552	3.80247E-001	-7.97531E-006	0.00000E+000	3.80000E-001	8.15923E-005	8	..........a	-327.66
	2760	0.5522	3.70047E-001	-8.20532E-006	0.00000E+000	3.70000E-001	8.15923E-005	8	..........a	-327.66
	2761	0.5524	3.60047E-001	-8.48533E-006	0.00000E+000	3.60000E-001	8.15923E-005	8	..........a	-327.66
	2762	0.5526	3.49847E-001	-8.70534E-006	0.00000E+000	3.50000E-001	-3.18408E-004	8	..........a	-327.66
	2763	0.5528	3.40047E-001	-8.97535E-006	0.00000E+000	3.40000E-001	8.15923E-005	8	..........a	-327.66
	2764	0.553	3.30047E-001	-9.22536E-006	0.00000E+000	3.30000E-001	8.15923E-005	8	..........a	-327.66
	2765	0.5532	3.19947E-001	-9.40537E-006	0.00000E+000	3.20000E-001	8.15923E-005	8	..........a	-327.66
	2766	0.5534	3.10047E-001	-9.68538E-006	0.00000E+000	3.10000E-001	-3.18408E-004	8	..........a	-327.66
	2767	0.5536	2.99947E-001	-9.95539E-006	0.00000E+000	3.00000E-001	-3.18408E-004	8	..........a	-327.66
	2768	0.5538	2.89947E-001	-1.01754E-005	0.00000E+000	2.90000E-001	8.15923E-005	8	..........a	-327.66
	2769	0.554	2.79947E-001	-1.03854E-005	0.00000E+000	2.80000E-001	8.15923E-005	8	..........a	-327.66
	2770	0.5542	2.70047E-001	-1.06554E-005	0.00000E+000	2.70000E-001	8.15923E-005	8	..........a	-327.66
	2771	0.5544	2.59947E-001	-1.09354E-005	0.00000E+000	2.60000E-001	8.15923E-005	8	..........a	-327.66
	2772	0.5546	2.49947E-001	-1.11254E-005	0.00000E+000	2.50000E-001	8.15923E-005	8	..........a	-327.66
	2773	0.5548	2.40047E-001	-1.13254E-005	0.00000E+000	2.40000E-001	-3.18408E-004	8	..........a	-327.66
	2774	0.555	2.29947E-001	-1.15354E-005	0.00000E+000	2.30000E-001	8.15923E-005	8	..........a	-327.66
	2775	0.5552	2.20247E-001	-1.17755E-005	0.00000E+000	2.20000E-001	8.15923E-005	8	..........a	-327.66
	2776	0.5554	2.10047E-001	-1.19555E-005	0.00000E+000	2.10000E-001	8.15923E-005	8	..........a	-327.66
	2777	0.5556	1.99947E-001	-1.21555E-005	0.00000E+000	2.00000E-001	-3.18408E-004	8	..........a	-327.66
	2778	0.5558	1.90047E-001	-1.23155E-005	0.00000E+000	1.90000E-001	8.15923E-005	8	..........a	-327.66
	2779	0.556	1.80247E-001	-1.25055E-005	0.00000E+000	1.80000E-001	8.15923E-005	8	..........a	-327.66
	2780	0.5562	1.69947E-001	-1.26655E-005	0.00000E+000	1.70000E-001	8.15923E-005	8	..........a	-327.66
	2781	0.5564	1.59947E-001	-1.28255E-005	0.00000E+000	1.60000E-001	8.15923E-005	8	..........a	-327.66
	2782	0.5566	1.50147E-001	-1.29755E-005	0.00000E+000	1.50000E-001	8.15923E-005	8	..........a	-327.66
	2783	0.5568	1.40047E-001	-1.31955E-005	0.00000E+000	1.40000E-001	8.15923E-005	8	..........a	-327.66
	2784	0.557	1.30047E-001	-1.32855E-005	0.00000E+000	1.30000E-001	8.15923E-005	8	..........a	-327.66
	2785	0.5572	1.20047E-001	-1.34355E-005	0.00000E+000	1.20000E-001	8.15923E-005	8	..........a	-327.66
	2786	0.5574	1.10047E-001	-1.35955E-005	0.00000E+000	1.10000E-001	8.15923E-005	8	..........a	-327.66
	2787	0.5576	1.00147E-001	-1.37255E-005	0.00000E+000	1.00000E-001	8.15923E-005	8	..........a	-327.66
	2788	0.5578	9.00471E-002	-1.38455E-005	0.00000E+000	9.00000E-002	8.15923E-005	8	..........a	-327.66
	2789	0.558	8.00471E-002	-1.39755E-005	0.00000E+000	8.00000E-002	8.15923E-005	8	..........a	-327.66
	2790	0.5582	7.00471E-002	-1.40955E-005	0.00000E+000	7.00000E-002	8.15923E-005	8	..........a	-327.66
	2791	0.5584	6.01471E-002	-1.42456E-005	0.00000E+000	6.00000E-002	8.15923E-005	8	..........a	-327.66
	2792	0.5586	5.00471E-002	-1.44056E-005	0.00000E+000	5.00000E-002	8.15923E-005	8	..........a	-327.66
	2793	0.5588	4.00471E-002	-1.45056E-005	0.00000E+000	4.00000E-002	8.15923E-005	8	..........a	-327.66
	2794	0.559	2.99471E-002	-1.47056E-005	0.00000E+000	3.00000E-002	8.15923E-005	8	..........a	-327.66
	2795	0.5592	2.01471E-002	-1.48556E-005	0.00000E+000	2.00000E-002	8.15923E-005	8	..........a	-327.66
	2796	0.5594	1.00471E-002	-1.50456E-005	0.00000E+000	1.00000E-002	8.15923E-005	8	..........a	-327.66
	2797	0.5596	4.71142E-005	-1.53356E-005	0.00000E+000	7.45058E-009	8.15923E-005	8	..........a	-327.66
	2798	0.5598	-9.95289E-003	-1.55256E-005	0.00000E+000	-1.00000E-002	8.15923E-005	8	..........a	-327.66
	2799	0.56	-2.01529E-002	-1.58556E-005	0.00000E+000	-2.00000E-002	8.15923E-005	8	..........a	-327.66
	2800	0.5602	-2.99529E-002	-1.61856E-005	0.00000E+000	-3.00000E-002	8.15923E-005	8	..........a	-327.66