File: data/raw/batch_data/20240321_ZI_GM0016_HL03_E09_CV50.DTA
EXPLAIN
TAG	CV
TITLE	LABEL	Cyclic Voltammetry	Test &Identifier
DATE	LABEL	3/21/2024	Date
TIME	LABEL	18:27:21	Time
NOTES	NOTES	1	&Notes...

PSTAT	PSTAT	REF600P-43058	Potentiostat
VINIT	POTEN	0.00000E+000	T	Initial &E (V)
VLIMIT1	POTEN	-6.00000E-001	F	Scan Limit &1 (V)
VLIMIT2	POTEN	8.00000E-001	F	Scan Limit &2 (V)
VFINAL	POTEN	0.00000E+000	T	Final &E (V)
SCANRATE	QUANT	4.99999E+001	&Scan Rate (mV/s)
STEPSIZE	QUANT	1.00000E+001	St&ep Size (mV)
CYCLES	IQUANT	4	C&ycles (#)
IMODE	SELECTOR	1	I/E Range &Mode
IRANGE	QUANT	1.00000E-005	&Max Current (mA)
AREA	QUANT	1.00000E+000	Electrode &Area (cm^2)
ELECTRODETYPE	SELECTOR	0	Electrode Type
STRIPPING	TOGGLE	F	Used for Stripping
POLARITY	TOGGLE	F	Signal Polarity
CONDIT	TWOPARAM	F	1.50000E+001	0.00000E+000	Conditionin&g	Time(s)	E(V)
DELAY	TWOPARAM	T	1.00000E+001	0.00000E+000	Init. De&lay	Time(s)	Stab.(mV/s)
EQDELAY	QUANT	1.00000E+001	Equil. &Time (s)
IRCOMP	SELECTOR	0	IRCom&p
PFCOR	QUANT	5.00000E+001	PF Corr. (ohm)
SAMPLINGMODE	SELECTOR	1	Sampling &Mode
OCVCURVE	TABLE	39
	Pt	T	Vf	Vm	Ach	Over	Temp
	#	s	V vs. Ref.	V	V	bits	deg C
	0	0.258333	1.93430E-001	1.93430E-001	2.47356E-004	..........a	-327.66
	1	0.516667	1.93435E-001	1.93656E-001	2.57822E-004	..........a	-327.66
	2	0.775	1.93465E-001	1.94074E-001	2.63622E-004	..........a	-327.66
	3	1.03333	1.93566E-001	1.94579E-001	2.63422E-004	..........a	-327.66
	4	1.29167	1.93781E-001	1.95135E-001	2.52956E-004	..........a	-327.66
	5	1.55	1.94126E-001	1.95733E-001	2.42156E-004	..........a	-327.66
	6	1.80833	1.94581E-001	1.96344E-001	2.52089E-004	..........a	-327.66
	7	2.06667	1.95113E-001	1.96957E-001	2.60089E-004	..........a	-327.66
	8	2.325	1.95692E-001	1.97575E-001	2.49822E-004	..........a	-327.66
	9	2.58333	1.96295E-001	1.98203E-001	2.49422E-004	..........a	-327.66
	10	2.84167	1.96910E-001	1.98828E-001	2.50756E-004	..........a	-327.66
	11	3.1	1.97530E-001	1.99454E-001	2.56089E-004	..........a	-327.66
	12	3.35833	1.98154E-001	2.00077E-001	2.55889E-004	..........a	-327.66
	13	3.61667	1.98779E-001	2.00693E-001	2.40822E-004	..........a	-327.66
	14	3.875	1.99403E-001	2.01320E-001	2.62756E-004	..........a	-327.66
	15	4.13333	2.00026E-001	2.01933E-001	2.58889E-004	..........a	-327.66
	16	4.39167	2.00647E-001	2.02554E-001	2.69756E-004	..........a	-327.66
	17	4.65	2.01268E-001	2.03170E-001	2.57889E-004	..........a	-327.66
	18	4.90833	2.01887E-001	2.03783E-001	2.69889E-004	..........a	-327.66
	19	5.16667	2.02504E-001	2.04379E-001	2.71356E-004	..........a	-327.66
	20	5.425	2.03118E-001	2.04988E-001	2.44422E-004	..........a	-327.66
	21	5.68333	2.03729E-001	2.05593E-001	2.54889E-004	..........a	-327.66
	22	5.94167	2.04335E-001	2.06178E-001	2.56489E-004	..........a	-327.66
	23	6.2	2.04939E-001	2.06803E-001	2.57822E-004	..........a	-327.66
	24	6.45833	2.05542E-001	2.07405E-001	2.61889E-004	..........a	-327.66
	25	6.71667	2.06145E-001	2.08003E-001	2.54689E-004	..........a	-327.66
	26	6.975	2.06749E-001	2.08596E-001	2.48756E-004	..........a	-327.66
	27	7.23333	2.07353E-001	2.09196E-001	2.67956E-004	..........a	-327.66
	28	7.49167	2.07953E-001	2.09786E-001	2.70556E-004	..........a	-327.66
	29	7.75	2.08551E-001	2.10363E-001	2.63556E-004	..........a	-327.66
	30	8.00833	2.09144E-001	2.10954E-001	2.53956E-004	..........a	-327.66
	31	8.26667	2.09734E-001	2.11535E-001	2.67756E-004	..........a	-327.66
	32	8.525	2.10321E-001	2.12111E-001	2.59022E-004	..........a	-327.66
	33	8.78333	2.10905E-001	2.12693E-001	2.47089E-004	..........a	-327.66
	34	9.04167	2.11487E-001	2.13267E-001	2.54422E-004	..........a	-327.66
	35	9.3	2.12067E-001	2.13835E-001	2.46756E-004	..........a	-327.66
	36	9.5583	2.12644E-001	2.14411E-001	2.62556E-004	..........a	-327.66
	37	9.8167	2.13219E-001	2.14975E-001	2.63889E-004	..........a	-327.66
	38	10.075	2.13792E-001	2.15543E-001	2.48622E-004	..........a	-327.66
EOC	QUANT	0.2137918	Open Circuit (V)
PSTATMODEL	IQUANT	7	Pstat Model
PSTATSECTION	LABEL	REF600P-43058	Pstat Section
PSTATSERIALNO	LABEL	43058	Pstat Serial Number
CTRLMODE	IQUANT	1	Control Mode
ELECTROMETER	IQUANT	0	RE=0 or CS=1
IESTAB	IQUANT	2	I/E Stability
CASPEED	IQUANT	4	Control Amp Speed
CONVENTION	IQUANT	1	Current Convention
ICHRANGE	IQUANT	2	Ich Range
ICHRANGEMODE	TOGGLE	F	Ich Auto Range
ICHOFFSETENABLE	TOGGLE	F	Ich Offset Enable
ICHOFFSET	QUANT	0	Ich Offset (V)
ICHFILTER	IQUANT	2	Ich Filter
VCHRANGE	IQUANT	2	Vch Range
VCHRANGEMODE	TOGGLE	F	Vch Auto Range
VCHOFFSETENABLE	TOGGLE	F	Vch Offset Enable
VCHOFFSET	QUANT	0	Vch Offset (V)
VCHFILTER	IQUANT	2	Vch Filter
ACHRANGE	IQUANT	2	Ach Range
ACHOFFSETENABLE	TOGGLE	F	Ach Offset Enable
ACHOFFSET	QUANT	0	Ach Offset (V)
ACHFILTER	IQUANT	1	Ach Filter
IERANGELOWERLIMIT	IQUANT	1	I/E Range Lower Limit
IERANGEMODE	TOGGLE	F	I/E AutoRange
IERANGE	IQUANT	4	I/E Range
POSFEEDENABLE	TOGGLE	F	Positive Feedback IR Comp
POSFEEDRESISTANCE	QUANT	0	Positive Feedback Resistance (ohm)
ACHSELECT	IQUANT	4	Ach Select
SENSECABLEID	IQUANT	7	Sense Cable ID
PWRCABLEID	IQUANT	7	Power Cable ID
DCCALDATE	LABEL	12/18/2023	DC Calibration Date
ACCALDATE	LABEL	12/18/2023	AC Calibration Date
THERMOSELECT	IQUANT	1	Thermo Select
FRAMEWORKVERSION	LABEL	7.8.4	Framework Version
INSTRUMENTVERSION	LABEL	4.42	Instrument Version
CURVE1	TABLE
	Pt	T	Vf	Im	Vu	Sig	Ach	IERange	Over	Temp
	#	s	V vs. Ref.	A	V	V	V	#	bits	deg C
	0	0.2	2.13809E-001	1.51444E-011	0.00000E+000	2.13800E-001	9.97122E-004	4	..........a	-327.66
	1	0.4	2.03950E-001	-3.06432E-012	0.00000E+000	2.03800E-001	1.00922E-003	4	..........a	-327.66
	2	0.6	1.93441E-001	-1.81439E-011	0.00000E+000	1.93800E-001	1.00902E-003	4	..........a	-327.66
	3	0.8	1.83855E-001	-2.79473E-011	0.00000E+000	1.83800E-001	1.03852E-003	4	..........a	-327.66
	4	1	1.73854E-001	-3.73056E-011	0.00000E+000	1.73800E-001	9.89122E-004	4	..........a	-327.66
	5	1.2	1.63888E-001	-4.35029E-011	0.00000E+000	1.63800E-001	1.01702E-003	4	..........a	-327.66
	6	1.4	1.53826E-001	-5.13772E-011	0.00000E+000	1.53800E-001	1.02202E-003	4	..........a	-327.66
	7	1.6	1.43860E-001	-5.59163E-011	0.00000E+000	1.43800E-001	1.02602E-003	4	..........a	-327.66
	8	1.8	1.33828E-001	-6.19876E-011	0.00000E+000	1.33800E-001	1.02082E-003	4	..........a	-327.66
	9	2	1.23950E-001	-6.80598E-011	0.00000E+000	1.23800E-001	1.00112E-003	4	..........a	-327.66
	10	2.2	1.13866E-001	-7.18650E-011	0.00000E+000	1.13800E-001	1.02112E-003	4	..........a	-327.66
	11	2.4	1.03814E-001	-7.73912E-011	0.00000E+000	1.03800E-001	9.99322E-004	4	..........a	-327.66
	12	2.6	9.38409E-002	-8.24274E-011	0.00000E+000	9.38000E-002	9.89722E-004	4	..........a	-327.66
	13	2.8	8.39166E-002	-8.63745E-011	0.00000E+000	8.38000E-002	1.00102E-003	4	..........a	-327.66
	14	3	7.38576E-002	-9.00167E-011	0.00000E+000	7.38000E-002	1.02102E-003	4	..........a	-327.66
	15	3.2	6.38377E-002	-9.51599E-011	0.00000E+000	6.38000E-002	9.96422E-004	4	..........a	-327.66
	16	3.4	5.38517E-002	-1.00094E-010	0.00000E+000	5.38000E-002	9.94622E-004	4	..........a	-327.66
	17	3.6	4.39634E-002	-1.03148E-010	0.00000E+000	4.38000E-002	9.97622E-004	4	..........a	-327.66
	18	3.8	3.38553E-002	-1.07448E-010	0.00000E+000	3.38000E-002	9.81822E-004	4	..........a	-327.66
	19	4	2.38387E-002	-1.12174E-010	0.00000E+000	2.38000E-002	1.00972E-003	4	..........a	-327.66
	20	4.2	1.38625E-002	-1.15725E-010	0.00000E+000	1.38000E-002	9.90122E-004	4	..........a	-327.66
	21	4.4	3.97239E-003	-1.19503E-010	0.00000E+000	3.80000E-003	1.00622E-003	4	..........a	-327.66
	22	4.6	-6.18016E-003	-1.24055E-010	0.00000E+000	-6.19999E-003	1.01352E-003	4	..........a	-327.66
	23	4.8	-1.61985E-002	-1.28411E-010	0.00000E+000	-1.62000E-002	1.00352E-003	4	..........a	-327.66
	24	5	-2.61690E-002	-1.31950E-010	0.00000E+000	-2.62000E-002	1.01542E-003	4	..........a	-327.66
	25	5.2	-3.60628E-002	-1.36328E-010	0.00000E+000	-3.62000E-002	9.86522E-004	4	..........a	-327.66
	26	5.4	-4.61853E-002	-1.41624E-010	0.00000E+000	-4.62000E-002	1.00232E-003	4	..........a	-327.66
	27	5.6	-5.61012E-002	-1.46455E-010	0.00000E+000	-5.62000E-002	1.01202E-003	4	..........a	-327.66
	28	5.8	-6.61460E-002	-1.50896E-010	0.00000E+000	-6.62000E-002	1.02982E-003	4	..........a	-327.66
	29	6	-7.60319E-002	-1.55050E-010	0.00000E+000	-7.62000E-002	1.00462E-003	4	..........a	-327.66
	30	6.2	-8.61653E-002	-1.60738E-010	0.00000E+000	-8.62000E-002	9.94722E-004	4	..........a	-327.66
	31	6.4	-9.61791E-002	-1.65943E-010	0.00000E+000	-9.62000E-002	9.93222E-004	4	..........a	-327.66
	32	6.6	-1.06172E-001	-1.70741E-010	0.00000E+000	-1.06200E-001	9.95222E-004	4	..........a	-327.66
	33	6.8	-1.16137E-001	-1.75992E-010	0.00000E+000	-1.16200E-001	9.84722E-004	4	..........a	-327.66
	34	7	-1.26147E-001	-1.82174E-010	0.00000E+000	-1.26200E-001	1.00512E-003	4	..........a	-327.66
	35	7.2	-1.36223E-001	-1.87315E-010	0.00000E+000	-1.36200E-001	1.01472E-003	4	..........a	-327.66
	36	7.4	-1.46176E-001	-1.93900E-010	0.00000E+000	-1.46200E-001	1.00082E-003	4	..........a	-327.66
	37	7.6	-1.56070E-001	-1.99298E-010	0.00000E+000	-1.56200E-001	1.02202E-003	4	..........a	-327.66
	38	7.8	-1.66216E-001	-2.05942E-010	0.00000E+000	-1.66200E-001	1.00902E-003	4	..........a	-327.66
	39	8	-1.76217E-001	-2.12788E-010	0.00000E+000	-1.76200E-001	1.01082E-003	4	..........a	-327.66
	40	8.2	-1.86188E-001	-2.19202E-010	0.00000E+000	-1.86200E-001	1.03082E-003	4	..........a	-327.66
	41	8.4	-1.96112E-001	-2.26100E-010	0.00000E+000	-1.96200E-001	9.92522E-004	4	..........a	-327.66
	42	8.6	-2.06128E-001	-2.32790E-010	0.00000E+000	-2.06200E-001	1.00382E-003	4	..........a	-327.66
	43	8.8	-2.15981E-001	-2.39881E-010	0.00000E+000	-2.16200E-001	1.01022E-003	4	..........a	-327.66
	44	9	-2.26131E-001	-2.47179E-010	0.00000E+000	-2.26200E-001	1.01512E-003	4	..........a	-327.66
	45	9.2	-2.36009E-001	-2.55453E-010	0.00000E+000	-2.36200E-001	1.02072E-003	4	..........a	-327.66
	46	9.4	-2.46136E-001	-2.63014E-010	0.00000E+000	-2.46200E-001	1.00332E-003	4	..........a	-327.66
	47	9.6	-2.56181E-001	-2.71503E-010	0.00000E+000	-2.56200E-001	1.02852E-003	4	..........a	-327.66
	48	9.8	-2.66100E-001	-2.83061E-010	0.00000E+000	-2.66200E-001	9.96722E-004	4	..........a	-327.66
	49	10	-2.76092E-001	-2.92172E-010	0.00000E+000	-2.76200E-001	1.00632E-003	4	..........a	-327.66
	50	10.2	-2.86143E-001	-2.98110E-010	0.00000E+000	-2.86200E-001	9.96622E-004	4	..........a	-327.66
	51	10.4	-2.96094E-001	-3.09051E-010	0.00000E+000	-2.96200E-001	9.94122E-004	4	..........a	-327.66
	52	10.6	-3.06157E-001	-3.16328E-010	0.00000E+000	-3.06200E-001	1.03042E-003	4	..........a	-327.66
	53	10.8	-3.16052E-001	-3.27726E-010	0.00000E+000	-3.16200E-001	9.93522E-004	4	..........a	-327.66
	54	11	-3.26140E-001	-3.38981E-010	0.00000E+000	-3.26200E-001	1.00272E-003	4	..........a	-327.66
	55	11.2	-3.36056E-001	-3.49519E-010	0.00000E+000	-3.36200E-001	1.02452E-003	4	..........a	-327.66
	56	11.4	-3.46169E-001	-3.52900E-010	0.00000E+000	-3.46200E-001	9.93022E-004	4	..........a	-327.66
	57	11.6	-3.56086E-001	-3.73691E-010	0.00000E+000	-3.56200E-001	1.02022E-003	4	..........a	-327.66
	58	11.8	-3.66150E-001	-3.86425E-010	0.00000E+000	-3.66200E-001	1.02272E-003	4	..........a	-327.66
	59	12	-3.76138E-001	-3.97615E-010	0.00000E+000	-3.76200E-001	9.87622E-004	4	..........a	-327.66
	60	12.2	-3.86106E-001	-4.13591E-010	0.00000E+000	-3.86200E-001	1.00262E-003	4	..........a	-327.66
	61	12.4	-3.96017E-001	-4.24354E-010	0.00000E+000	-3.96200E-001	1.02192E-003	4	..........a	-327.66
	62	12.6	-4.06119E-001	-4.39016E-010	0.00000E+000	-4.06200E-001	1.00092E-003	4	..........a	-327.66
	63	12.8	-4.16002E-001	-4.54141E-010	0.00000E+000	-4.16200E-001	1.03142E-003	4	..........a	-327.66
	64	13	-4.26107E-001	-4.68210E-010	0.00000E+000	-4.26200E-001	9.86822E-004	4	..........a	-327.66
	65	13.2	-4.36045E-001	-4.80252E-010	0.00000E+000	-4.36200E-001	1.04112E-003	4	..........a	-327.66
	66	13.4	-4.46115E-001	-5.00673E-010	0.00000E+000	-4.46200E-001	1.01172E-003	4	..........a	-327.66
	67	13.6	-4.56147E-001	-5.18030E-010	0.00000E+000	-4.56200E-001	9.94622E-004	4	..........a	-327.66
	68	13.8	-4.66062E-001	-5.35589E-010	0.00000E+000	-4.66200E-001	1.00462E-003	4	..........a	-327.66
	69	14	-4.76071E-001	-5.53247E-010	0.00000E+000	-4.76200E-001	1.02362E-003	4	..........a	-327.66
	70	14.2	-4.86107E-001	-5.73994E-010	0.00000E+000	-4.86200E-001	9.89022E-004	4	..........a	-327.66
	71	14.4	-4.95977E-001	-5.92305E-010	0.00000E+000	-4.96200E-001	9.98722E-004	4	..........a	-327.66
	72	14.6	-5.06087E-001	-6.13836E-010	0.00000E+000	-5.06200E-001	9.80722E-004	4	..........a	-327.66
	73	14.8	-5.16012E-001	-6.34337E-010	0.00000E+000	-5.16200E-001	1.00732E-003	4	..........a	-327.66
	74	15	-5.26122E-001	-6.58031E-010	0.00000E+000	-5.26200E-001	1.01122E-003	4	..........a	-327.66
	75	15.2	-5.36078E-001	-6.81835E-010	0.00000E+000	-5.36200E-001	1.01392E-003	4	..........a	-327.66
	76	15.4	-5.46113E-001	-7.07693E-010	0.00000E+000	-5.46200E-001	1.01442E-003	4	..........a	-327.66
	77	15.6	-5.56032E-001	-7.33612E-010	0.00000E+000	-5.56200E-001	1.02272E-003	4	..........a	-327.66
	78	15.8	-5.66098E-001	-7.62840E-010	0.00000E+000	-5.66200E-001	1.01842E-003	4	..........a	-327.66
	79	16	-5.76085E-001	-7.95895E-010	0.00000E+000	-5.76200E-001	1.01512E-003	4	..........a	-327.66
	80	16.2	-5.86085E-001	-8.24921E-010	0.00000E+000	-5.86200E-001	1.03552E-003	4	..........a	-327.66
	81	16.4	-5.95997E-001	-8.61537E-010	0.00000E+000	-5.96200E-001	1.01862E-003	4	..........a	-327.66
	82	16.6	-5.86105E-001	-7.22347E-010	0.00000E+000	-5.86200E-001	1.02762E-003	4	..........a	-327.66
	83	16.8	-5.76034E-001	-6.27542E-010	0.00000E+000	-5.76200E-001	9.93722E-004	4	..........a	-327.66
	84	17	-5.66084E-001	-5.50754E-010	0.00000E+000	-5.66200E-001	9.84722E-004	4	..........a	-327.66
	85	17.2	-5.56080E-001	-4.80966E-010	0.00000E+000	-5.56200E-001	1.00042E-003	4	..........a	-327.66
	86	17.4	-5.46129E-001	-4.27467E-010	0.00000E+000	-5.46200E-001	1.01852E-003	4	..........a	-327.66
	87	17.6	-5.36039E-001	-3.76736E-010	0.00000E+000	-5.36200E-001	1.00352E-003	4	..........a	-327.66
	88	17.8	-5.26128E-001	-3.30797E-010	0.00000E+000	-5.26200E-001	1.00182E-003	4	..........a	-327.66
	89	18	-5.16041E-001	-2.91499E-010	0.00000E+000	-5.16200E-001	1.00382E-003	4	..........a	-327.66
	90	18.2	-5.06103E-001	-2.49568E-010	0.00000E+000	-5.06200E-001	1.01222E-003	4	..........a	-327.66
	91	18.4	-4.96105E-001	-2.14523E-010	0.00000E+000	-4.96200E-001	1.00882E-003	4	..........a	-327.66
	92	18.6	-4.86085E-001	-1.82488E-010	0.00000E+000	-4.86200E-001	1.00292E-003	4	..........a	-327.66
	93	18.8	-4.76042E-001	-1.52727E-010	0.00000E+000	-4.76200E-001	1.00512E-003	4	..........a	-327.66
	94	19	-4.66112E-001	-1.25702E-010	0.00000E+000	-4.66200E-001	1.00532E-003	4	..........a	-327.66
	95	19.2	-4.56118E-001	-1.00783E-010	0.00000E+000	-4.56200E-001	1.01972E-003	4	..........a	-327.66
	96	19.4	-4.46143E-001	-7.68271E-011	0.00000E+000	-4.46200E-001	1.02142E-003	4	..........a	-327.66
	97	19.6	-4.36009E-001	-5.54153E-011	0.00000E+000	-4.36200E-001	1.02362E-003	4	..........a	-327.66
	98	19.8	-4.26106E-001	-3.73996E-011	0.00000E+000	-4.26200E-001	1.01802E-003	4	..........a	-327.66
	99	20	-4.16197E-001	-1.83309E-011	0.00000E+000	-4.16200E-001	1.00952E-003	4	..........a	-327.66
	100	20.2	-4.06153E-001	-1.30725E-012	0.00000E+000	-4.06200E-001	1.00732E-003	4	..........a	-327.66
	101	20.4	-3.96051E-001	1.60204E-011	0.00000E+000	-3.96200E-001	1.00172E-003	4	..........a	-327.66
	102	20.6	-3.86167E-001	3.10120E-011	0.00000E+000	-3.86200E-001	1.00102E-003	4	..........a	-327.66
	103	20.8	-3.76112E-001	4.34955E-011	0.00000E+000	-3.76200E-001	1.00312E-003	4	..........a	-327.66
	104	21	-3.66106E-001	5.63060E-011	0.00000E+000	-3.66200E-001	9.87222E-004	4	..........a	-327.66
	105	21.2	-3.56035E-001	6.86004E-011	0.00000E+000	-3.56200E-001	1.00862E-003	4	..........a	-327.66
	106	21.4	-3.46155E-001	7.98139E-011	0.00000E+000	-3.46200E-001	1.01422E-003	4	..........a	-327.66
	107	21.6	-3.36112E-001	9.00123E-011	0.00000E+000	-3.36200E-001	1.03772E-003	4	..........a	-327.66
	108	21.8	-3.26125E-001	9.89926E-011	0.00000E+000	-3.26200E-001	9.94722E-004	4	..........a	-327.66
	109	22	-3.16037E-001	1.08908E-010	0.00000E+000	-3.16200E-001	1.01282E-003	4	..........a	-327.66
	110	22.2	-3.06122E-001	1.18195E-010	0.00000E+000	-3.06200E-001	1.01392E-003	4	..........a	-327.66
	111	22.4	-2.96157E-001	1.26940E-010	0.00000E+000	-2.96200E-001	9.84822E-004	4	..........a	-327.66
	112	22.6	-2.86129E-001	1.32818E-010	0.00000E+000	-2.86200E-001	9.92222E-004	4	..........a	-327.66
	113	22.8	-2.76063E-001	1.39099E-010	0.00000E+000	-2.76200E-001	9.93922E-004	4	..........a	-327.66
	114	23	-2.66140E-001	1.44923E-010	0.00000E+000	-2.66200E-001	9.99722E-004	4	..........a	-327.66
	115	23.2	-2.56165E-001	1.55383E-010	0.00000E+000	-2.56200E-001	9.94422E-004	4	..........a	-327.66
	116	23.4	-2.46164E-001	1.59569E-010	0.00000E+000	-2.46200E-001	1.01322E-003	4	..........a	-327.66
	117	23.6	-2.36022E-001	1.61925E-010	0.00000E+000	-2.36200E-001	9.95822E-004	4	..........a	-327.66
	118	23.8	-2.26140E-001	1.63904E-010	0.00000E+000	-2.26200E-001	1.01942E-003	4	..........a	-327.66
	119	24	-2.16149E-001	1.68397E-010	0.00000E+000	-2.16200E-001	9.97322E-004	4	..........a	-327.66
	120	24.2	-2.06126E-001	1.71661E-010	0.00000E+000	-2.06200E-001	1.00432E-003	4	..........a	-327.66
	121	24.4	-1.96118E-001	1.74678E-010	0.00000E+000	-1.96200E-001	1.01012E-003	4	..........a	-327.66
	122	24.6	-1.86195E-001	1.77955E-010	0.00000E+000	-1.86200E-001	1.00282E-003	4	..........a	-327.66
	123	24.8	-1.76199E-001	1.80874E-010	0.00000E+000	-1.76200E-001	9.83622E-004	4	..........a	-327.66
	124	25	-1.66139E-001	1.83273E-010	0.00000E+000	-1.66200E-001	1.01692E-003	4	..........a	-327.66
	125	25.2	-1.56071E-001	1.85189E-010	0.00000E+000	-1.56200E-001	9.95522E-004	4	..........a	-327.66
	126	25.4	-1.46158E-001	1.86354E-010	0.00000E+000	-1.46200E-001	1.00082E-003	4	..........a	-327.66
	127	25.6	-1.36190E-001	1.89546E-010	0.00000E+000	-1.36200E-001	1.02092E-003	4	..........a	-327.66
	128	25.8	-1.26177E-001	1.90161E-010	0.00000E+000	-1.26200E-001	1.00592E-003	4	..........a	-327.66
	129	26	-1.16144E-001	1.92063E-010	0.00000E+000	-1.16200E-001	1.01922E-003	4	..........a	-327.66
	130	26.2	-1.06179E-001	1.93228E-010	0.00000E+000	-1.06200E-001	9.94622E-004	4	..........a	-327.66
	131	26.4	-9.61671E-002	1.95669E-010	0.00000E+000	-9.62000E-002	1.00312E-003	4	..........a	-327.66
	132	26.6	-8.61717E-002	1.95688E-010	0.00000E+000	-8.62000E-002	1.01602E-003	4	..........a	-327.66
	133	26.8	-7.60276E-002	1.97702E-010	0.00000E+000	-7.62000E-002	1.02052E-003	4	..........a	-327.66
	134	27	-6.61559E-002	1.97708E-010	0.00000E+000	-6.62000E-002	9.92822E-004	4	..........a	-327.66
	135	27.2	-5.61343E-002	1.99244E-010	0.00000E+000	-5.62000E-002	1.00502E-003	4	..........a	-327.66
	136	27.4	-4.61560E-002	1.99959E-010	0.00000E+000	-4.62000E-002	1.00372E-003	4	..........a	-327.66
	137	27.6	-3.61126E-002	1.99577E-010	0.00000E+000	-3.62000E-002	1.00452E-003	4	..........a	-327.66
	138	27.8	-2.61454E-002	2.01147E-010	0.00000E+000	-2.62000E-002	1.02162E-003	4	..........a	-327.66
	139	28	-1.61531E-002	2.01126E-010	0.00000E+000	-1.62000E-002	1.00082E-003	4	..........a	-327.66
	140	28.2	-6.12961E-003	2.01929E-010	0.00000E+000	-6.19999E-003	9.89322E-004	4	..........a	-327.66
	141	28.4	3.96449E-003	2.02419E-010	0.00000E+000	3.80000E-003	9.97422E-004	4	..........a	-327.66
	142	28.6	1.38924E-002	2.02758E-010	0.00000E+000	1.38000E-002	9.93222E-004	4	..........a	-327.66
	143	28.8	2.38598E-002	2.02927E-010	0.00000E+000	2.38000E-002	1.00802E-003	4	..........a	-327.66
	144	29	3.38793E-002	2.03310E-010	0.00000E+000	3.38000E-002	1.01262E-003	4	..........a	-327.66
	145	29.2	4.39878E-002	2.04208E-010	0.00000E+000	4.38000E-002	1.01842E-003	4	..........a	-327.66
	146	29.4	5.38653E-002	2.04146E-010	0.00000E+000	5.38000E-002	9.89022E-004	4	..........a	-327.66
	147	29.6	6.38607E-002	2.05561E-010	0.00000E+000	6.38000E-002	1.00312E-003	4	..........a	-327.66
	148	29.8	7.38601E-002	2.05793E-010	0.00000E+000	7.38000E-002	9.93622E-004	4	..........a	-327.66
	149	30	8.39246E-002	2.07173E-010	0.00000E+000	8.38000E-002	1.00702E-003	4	..........a	-327.66
	150	30.2	9.38450E-002	2.08450E-010	0.00000E+000	9.38000E-002	1.01622E-003	4	..........a	-327.66
	151	30.4	1.03861E-001	2.08914E-010	0.00000E+000	1.03800E-001	1.00092E-003	4	..........a	-327.66
	152	30.6	1.13854E-001	2.09586E-010	0.00000E+000	1.13800E-001	1.01172E-003	4	..........a	-327.66
	153	30.8	1.23967E-001	2.11193E-010	0.00000E+000	1.23800E-001	1.00612E-003	4	..........a	-327.66
	154	31	1.33860E-001	2.12374E-010	0.00000E+000	1.33800E-001	1.00512E-003	4	..........a	-327.66
	155	31.2	1.43894E-001	2.13467E-010	0.00000E+000	1.43800E-001	9.80322E-004	4	..........a	-327.66
	156	31.4	1.53866E-001	2.14706E-010	0.00000E+000	1.53800E-001	1.01592E-003	4	..........a	-327.66
	157	31.6	1.63905E-001	2.15795E-010	0.00000E+000	1.63800E-001	1.02102E-003	4	..........a	-327.66
	158	31.8	1.73889E-001	2.16933E-010	0.00000E+000	1.73800E-001	1.00572E-003	4	..........a	-327.66
	159	32	1.83843E-001	2.17339E-010	0.00000E+000	1.83800E-001	1.01842E-003	4	..........a	-327.66
	160	32.2	1.93412E-001	2.17792E-010	0.00000E+000	1.93800E-001	9.87322E-004	4	..........a	-327.66
	161	32.4	2.03936E-001	2.19271E-010	0.00000E+000	2.03800E-001	1.00422E-003	4	..........a	-327.66
	162	32.6	2.13828E-001	2.19810E-010	0.00000E+000	2.13800E-001	1.00742E-003	4	..........a	-327.66
	163	32.8	2.23801E-001	2.21983E-010	0.00000E+000	2.23800E-001	1.02092E-003	4	..........a	-327.66
	164	33	2.33822E-001	2.24414E-010	0.00000E+000	2.33800E-001	1.02252E-003	4	..........a	-327.66
	165	33.2	2.43945E-001	2.27031E-010	0.00000E+000	2.43800E-001	1.04782E-003	4	..........a	-327.66
	166	33.4	2.53804E-001	2.29994E-010	0.00000E+000	2.53800E-001	1.01702E-003	4	..........a	-327.66
	167	33.6	2.63794E-001	2.32351E-010	0.00000E+000	2.63800E-001	1.01182E-003	4	..........a	-327.66
	168	33.8	2.73820E-001	2.34398E-010	0.00000E+000	2.73800E-001	1.01322E-003	4	..........a	-327.66
	169	34	2.83906E-001	2.36862E-010	0.00000E+000	2.83800E-001	9.84722E-004	4	..........a	-327.66
	170	34.2	2.93820E-001	2.39392E-010	0.00000E+000	2.93800E-001	9.87522E-004	4	..........a	-327.66
	171	34.4	3.03711E-001	2.43030E-010	0.00000E+000	3.03800E-001	1.02402E-003	4	..........a	-327.66
	172	34.6	3.13843E-001	2.45640E-010	0.00000E+000	3.13800E-001	9.77822E-004	4	..........a	-327.66
	173	34.8	3.23895E-001	2.48081E-010	0.00000E+000	3.23800E-001	1.00932E-003	4	..........a	-327.66
	174	35	3.33821E-001	2.50146E-010	0.00000E+000	3.33800E-001	1.00712E-003	4	..........a	-327.66
	175	35.2	3.43780E-001	2.53208E-010	0.00000E+000	3.43800E-001	9.76522E-004	4	..........a	-327.66
	176	35.4	3.53786E-001	2.56528E-010	0.00000E+000	3.53800E-001	9.96222E-004	4	..........a	-327.66
	177	35.6	3.63897E-001	2.59215E-010	0.00000E+000	3.63800E-001	1.01212E-003	4	..........a	-327.66
	178	35.8	3.73782E-001	2.61799E-010	0.00000E+000	3.73800E-001	1.02112E-003	4	..........a	-327.66
	179	36	3.83697E-001	2.65040E-010	0.00000E+000	3.83800E-001	1.02712E-003	4	..........a	-327.66
	180	36.2	3.93812E-001	2.68922E-010	0.00000E+000	3.93800E-001	1.02262E-003	4	..........a	-327.66
	181	36.4	4.03866E-001	2.71839E-010	0.00000E+000	4.03800E-001	1.00702E-003	4	..........a	-327.66
	182	36.6	4.13743E-001	2.75116E-010	0.00000E+000	4.13800E-001	1.02042E-003	4	..........a	-327.66
	183	36.8	4.23681E-001	2.79620E-010	0.00000E+000	4.23800E-001	1.04002E-003	4	..........a	-327.66
	184	37	4.33758E-001	2.83637E-010	0.00000E+000	4.33800E-001	1.02042E-003	4	..........a	-327.66
	185	37.2	4.43871E-001	2.87417E-010	0.00000E+000	4.43800E-001	9.97722E-004	4	..........a	-327.66
	186	37.4	4.53693E-001	2.91152E-010	0.00000E+000	4.53800E-001	1.00342E-003	4	..........a	-327.66
	187	37.6	4.63702E-001	2.96088E-010	0.00000E+000	4.63800E-001	9.80722E-004	4	..........a	-327.66
	188	37.8	4.73772E-001	3.00674E-010	0.00000E+000	4.73800E-001	1.00742E-003	4	..........a	-327.66
	189	38	4.83879E-001	3.04823E-010	0.00000E+000	4.83800E-001	1.02192E-003	4	..........a	-327.66
	190	38.2	4.93796E-001	3.09044E-010	0.00000E+000	4.93800E-001	1.00122E-003	4	..........a	-327.66
	191	38.4	5.03708E-001	3.15354E-010	0.00000E+000	5.03800E-001	1.02002E-003	4	..........a	-327.66
	192	38.6	5.13765E-001	3.19818E-010	0.00000E+000	5.13800E-001	1.00262E-003	4	..........a	-327.66
	193	38.8	5.23834E-001	3.26291E-010	0.00000E+000	5.23800E-001	1.01212E-003	4	..........a	-327.66
	194	39	5.33769E-001	3.31907E-010	0.00000E+000	5.33800E-001	1.01632E-003	4	..........a	-327.66
	195	39.2	5.43778E-001	3.38626E-010	0.00000E+000	5.43800E-001	1.01132E-003	4	..........a	-327.66
	196	39.4	5.53808E-001	3.44601E-010	0.00000E+000	5.53800E-001	1.01632E-003	4	..........a	-327.66
	197	39.6	5.63851E-001	3.50777E-010	0.00000E+000	5.63800E-001	1.01232E-003	4	..........a	-327.66
	198	39.8	5.73799E-001	3.57782E-010	0.00000E+000	5.73800E-001	9.92822E-004	4	..........a	-327.66
	199	40	5.83801E-001	3.66074E-010	0.00000E+000	5.83800E-001	1.02412E-003	4	..........a	-327.66
	200	40.2	5.93753E-001	3.73055E-010	0.00000E+000	5.93800E-001	1.01862E-003	4	..........a	-327.66
	201	40.4	6.03920E-001	3.80681E-010	0.00000E+000	6.03800E-001	1.00732E-003	4	..........a	-327.66
	202	40.6	6.13743E-001	3.88544E-010	0.00000E+000	6.13800E-001	1.03512E-003	4	..........a	-327.66
	203	40.8	6.23739E-001	3.97436E-010	0.00000E+000	6.23800E-001	1.00592E-003	4	..........a	-327.66
	204	41	6.33751E-001	4.06762E-010	0.00000E+000	6.33800E-001	1.02412E-003	4	..........a	-327.66
	205	41.2	6.43821E-001	4.15287E-010	0.00000E+000	6.43800E-001	1.00812E-003	4	..........a	-327.66
	206	41.4	6.53785E-001	4.25132E-010	0.00000E+000	6.53800E-001	1.02422E-003	4	..........a	-327.66
	207	41.6	6.63717E-001	4.34593E-010	0.00000E+000	6.63800E-001	1.01622E-003	4	..........a	-327.66
	208	41.8	6.73762E-001	4.42511E-010	0.00000E+000	6.73800E-001	1.01432E-003	4	..........a	-327.66
	209	42	6.83882E-001	4.52802E-010	0.00000E+000	6.83800E-001	1.00672E-003	4	..........a	-327.66
	210	42.2	6.93737E-001	4.61573E-010	0.00000E+000	6.93800E-001	1.01572E-003	4	..........a	-327.66
	211	42.4	7.03780E-001	4.72304E-010	0.00000E+000	7.03800E-001	9.96022E-004	4	..........a	-327.66
	212	42.6	7.13707E-001	4.82272E-010	0.00000E+000	7.13800E-001	1.01092E-003	4	..........a	-327.66
	213	42.8	7.23800E-001	4.94601E-010	0.00000E+000	7.23800E-001	1.00192E-003	4	..........a	-327.66
	214	43	7.33758E-001	5.06542E-010	0.00000E+000	7.33800E-001	1.00362E-003	4	..........a	-327.66
	215	43.2	7.43739E-001	5.19778E-010	0.00000E+000	7.43800E-001	1.01452E-003	4	..........a	-327.66
	216	43.4	7.53773E-001	5.37009E-010	0.00000E+000	7.53800E-001	9.97222E-004	4	..........a	-327.66
	217	43.6	7.63820E-001	5.49454E-010	0.00000E+000	7.63800E-001	1.00452E-003	4	..........a	-327.66
	218	43.8	7.73773E-001	5.66415E-010	0.00000E+000	7.73800E-001	9.87822E-004	4	..........a	-327.66
	219	44	7.83732E-001	5.83511E-010	0.00000E+000	7.83800E-001	9.99122E-004	4	..........a	-327.66
	220	44.2	7.93731E-001	6.02101E-010	0.00000E+000	7.93800E-001	9.85422E-004	4	..........a	-327.66
	221	44.4	8.03787E-001	6.24230E-010	0.00000E+000	8.03800E-001	9.94522E-004	4	..........a	-327.66
CURVE2	TABLE
	Pt	T	Vf	Im	Vu	Sig	Ach	IERange	Over	Temp
	#	s	V vs. Ref.	A	V	V	V	#	bits	deg C
	222	44.6	7.89909E-001	4.61366E-010	0.00000E+000	7.90000E-001	1.02442E-003	4	..........a	-327.66
	223	44.8	7.79979E-001	3.83012E-010	0.00000E+000	7.80000E-001	9.99222E-004	4	..........a	-327.66
	224	45	7.69867E-001	3.23116E-010	0.00000E+000	7.70000E-001	1.02082E-003	4	..........a	-327.66
	225	45.2	7.59911E-001	2.77193E-010	0.00000E+000	7.60000E-001	1.04402E-003	4	..........a	-327.66
	226	45.4	7.49927E-001	2.38602E-010	0.00000E+000	7.50000E-001	1.00482E-003	4	..........a	-327.66
	227	45.6	7.40008E-001	2.08224E-010	0.00000E+000	7.40000E-001	1.03422E-003	4	..........a	-327.66
	228	45.8	7.29931E-001	1.81656E-010	0.00000E+000	7.30000E-001	1.01142E-003	4	..........a	-327.66
	229	46	7.19934E-001	1.56078E-010	0.00000E+000	7.20000E-001	1.01292E-003	4	..........a	-327.66
	230	46.2	7.09952E-001	1.37664E-010	0.00000E+000	7.10000E-001	1.01482E-003	4	..........a	-327.66
	231	46.4	6.99996E-001	1.20455E-010	0.00000E+000	7.00000E-001	1.01292E-003	4	..........a	-327.66
	232	46.6	6.89965E-001	1.03555E-010	0.00000E+000	6.90000E-001	1.00392E-003	4	..........a	-327.66
	233	46.8	6.79813E-001	8.83222E-011	0.00000E+000	6.80000E-001	1.00222E-003	4	..........a	-327.66
	234	47	6.69949E-001	7.43796E-011	0.00000E+000	6.70000E-001	1.01922E-003	4	..........a	-327.66
	235	47.2	6.60007E-001	6.04191E-011	0.00000E+000	6.60000E-001	1.01652E-003	4	..........a	-327.66
	236	47.4	6.49910E-001	4.95117E-011	0.00000E+000	6.50000E-001	1.00222E-003	4	..........a	-327.66
	237	47.6	6.39895E-001	3.94243E-011	0.00000E+000	6.40000E-001	1.00222E-003	4	..........a	-327.66
	238	47.8	6.29950E-001	2.75159E-011	0.00000E+000	6.30000E-001	1.00012E-003	4	..........a	-327.66
	239	48	6.19999E-001	1.96326E-011	0.00000E+000	6.20000E-001	1.02072E-003	4	..........a	-327.66
	240	48.2	6.10017E-001	9.54717E-012	0.00000E+000	6.10000E-001	9.91622E-004	4	..........a	-327.66
	241	48.4	5.99943E-001	1.23885E-012	0.00000E+000	6.00000E-001	1.01752E-003	4	..........a	-327.66
	242	48.6	5.89985E-001	-6.78946E-012	0.00000E+000	5.90000E-001	1.02582E-003	4	..........a	-327.66
	243	48.8	5.80007E-001	-1.47848E-011	0.00000E+000	5.80000E-001	1.00522E-003	4	..........a	-327.66
	244	49	5.69987E-001	-2.24881E-011	0.00000E+000	5.70000E-001	9.85422E-004	4	..........a	-327.66
	245	49.2	5.59992E-001	-3.02034E-011	0.00000E+000	5.60000E-001	1.01742E-003	4	..........a	-327.66
	246	49.4	5.49980E-001	-3.75856E-011	0.00000E+000	5.50000E-001	1.01422E-003	4	..........a	-327.66
	247	49.6	5.40037E-001	-4.20208E-011	0.00000E+000	5.40000E-001	1.01742E-003	4	..........a	-327.66
	248	49.8	5.29929E-001	-4.93701E-011	0.00000E+000	5.30000E-001	1.02792E-003	4	..........a	-327.66
	249	50	5.19979E-001	-5.48933E-011	0.00000E+000	5.20000E-001	1.02722E-003	4	..........a	-327.66
	250	50.2	5.09916E-001	-6.05835E-011	0.00000E+000	5.10000E-001	1.00802E-003	4	..........a	-327.66
	251	50.4	5.00031E-001	-6.73898E-011	0.00000E+000	5.00000E-001	1.01222E-003	4	..........a	-327.66
	252	50.6	4.90005E-001	-7.09049E-011	0.00000E+000	4.90000E-001	9.98622E-004	4	..........a	-327.66
	253	50.8	4.79912E-001	-7.57751E-011	0.00000E+000	4.80000E-001	1.01522E-003	4	..........a	-327.66
	254	51	4.69945E-001	-8.12323E-011	0.00000E+000	4.70000E-001	9.98322E-004	4	..........a	-327.66
	255	51.2	4.60017E-001	-8.60785E-011	0.00000E+000	4.60000E-001	1.01692E-003	4	..........a	-327.66
	256	51.4	4.50075E-001	-9.06177E-011	0.00000E+000	4.50000E-001	9.93922E-004	4	..........a	-327.66
	257	51.6	4.39992E-001	-9.55279E-011	0.00000E+000	4.40000E-001	1.00482E-003	4	..........a	-327.66
	258	51.8	4.29970E-001	-9.98060E-011	0.00000E+000	4.30000E-001	1.01352E-003	4	..........a	-327.66
	259	52	4.20037E-001	-1.03421E-010	0.00000E+000	4.20000E-001	1.02932E-003	4	..........a	-327.66
	260	52.2	4.09943E-001	-1.07580E-010	0.00000E+000	4.10000E-001	1.02142E-003	4	..........a	-327.66
	261	52.4	4.00084E-001	-1.11975E-010	0.00000E+000	4.00000E-001	9.93622E-004	4	..........a	-327.66
	262	52.6	3.89990E-001	-1.15740E-010	0.00000E+000	3.90000E-001	9.98422E-004	4	..........a	-327.66
	263	52.8	3.80030E-001	-1.18924E-010	0.00000E+000	3.80000E-001	1.03512E-003	4	..........a	-327.66
	264	53	3.70022E-001	-1.22965E-010	0.00000E+000	3.70000E-001	1.01962E-003	4	..........a	-327.66
	265	53.2	3.59956E-001	-1.27042E-010	0.00000E+000	3.60000E-001	1.03382E-003	4	..........a	-327.66
	266	53.4	3.49937E-001	-1.29574E-010	0.00000E+000	3.50000E-001	9.98122E-004	4	..........a	-327.66
	267	53.6	3.40056E-001	-1.34056E-010	0.00000E+000	3.40000E-001	1.01252E-003	4	..........a	-327.66
	268	53.8	3.30031E-001	-1.37400E-010	0.00000E+000	3.30000E-001	1.00852E-003	4	..........a	-327.66
	269	54	3.19900E-001	-1.41653E-010	0.00000E+000	3.20000E-001	1.00672E-003	4	..........a	-327.66
	270	54.2	3.09962E-001	-1.44673E-010	0.00000E+000	3.10000E-001	1.00052E-003	4	..........a	-327.66
	271	54.4	3.00011E-001	-1.47987E-010	0.00000E+000	3.00000E-001	1.04122E-003	4	..........a	-327.66
	272	54.6	2.90042E-001	-1.50530E-010	0.00000E+000	2.90000E-001	1.02402E-003	4	..........a	-327.66
	273	54.8	2.80019E-001	-1.53477E-010	0.00000E+000	2.80000E-001	1.03812E-003	4	..........a	-327.66
	274	55	2.69972E-001	-1.56863E-010	0.00000E+000	2.70000E-001	9.98622E-004	4	..........a	-327.66
	275	55.2	2.60021E-001	-1.59442E-010	0.00000E+000	2.60000E-001	1.02382E-003	4	..........a	-327.66
	276	55.4	2.50028E-001	-1.62735E-010	0.00000E+000	2.50000E-001	9.84222E-004	4	..........a	-327.66
	277	55.6	2.40016E-001	-1.65305E-010	0.00000E+000	2.40000E-001	9.95622E-004	4	..........a	-327.66
	278	55.8	2.29998E-001	-1.67064E-010	0.00000E+000	2.30000E-001	9.99222E-004	4	..........a	-327.66
	279	56	2.20032E-001	-1.69307E-010	0.00000E+000	2.20000E-001	1.01612E-003	4	..........a	-327.66
	280	56.2	2.10004E-001	-1.71493E-010	0.00000E+000	2.10000E-001	9.86622E-004	4	..........a	-327.66
	281	56.4	2.00032E-001	-1.74817E-010	0.00000E+000	2.00000E-001	1.00092E-003	4	..........a	-327.66
	282	56.6	1.90030E-001	-1.76035E-010	0.00000E+000	1.90000E-001	9.85022E-004	4	..........a	-327.66
	283	56.8	1.80048E-001	-1.78008E-010	0.00000E+000	1.80000E-001	1.02092E-003	4	..........a	-327.66
	284	57	1.70150E-001	-1.79879E-010	0.00000E+000	1.70000E-001	9.99422E-004	4	..........a	-327.66
	285	57.2	1.60032E-001	-1.81484E-010	0.00000E+000	1.60000E-001	1.00392E-003	4	..........a	-327.66
	286	57.4	1.49993E-001	-1.83309E-010	0.00000E+000	1.50000E-001	1.01442E-003	4	..........a	-327.66
	287	57.6	1.40095E-001	-1.84792E-010	0.00000E+000	1.40000E-001	1.02312E-003	4	..........a	-327.66
	288	57.8	1.30106E-001	-1.86786E-010	0.00000E+000	1.30000E-001	1.02142E-003	4	..........a	-327.66
	289	58	1.19998E-001	-1.88650E-010	0.00000E+000	1.20000E-001	1.02062E-003	4	..........a	-327.66
	290	58.2	1.10027E-001	-1.90375E-010	0.00000E+000	1.10000E-001	1.01372E-003	4	..........a	-327.66
	291	58.4	9.99787E-002	-1.92355E-010	0.00000E+000	1.00000E-001	1.02552E-003	4	..........a	-327.66
	292	58.6	9.01493E-002	-1.94354E-010	0.00000E+000	9.00000E-002	1.02892E-003	4	..........a	-327.66
	293	58.8	8.00002E-002	-1.96928E-010	0.00000E+000	8.00000E-002	1.01922E-003	4	..........a	-327.66
	294	59	6.99605E-002	-1.99003E-010	0.00000E+000	7.00000E-002	9.95622E-004	4	..........a	-327.66
	295	59.2	6.00545E-002	-2.01505E-010	0.00000E+000	6.00000E-002	1.00042E-003	4	..........a	-327.66
	296	59.4	5.00267E-002	-2.03390E-010	0.00000E+000	5.00000E-002	1.02052E-003	4	..........a	-327.66
	297	59.6	4.00413E-002	-2.06174E-010	0.00000E+000	4.00000E-002	1.02262E-003	4	..........a	-327.66
	298	59.8	2.99999E-002	-2.09419E-010	0.00000E+000	3.00000E-002	9.91922E-004	4	..........a	-327.66
	299	60	2.00310E-002	-2.12674E-010	0.00000E+000	2.00000E-002	1.00342E-003	4	..........a	-327.66
	300	60.2	1.01025E-002	-2.15743E-010	0.00000E+000	1.00000E-002	1.01452E-003	4	..........a	-327.66
	301	60.4	-3.80917E-006	-2.19826E-010	0.00000E+000	7.45058E-009	1.01612E-003	4	..........a	-327.66
	302	60.6	-1.00287E-002	-2.23413E-010	0.00000E+000	-1.00000E-002	1.00312E-003	4	..........a	-327.66
	303	60.8	-1.99191E-002	-2.27818E-010	0.00000E+000	-2.00000E-002	1.01952E-003	4	..........a	-327.66
	304	61	-2.99137E-002	-2.31895E-010	0.00000E+000	-3.00000E-002	9.86622E-004	4	..........a	-327.66
	305	61.2	-3.99166E-002	-2.35493E-010	0.00000E+000	-4.00000E-002	1.02452E-003	4	..........a	-327.66
	306	61.4	-5.00275E-002	-2.40760E-010	0.00000E+000	-5.00000E-002	1.03362E-003	4	..........a	-327.66
	307	61.6	-5.99281E-002	-2.45651E-010	0.00000E+000	-6.00000E-002	1.00442E-003	4	..........a	-327.66
	308	61.8	-6.99062E-002	-2.50467E-010	0.00000E+000	-7.00000E-002	9.94022E-004	4	..........a	-327.66
	309	62	-7.99971E-002	-2.56424E-010	0.00000E+000	-8.00000E-002	1.01052E-003	4	..........a	-327.66
	310	62.2	-8.99507E-002	-2.61445E-010	0.00000E+000	-9.00000E-002	1.00132E-003	4	..........a	-327.66
	311	62.4	-9.98655E-002	-2.63801E-010	0.00000E+000	-1.00000E-001	1.01822E-003	4	..........a	-327.66
	312	62.6	-1.10004E-001	-2.71746E-010	0.00000E+000	-1.10000E-001	1.00422E-003	4	..........a	-327.66
	313	62.8	-1.19972E-001	-2.79198E-010	0.00000E+000	-1.20000E-001	1.01422E-003	4	..........a	-327.66
	314	63	-1.29971E-001	-2.88254E-010	0.00000E+000	-1.30000E-001	1.00752E-003	4	..........a	-327.66
	315	63.2	-1.39892E-001	-2.91345E-010	0.00000E+000	-1.40000E-001	1.01932E-003	4	..........a	-327.66
	316	63.4	-1.49906E-001	-2.95093E-010	0.00000E+000	-1.50000E-001	9.93422E-004	4	..........a	-327.66
	317	63.6	-1.59890E-001	-2.99619E-010	0.00000E+000	-1.60000E-001	1.02962E-003	4	..........a	-327.66
	318	63.8	-1.69915E-001	-3.06512E-010	0.00000E+000	-1.70000E-001	1.01802E-003	4	..........a	-327.66
	319	64	-1.79895E-001	-3.10885E-010	0.00000E+000	-1.80000E-001	9.98422E-004	4	..........a	-327.66
	320	64.2	-1.89940E-001	-3.17699E-010	0.00000E+000	-1.90000E-001	1.01162E-003	4	..........a	-327.66
	321	64.4	-1.99916E-001	-3.25483E-010	0.00000E+000	-2.00000E-001	1.01442E-003	4	..........a	-327.66
	322	64.6	-2.09870E-001	-3.29198E-010	0.00000E+000	-2.10000E-001	9.92222E-004	4	..........a	-327.66
	323	64.8	-2.19895E-001	-3.36514E-010	0.00000E+000	-2.20000E-001	1.00632E-003	4	..........a	-327.66
	324	65	-2.29892E-001	-3.44833E-010	0.00000E+000	-2.30000E-001	1.01262E-003	4	..........a	-327.66
	325	65.2	-2.39845E-001	-3.50111E-010	0.00000E+000	-2.40000E-001	1.00142E-003	4	..........a	-327.66
	326	65.4	-2.49873E-001	-3.57386E-010	0.00000E+000	-2.50000E-001	1.00482E-003	4	..........a	-327.66
	327	65.6	-2.59823E-001	-3.56092E-010	0.00000E+000	-2.60000E-001	1.02282E-003	4	..........a	-327.66
	328	65.8	-2.69869E-001	-3.72019E-010	0.00000E+000	-2.70000E-001	9.99422E-004	4	..........a	-327.66
	329	66	-2.79855E-001	-3.80768E-010	0.00000E+000	-2.80000E-001	1.01402E-003	4	..........a	-327.66
	330	66.2	-2.89872E-001	-3.89758E-010	0.00000E+000	-2.90000E-001	1.02412E-003	4	..........a	-327.66
	331	66.4	-2.99850E-001	-3.96828E-010	0.00000E+000	-3.00000E-001	1.02092E-003	4	..........a	-327.66
	332	66.6	-3.09847E-001	-4.07190E-010	0.00000E+000	-3.10000E-001	1.00452E-003	4	..........a	-327.66
	333	66.8	-3.19912E-001	-4.17448E-010	0.00000E+000	-3.20000E-001	9.99022E-004	4	..........a	-327.66
	334	67	-3.29860E-001	-4.23888E-010	0.00000E+000	-3.30000E-001	1.00482E-003	4	..........a	-327.66
	335	67.2	-3.39881E-001	-4.33742E-010	0.00000E+000	-3.40000E-001	1.01022E-003	4	..........a	-327.66
	336	67.4	-3.49871E-001	-4.44331E-010	0.00000E+000	-3.50000E-001	1.01662E-003	4	..........a	-327.66
	337	67.6	-3.59878E-001	-4.54319E-010	0.00000E+000	-3.60000E-001	1.02292E-003	4	..........a	-327.66
	338	67.8	-3.69839E-001	-4.63391E-010	0.00000E+000	-3.70000E-001	9.98322E-004	4	..........a	-327.66
	339	68	-3.79849E-001	-4.73581E-010	0.00000E+000	-3.80000E-001	1.00782E-003	4	..........a	-327.66
	340	68.2	-3.89854E-001	-4.82752E-010	0.00000E+000	-3.90000E-001	9.92622E-004	4	..........a	-327.66
	341	68.4	-3.99869E-001	-4.95194E-010	0.00000E+000	-4.00000E-001	1.01482E-003	4	..........a	-327.66
	342	68.6	-4.09889E-001	-5.08289E-010	0.00000E+000	-4.10000E-001	1.01762E-003	4	..........a	-327.66
	343	68.8	-4.19820E-001	-5.19481E-010	0.00000E+000	-4.20000E-001	1.00572E-003	4	..........a	-327.66
	344	69	-4.29843E-001	-5.33732E-010	0.00000E+000	-4.30000E-001	1.00932E-003	4	..........a	-327.66
	345	69.2	-4.39874E-001	-5.48207E-010	0.00000E+000	-4.40000E-001	9.92622E-004	4	..........a	-327.66
	346	69.4	-4.49852E-001	-5.60762E-010	0.00000E+000	-4.50000E-001	1.01212E-003	4	..........a	-327.66
	347	69.6	-4.59870E-001	-5.75432E-010	0.00000E+000	-4.60000E-001	1.03092E-003	4	..........a	-327.66
	348	69.8	-4.69835E-001	-5.90326E-010	0.00000E+000	-4.70000E-001	9.90922E-004	4	..........a	-327.66
	349	70	-4.79858E-001	-6.07484E-010	0.00000E+000	-4.80000E-001	1.00762E-003	4	..........a	-327.66
	350	70.2	-4.89872E-001	-6.23795E-010	0.00000E+000	-4.90000E-001	9.93422E-004	4	..........a	-327.66
	351	70.4	-4.99852E-001	-6.41511E-010	0.00000E+000	-5.00000E-001	1.01742E-003	4	..........a	-327.66
	352	70.6	-5.09829E-001	-6.60384E-010	0.00000E+000	-5.10000E-001	1.00092E-003	4	..........a	-327.66
	353	70.8	-5.19863E-001	-6.81216E-010	0.00000E+000	-5.20000E-001	1.00102E-003	4	..........a	-327.66
[...]
	921	184.4	-5.99835E-001	-9.70518E-010	0.00000E+000	-6.00000E-001	1.00442E-003	4	..........a	-327.66
	922	184.6	-5.89827E-001	-7.63879E-010	0.00000E+000	-5.90000E-001	9.88922E-004	4	..........a	-327.66
	923	184.8	-5.79849E-001	-6.28328E-010	0.00000E+000	-5.80000E-001	1.00652E-003	4	..........a	-327.66
	924	185	-5.69958E-001	-5.29506E-010	0.00000E+000	-5.70000E-001	9.86722E-004	4	..........a	-327.66
	925	185.2	-5.59877E-001	-4.52793E-010	0.00000E+000	-5.60000E-001	9.86122E-004	4	..........a	-327.66
	926	185.4	-5.49902E-001	-3.90160E-010	0.00000E+000	-5.50000E-001	9.90922E-004	4	..........a	-327.66
	927	185.6	-5.39848E-001	-3.37058E-010	0.00000E+000	-5.40000E-001	1.01782E-003	4	..........a	-327.66
	928	185.8	-5.29848E-001	-2.94245E-010	0.00000E+000	-5.30000E-001	9.89622E-004	4	..........a	-327.66
	929	186	-5.19957E-001	-2.55362E-010	0.00000E+000	-5.20000E-001	1.02412E-003	4	..........a	-327.66
	930	186.2	-5.09859E-001	-2.20542E-010	0.00000E+000	-5.10000E-001	1.00552E-003	4	..........a	-327.66
	931	186.4	-4.99869E-001	-1.90236E-010	0.00000E+000	-5.00000E-001	9.94922E-004	4	..........a	-327.66
	932	186.6	-4.89921E-001	-1.63647E-010	0.00000E+000	-4.90000E-001	9.87222E-004	4	..........a	-327.66
	933	186.8	-4.79946E-001	-1.38514E-010	0.00000E+000	-4.80000E-001	1.00252E-003	4	..........a	-327.66
	934	187	-4.69809E-001	-1.15478E-010	0.00000E+000	-4.70000E-001	1.01012E-003	4	..........a	-327.66
	935	187.2	-4.59890E-001	-9.41828E-011	0.00000E+000	-4.60000E-001	9.90322E-004	4	..........a	-327.66
	936	187.4	-4.49866E-001	-7.42781E-011	0.00000E+000	-4.50000E-001	9.88422E-004	4	..........a	-327.66
	937	187.6	-4.39899E-001	-5.60543E-011	0.00000E+000	-4.40000E-001	1.01062E-003	4	..........a	-327.66
	938	187.8	-4.29866E-001	-3.88507E-011	0.00000E+000	-4.30000E-001	9.72522E-004	4	..........a	-327.66
	939	188	-4.19863E-001	-2.18050E-011	0.00000E+000	-4.20000E-001	1.00982E-003	4	..........a	-327.66
	940	188.2	-4.09958E-001	-5.50241E-012	0.00000E+000	-4.10000E-001	1.00582E-003	4	..........a	-327.66
	941	188.4	-3.99896E-001	8.98514E-012	0.00000E+000	-4.00000E-001	1.00782E-003	4	..........a	-327.66
	942	188.6	-3.89930E-001	2.26717E-011	0.00000E+000	-3.90000E-001	1.01472E-003	4	..........a	-327.66
	943	188.8	-3.79934E-001	3.51601E-011	0.00000E+000	-3.80000E-001	1.02192E-003	4	..........a	-327.66
	944	189	-3.69939E-001	4.87567E-011	0.00000E+000	-3.70000E-001	1.01352E-003	4	..........a	-327.66
	945	189.2	-3.59929E-001	6.04751E-011	0.00000E+000	-3.60000E-001	1.02042E-003	4	..........a	-327.66
	946	189.4	-3.49895E-001	7.32306E-011	0.00000E+000	-3.50000E-001	1.00342E-003	4	..........a	-327.66
	947	189.6	-3.39903E-001	8.40440E-011	0.00000E+000	-3.40000E-001	9.99122E-004	4	..........a	-327.66
	948	189.8	-3.29937E-001	9.27574E-011	0.00000E+000	-3.30000E-001	1.01492E-003	4	..........a	-327.66
	949	190	-3.19943E-001	1.03607E-010	0.00000E+000	-3.20000E-001	9.98622E-004	4	..........a	-327.66
	950	190.2	-3.09891E-001	1.13922E-010	0.00000E+000	-3.10000E-001	1.00752E-003	4	..........a	-327.66
	951	190.4	-2.99882E-001	1.23313E-010	0.00000E+000	-3.00000E-001	1.01612E-003	4	..........a	-327.66
	952	190.6	-2.89973E-001	1.31732E-010	0.00000E+000	-2.90000E-001	1.00812E-003	4	..........a	-327.66
	953	190.8	-2.79905E-001	1.39436E-010	0.00000E+000	-2.80000E-001	1.01022E-003	4	..........a	-327.66
	954	191	-2.69897E-001	1.50373E-010	0.00000E+000	-2.70000E-001	9.96222E-004	4	..........a	-327.66
	955	191.2	-2.59878E-001	1.58511E-010	0.00000E+000	-2.60000E-001	1.00262E-003	4	..........a	-327.66
	956	191.4	-2.49955E-001	1.59891E-010	0.00000E+000	-2.50000E-001	1.01822E-003	4	..........a	-327.66
	957	191.6	-2.39915E-001	1.66893E-010	0.00000E+000	-2.40000E-001	9.96422E-004	4	..........a	-327.66
	958	191.8	-2.29941E-001	1.72934E-010	0.00000E+000	-2.30000E-001	9.80822E-004	4	..........a	-327.66
	959	192	-2.19875E-001	1.79810E-010	0.00000E+000	-2.20000E-001	1.00872E-003	4	..........a	-327.66
	960	192.2	-2.09922E-001	1.83788E-010	0.00000E+000	-2.10000E-001	9.80022E-004	4	..........a	-327.66
	961	192.4	-1.99936E-001	1.90675E-010	0.00000E+000	-2.00000E-001	9.99022E-004	4	..........a	-327.66
	962	192.6	-1.90217E-001	1.90965E-010	0.00000E+000	-1.90000E-001	9.74922E-004	4	..........a	-327.66
	963	192.8	-1.79934E-001	1.96245E-010	0.00000E+000	-1.80000E-001	1.01582E-003	4	..........a	-327.66
	964	193	-1.69946E-001	1.98175E-010	0.00000E+000	-1.70000E-001	1.01372E-003	4	..........a	-327.66
	965	193.2	-1.59944E-001	2.00616E-010	0.00000E+000	-1.60000E-001	1.01292E-003	4	..........a	-327.66
	966	193.4	-1.49941E-001	2.02578E-010	0.00000E+000	-1.50000E-001	1.02392E-003	4	..........a	-327.66
	967	193.6	-1.39928E-001	2.04796E-010	0.00000E+000	-1.40000E-001	1.00902E-003	4	..........a	-327.66
	968	193.8	-1.30006E-001	2.06054E-010	0.00000E+000	-1.30000E-001	1.02452E-003	4	..........a	-327.66
	969	194	-1.19948E-001	2.07736E-010	0.00000E+000	-1.20000E-001	1.00572E-003	4	..........a	-327.66
	970	194.2	-1.10008E-001	2.09194E-010	0.00000E+000	-1.10000E-001	1.00562E-003	4	..........a	-327.66
	971	194.4	-9.99051E-002	2.11598E-010	0.00000E+000	-1.00000E-001	1.00152E-003	4	..........a	-327.66
	972	194.6	-8.99410E-002	2.12705E-010	0.00000E+000	-9.00000E-002	1.00032E-003	4	..........a	-327.66
	973	194.8	-7.99315E-002	2.13411E-010	0.00000E+000	-8.00000E-002	1.01202E-003	4	..........a	-327.66
	974	195	-6.99092E-002	2.14203E-010	0.00000E+000	-7.00000E-002	1.01212E-003	4	..........a	-327.66
	975	195.2	-5.98935E-002	2.15624E-010	0.00000E+000	-6.00000E-002	1.02162E-003	4	..........a	-327.66
	976	195.4	-4.99109E-002	2.15945E-010	0.00000E+000	-5.00000E-002	1.02242E-003	4	..........a	-327.66
	977	195.6	-3.99186E-002	2.16253E-010	0.00000E+000	-4.00000E-002	1.00202E-003	4	..........a	-327.66
	978	195.8	-2.98970E-002	2.16564E-010	0.00000E+000	-3.00000E-002	9.76222E-004	4	..........a	-327.66
	979	196	-1.99040E-002	2.17491E-010	0.00000E+000	-2.00000E-002	9.91622E-004	4	..........a	-327.66
	980	196.2	-9.89141E-003	2.17858E-010	0.00000E+000	-1.00000E-002	9.88622E-004	4	..........a	-327.66
	981	196.4	7.07408E-005	2.17762E-010	0.00000E+000	7.45058E-009	1.00752E-003	4	..........a	-327.66
	982	196.6	1.01074E-002	2.17944E-010	0.00000E+000	1.00000E-002	9.86322E-004	4	..........a	-327.66
	983	196.8	2.00915E-002	2.18265E-010	0.00000E+000	2.00000E-002	9.88122E-004	4	..........a	-327.66
	984	197	3.00465E-002	2.19003E-010	0.00000E+000	3.00000E-002	9.93022E-004	4	..........a	-327.66
	985	197.2	3.98022E-002	2.18355E-010	0.00000E+000	4.00000E-002	1.01322E-003	4	..........a	-327.66
	986	197.4	5.00743E-002	2.19418E-010	0.00000E+000	5.00000E-002	1.00902E-003	4	..........a	-327.66
	987	197.6	6.00685E-002	2.20151E-010	0.00000E+000	6.00000E-002	1.00852E-003	4	..........a	-327.66
	988	197.8	7.00182E-002	2.20471E-010	0.00000E+000	7.00000E-002	9.97622E-004	4	..........a	-327.66
	989	198	8.00273E-002	2.21882E-010	0.00000E+000	8.00000E-002	1.00742E-003	4	..........a	-327.66
	990	198.2	9.01530E-002	2.24024E-010	0.00000E+000	9.00000E-002	1.00642E-003	4	..........a	-327.66
	991	198.4	1.00006E-001	2.25307E-010	0.00000E+000	1.00000E-001	1.03792E-003	4	..........a	-327.66
	992	198.6	1.10036E-001	2.27901E-010	0.00000E+000	1.10000E-001	1.00782E-003	4	..........a	-327.66
	993	198.8	1.19993E-001	2.30608E-010	0.00000E+000	1.20000E-001	1.03282E-003	4	..........a	-327.66
	994	199	1.30100E-001	2.32377E-010	0.00000E+000	1.30000E-001	9.98322E-004	4	..........a	-327.66
	995	199.2	1.40090E-001	2.33630E-010	0.00000E+000	1.40000E-001	1.01362E-003	4	..........a	-327.66
	996	199.4	1.49960E-001	2.35651E-010	0.00000E+000	1.50000E-001	1.03592E-003	4	..........a	-327.66
	997	199.6	1.59957E-001	2.36844E-010	0.00000E+000	1.60000E-001	1.00702E-003	4	..........a	-327.66
	998	199.8	1.70078E-001	2.40426E-010	0.00000E+000	1.70000E-001	1.01972E-003	4	..........a	-327.66
	999	200	1.80031E-001	2.43528E-010	0.00000E+000	1.80000E-001	1.01222E-003	4	..........a	-327.66
	1000	200.2	1.90035E-001	2.46855E-010	0.00000E+000	1.90000E-001	1.00872E-003	4	..........a	-327.66
	1001	200.4	1.99962E-001	2.49306E-010	0.00000E+000	2.00000E-001	9.95922E-004	4	..........a	-327.66
	1002	200.6	2.09978E-001	2.52899E-010	0.00000E+000	2.10000E-001	1.03482E-003	4	..........a	-327.66
	1003	200.8	2.19944E-001	2.55673E-010	0.00000E+000	2.20000E-001	1.00962E-003	4	..........a	-327.66
	1004	201	2.29946E-001	2.58974E-010	0.00000E+000	2.30000E-001	1.02672E-003	4	..........a	-327.66
	1005	201.2	2.39966E-001	2.62638E-010	0.00000E+000	2.40000E-001	1.00922E-003	4	..........a	-327.66
	1006	201.4	2.50056E-001	2.65783E-010	0.00000E+000	2.50000E-001	9.94822E-004	4	..........a	-327.66
	1007	201.6	2.59979E-001	2.69084E-010	0.00000E+000	2.60000E-001	1.02312E-003	4	..........a	-327.66
	1008	201.8	2.69932E-001	2.72237E-010	0.00000E+000	2.70000E-001	1.00682E-003	4	..........a	-327.66
	1009	202	2.79954E-001	2.75907E-010	0.00000E+000	2.80000E-001	1.00632E-003	4	..........a	-327.66
	1010	202.2	2.90002E-001	2.78962E-010	0.00000E+000	2.90000E-001	9.99222E-004	4	..........a	-327.66
	1011	202.4	2.99997E-001	2.81799E-010	0.00000E+000	3.00000E-001	1.02762E-003	4	..........a	-327.66
	1012	202.6	3.09970E-001	2.84748E-010	0.00000E+000	3.10000E-001	1.01172E-003	4	..........a	-327.66
	1013	202.8	3.19961E-001	2.87471E-010	0.00000E+000	3.20000E-001	9.94122E-004	4	..........a	-327.66
	1014	203	3.30035E-001	2.90050E-010	0.00000E+000	3.30000E-001	9.87022E-004	4	..........a	-327.66
	1015	203.2	3.40045E-001	2.92582E-010	0.00000E+000	3.40000E-001	1.03202E-003	4	..........a	-327.66
	1016	203.4	3.49941E-001	2.94371E-010	0.00000E+000	3.50000E-001	1.00232E-003	4	..........a	-327.66
	1017	203.6	3.59951E-001	2.96602E-010	0.00000E+000	3.60000E-001	1.00192E-003	4	..........a	-327.66
	1018	203.8	3.70024E-001	2.98901E-010	0.00000E+000	3.70000E-001	1.00102E-003	4	..........a	-327.66
	1019	204	3.79997E-001	3.01068E-010	0.00000E+000	3.80000E-001	1.02232E-003	4	..........a	-327.66
	1020	204.2	3.89962E-001	3.02822E-010	0.00000E+000	3.90000E-001	1.00342E-003	4	..........a	-327.66
	1021	204.4	3.99946E-001	3.04709E-010	0.00000E+000	4.00000E-001	9.87522E-004	4	..........a	-327.66
	1022	204.6	4.09923E-001	3.06889E-010	0.00000E+000	4.10000E-001	1.00382E-003	4	..........a	-327.66
	1023	204.8	4.20047E-001	3.08986E-010	0.00000E+000	4.20000E-001	1.00502E-003	4	..........a	-327.66
	1024	205	4.29953E-001	3.10827E-010	0.00000E+000	4.30000E-001	9.87122E-004	4	..........a	-327.66
	1025	205.2	4.39926E-001	3.12431E-010	0.00000E+000	4.40000E-001	1.03422E-003	4	..........a	-327.66
	1026	205.4	4.50025E-001	3.14685E-010	0.00000E+000	4.50000E-001	9.94022E-004	4	..........a	-327.66
	1027	205.6	4.59989E-001	3.16337E-010	0.00000E+000	4.60000E-001	1.02242E-003	4	..........a	-327.66
	1028	205.8	4.69949E-001	3.18327E-010	0.00000E+000	4.70000E-001	9.93722E-004	4	..........a	-327.66
	1029	206	4.79927E-001	3.20346E-010	0.00000E+000	4.80000E-001	1.01002E-003	4	..........a	-327.66
	1030	206.2	4.89942E-001	3.23189E-010	0.00000E+000	4.90000E-001	1.02552E-003	4	..........a	-327.66
	1031	206.4	5.00006E-001	3.25483E-010	0.00000E+000	5.00000E-001	1.02882E-003	4	..........a	-327.66
	1032	206.6	5.09950E-001	3.28395E-010	0.00000E+000	5.10000E-001	1.03112E-003	4	..........a	-327.66
	1033	206.8	5.19971E-001	3.30795E-010	0.00000E+000	5.20000E-001	9.96622E-004	4	..........a	-327.66
	1034	207	5.29966E-001	3.33802E-010	0.00000E+000	5.30000E-001	9.95922E-004	4	..........a	-327.66
	1035	207.2	5.40019E-001	3.37498E-010	0.00000E+000	5.40000E-001	9.98222E-004	4	..........a	-327.66
	1036	207.4	5.49977E-001	3.40967E-010	0.00000E+000	5.50000E-001	1.01212E-003	4	..........a	-327.66
	1037	207.6	5.60006E-001	3.43813E-010	0.00000E+000	5.60000E-001	9.95722E-004	4	..........a	-327.66
	1038	207.8	5.69978E-001	3.47500E-010	0.00000E+000	5.70000E-001	9.81322E-004	4	..........a	-327.66
	1039	208	5.80015E-001	3.51775E-010	0.00000E+000	5.80000E-001	1.00942E-003	4	..........a	-327.66
	1040	208.2	5.89916E-001	3.55253E-010	0.00000E+000	5.90000E-001	1.02872E-003	4	..........a	-327.66
	1041	208.4	6.00000E-001	3.60820E-010	0.00000E+000	6.00000E-001	9.95222E-004	4	..........a	-327.66
	1042	208.6	6.09974E-001	3.65712E-010	0.00000E+000	6.10000E-001	9.97022E-004	4	..........a	-327.66
	1043	208.8	6.19989E-001	3.71422E-010	0.00000E+000	6.20000E-001	1.01872E-003	4	..........a	-327.66
	1044	209	6.29934E-001	3.76601E-010	0.00000E+000	6.30000E-001	1.02922E-003	4	..........a	-327.66
	1045	209.2	6.39909E-001	3.83461E-010	0.00000E+000	6.40000E-001	1.00792E-003	4	..........a	-327.66
	1046	209.4	6.49936E-001	3.89064E-010	0.00000E+000	6.50000E-001	1.01002E-003	4	..........a	-327.66
	1047	209.6	6.60008E-001	3.96096E-010	0.00000E+000	6.60000E-001	1.00212E-003	4	..........a	-327.66
	1048	209.8	6.69890E-001	4.04089E-010	0.00000E+000	6.70000E-001	9.94822E-004	4	..........a	-327.66
	1049	210	6.80021E-001	4.11700E-010	0.00000E+000	6.80000E-001	1.01042E-003	4	..........a	-327.66
	1050	210.2	6.89914E-001	4.21179E-010	0.00000E+000	6.90000E-001	9.97122E-004	4	..........a	-327.66
	1051	210.4	6.99978E-001	4.30495E-010	0.00000E+000	7.00000E-001	1.01382E-003	4	..........a	-327.66
	1052	210.6	7.09922E-001	4.41015E-010	0.00000E+000	7.10000E-001	9.96122E-004	4	..........a	-327.66
	1053	210.8	7.19924E-001	4.51272E-010	0.00000E+000	7.20000E-001	1.00122E-003	4	..........a	-327.66
	1054	211	7.29913E-001	4.64169E-010	0.00000E+000	7.30000E-001	1.02902E-003	4	..........a	-327.66
	1055	211.2	7.40010E-001	4.76857E-010	0.00000E+000	7.40000E-001	1.02112E-003	4	..........a	-327.66
	1056	211.4	7.49936E-001	4.92737E-010	0.00000E+000	7.50000E-001	9.98722E-004	4	..........a	-327.66
	1057	211.6	7.59869E-001	5.08624E-010	0.00000E+000	7.60000E-001	1.01232E-003	4	..........a	-327.66
	1058	211.8	7.69906E-001	5.26982E-010	0.00000E+000	7.70000E-001	1.00092E-003	4	..........a	-327.66
	1059	212	7.79931E-001	5.47137E-010	0.00000E+000	7.80000E-001	9.96722E-004	4	..........a	-327.66
	1060	212.2	7.89928E-001	5.67992E-010	0.00000E+000	7.90000E-001	1.01012E-003	4	..........a	-327.66
	1061	212.4	7.99959E-001	5.91687E-010	0.00000E+000	8.00000E-001	1.00922E-003	4	..........a	-327.66
CURVE5	TABLE
	Pt	T	Vf	Im	Vu	Sig	Ach	IERange	Over	Temp
	#	s	V vs. Ref.	A	V	V	V	#	bits	deg C
	1062	212.6	7.89953E-001	4.55874E-010	0.00000E+000	7.90000E-001	1.01432E-003	4	..........a	-327.66
	1063	212.8	7.79976E-001	3.69239E-010	0.00000E+000	7.80000E-001	1.01632E-003	4	..........a	-327.66
	1064	213	7.69861E-001	3.06378E-010	0.00000E+000	7.70000E-001	1.00842E-003	4	..........a	-327.66
	1065	213.2	7.59892E-001	2.58010E-010	0.00000E+000	7.60000E-001	1.00702E-003	4	..........a	-327.66
	1066	213.4	7.49972E-001	2.18056E-010	0.00000E+000	7.50000E-001	1.01212E-003	4	..........a	-327.66
	1067	213.6	7.40014E-001	1.86161E-010	0.00000E+000	7.40000E-001	1.02172E-003	4	..........a	-327.66
	1068	213.8	7.29901E-001	1.60217E-010	0.00000E+000	7.30000E-001	1.00112E-003	4	..........a	-327.66
	1069	214	7.19955E-001	1.35548E-010	0.00000E+000	7.20000E-001	1.00932E-003	4	..........a	-327.66
	1070	214.2	7.09856E-001	1.14428E-010	0.00000E+000	7.10000E-001	1.00692E-003	4	..........a	-327.66
	1071	214.4	6.99979E-001	9.44424E-011	0.00000E+000	7.00000E-001	9.82122E-004	4	..........a	-327.66
	1072	214.6	6.89873E-001	7.97869E-011	0.00000E+000	6.90000E-001	9.86922E-004	4	..........a	-327.66
	1073	214.8	6.79790E-001	6.40683E-011	0.00000E+000	6.80000E-001	1.00192E-003	4	..........a	-327.66
	1074	215	6.69907E-001	5.29588E-011	0.00000E+000	6.70000E-001	9.86522E-004	4	..........a	-327.66
	1075	215.2	6.60040E-001	4.10984E-011	0.00000E+000	6.60000E-001	9.99622E-004	4	..........a	-327.66
	1076	215.4	6.49892E-001	3.17650E-011	0.00000E+000	6.50000E-001	9.94822E-004	4	..........a	-327.66
	1077	215.6	6.39912E-001	1.96926E-011	0.00000E+000	6.40000E-001	1.03382E-003	4	..........a	-327.66
	1078	215.8	6.29953E-001	1.03122E-011	0.00000E+000	6.30000E-001	9.91922E-004	4	..........a	-327.66
	1079	216	6.19997E-001	2.49590E-012	0.00000E+000	6.20000E-001	1.00482E-003	4	..........a	-327.66
	1080	216.2	6.09998E-001	-6.92047E-012	0.00000E+000	6.10000E-001	1.00122E-003	4	..........a	-327.66
	1081	216.4	5.99898E-001	-1.38557E-011	0.00000E+000	6.00000E-001	9.92722E-004	4	..........a	-327.66
	1082	216.6	5.89970E-001	-2.18900E-011	0.00000E+000	5.90000E-001	9.93322E-004	4	..........a	-327.66
	1083	216.8	5.80004E-001	-2.95283E-011	0.00000E+000	5.80000E-001	1.01312E-003	4	..........a	-327.66
	1084	217	5.69972E-001	-3.64046E-011	0.00000E+000	5.70000E-001	1.00222E-003	4	..........a	-327.66
	1085	217.2	5.60007E-001	-4.05788E-011	0.00000E+000	5.60000E-001	1.01542E-003	4	..........a	-327.66
	1086	217.4	5.49953E-001	-4.72000E-011	0.00000E+000	5.50000E-001	9.94622E-004	4	..........a	-327.66
	1087	217.6	5.40032E-001	-5.40103E-011	0.00000E+000	5.40000E-001	9.89522E-004	4	..........a	-327.66
	1088	217.8	5.29986E-001	-5.90645E-011	0.00000E+000	5.30000E-001	9.97622E-004	4	..........a	-327.66
	1089	218	5.19951E-001	-6.55487E-011	0.00000E+000	5.20000E-001	1.00942E-003	4	..........a	-327.66
	1090	218.2	5.09974E-001	-6.99389E-011	0.00000E+000	5.10000E-001	1.02502E-003	4	..........a	-327.66
	1091	218.4	5.00087E-001	-7.48061E-011	0.00000E+000	5.00000E-001	1.02902E-003	4	..........a	-327.66
	1092	218.6	4.89939E-001	-8.12453E-011	0.00000E+000	4.90000E-001	1.01762E-003	4	..........a	-327.66
	1093	218.8	4.79915E-001	-8.59935E-011	0.00000E+000	4.80000E-001	1.02132E-003	4	..........a	-327.66
	1094	219	4.69971E-001	-9.00256E-011	0.00000E+000	4.70000E-001	1.01072E-003	4	..........a	-327.66
	1095	219.2	4.60002E-001	-9.70189E-011	0.00000E+000	4.60000E-001	1.02782E-003	4	..........a	-327.66
	1096	219.4	4.50020E-001	-1.01140E-010	0.00000E+000	4.50000E-001	1.00812E-003	4	..........a	-327.66
	1097	219.6	4.39989E-001	-1.05645E-010	0.00000E+000	4.40000E-001	9.94822E-004	4	..........a	-327.66
	1098	219.8	4.29923E-001	-1.10592E-010	0.00000E+000	4.30000E-001	1.00172E-003	4	..........a	-327.66
	1099	220	4.20026E-001	-1.15467E-010	0.00000E+000	4.20000E-001	1.01442E-003	4	..........a	-327.66
	1100	220.2	4.09993E-001	-1.19836E-010	0.00000E+000	4.10000E-001	9.82422E-004	4	..........a	-327.66
	1101	220.4	4.00022E-001	-1.24382E-010	0.00000E+000	4.00000E-001	1.01052E-003	4	..........a	-327.66
	1102	220.6	3.89945E-001	-1.27924E-010	0.00000E+000	3.90000E-001	1.01672E-003	4	..........a	-327.66
	1103	220.8	3.80016E-001	-1.33329E-010	0.00000E+000	3.80000E-001	1.01792E-003	4	..........a	-327.66
	1104	221	3.70018E-001	-1.36960E-010	0.00000E+000	3.70000E-001	9.91022E-004	4	..........a	-327.66
	1105	221.2	3.59876E-001	-1.41904E-010	0.00000E+000	3.60000E-001	1.00302E-003	4	..........a	-327.66
	1106	221.4	3.49979E-001	-1.46096E-010	0.00000E+000	3.50000E-001	1.03122E-003	4	..........a	-327.66
	1107	221.6	3.40057E-001	-1.49988E-010	0.00000E+000	3.40000E-001	1.01702E-003	4	..........a	-327.66
	1108	221.8	3.30050E-001	-1.54324E-010	0.00000E+000	3.30000E-001	9.89122E-004	4	..........a	-327.66
	1109	222	3.20002E-001	-1.58676E-010	0.00000E+000	3.20000E-001	1.00752E-003	4	..........a	-327.66
	1110	222.2	3.09971E-001	-1.61995E-010	0.00000E+000	3.10000E-001	9.95022E-004	4	..........a	-327.66
	1111	222.4	3.00027E-001	-1.65382E-010	0.00000E+000	3.00000E-001	1.03612E-003	4	..........a	-327.66
	1112	222.6	2.90017E-001	-1.68851E-010	0.00000E+000	2.90000E-001	1.00382E-003	4	..........a	-327.66
	1113	222.8	2.79993E-001	-1.72025E-010	0.00000E+000	2.80000E-001	1.02152E-003	4	..........a	-327.66
	1114	223	2.69967E-001	-1.75253E-010	0.00000E+000	2.70000E-001	1.00032E-003	4	..........a	-327.66
	1115	223.2	2.60026E-001	-1.78863E-010	0.00000E+000	2.60000E-001	1.02232E-003	4	..........a	-327.66
	1116	223.4	2.50071E-001	-1.81100E-010	0.00000E+000	2.50000E-001	1.01732E-003	4	..........a	-327.66
	1117	223.6	2.39990E-001	-1.84030E-010	0.00000E+000	2.40000E-001	1.02192E-003	4	..........a	-327.66
	1118	223.8	2.29964E-001	-1.86467E-010	0.00000E+000	2.30000E-001	1.00852E-003	4	..........a	-327.66
	1119	224	2.19963E-001	-1.89296E-010	0.00000E+000	2.20000E-001	1.01382E-003	4	..........a	-327.66
	1120	224.2	2.09987E-001	-1.90425E-010	0.00000E+000	2.10000E-001	1.00632E-003	4	..........a	-327.66