File: data/raw/batch_data/20240424_ZZC_GM0016_HL03_E14_CV50.DTA
EXPLAIN
TAG	CV
TITLE	LABEL	Cyclic Voltammetry	Test &Identifier
DATE	LABEL	4/24/2024	Date
TIME	LABEL	19:46:20	Time
NOTES	NOTES	1	&Notes...

PSTAT	PSTAT	REF600P-43058	Potentiostat
VINIT	POTEN	0.00000E+000	T	Initial &E (V)
VLIMIT1	POTEN	-6.00000E-001	F	Scan Limit &1 (V)
VLIMIT2	POTEN	8.00000E-001	F	Scan Limit &2 (V)
VFINAL	POTEN	0.00000E+000	T	Final &E (V)
SCANRATE	QUANT	4.99999E+001	&Scan Rate (mV/s)
STEPSIZE	QUANT	1.00000E+001	St&ep Size (mV)
CYCLES	IQUANT	4	C&ycles (#)
IMODE	SELECTOR	0	I/E Range &Mode
IRANGE	QUANT	1.00000E-005	&Max Current (mA)
AREA	QUANT	1.00000E+000	Electrode &Area (cm^2)
ELECTRODETYPE	SELECTOR	0	Electrode Type
STRIPPING	TOGGLE	F	Used for Stripping
POLARITY	TOGGLE	F	Signal Polarity
CONDIT	TWOPARAM	F	1.50000E+001	0.00000E+000	Conditionin&g	Time(s)	E(V)
DELAY	TWOPARAM	T	1.00000E+001	0.00000E+000	Init. De&lay	Time(s)	Stab.(mV/s)
EQDELAY	QUANT	1.00000E+001	Equil. &Time (s)
IRCOMP	SELECTOR	0	IRCom&p
PFCOR	QUANT	5.00000E+001	PF Corr. (ohm)
SAMPLINGMODE	SELECTOR	1	Sampling &Mode
OCVCURVE	TABLE	39
	Pt	T	Vf	Vm	Ach	Over	Temp
	#	s	V vs. Ref.	V	V	bits	deg C
	0	0.258333	-1.33549E-002	-1.33549E-002	2.36192E-004	..........a	-327.66
	1	0.516667	-1.33556E-002	-1.33888E-002	2.33926E-004	..........a	-327.66
	2	0.775	-1.33596E-002	-1.34255E-002	2.46459E-004	..........a	-327.66
	3	1.03333	-1.33714E-002	-1.34620E-002	2.34592E-004	..........a	-327.66
	4	1.29167	-1.33932E-002	-1.34969E-002	2.35859E-004	..........a	-327.66
	5	1.55	-1.34232E-002	-1.35337E-002	2.55059E-004	..........a	-327.66
	6	1.80833	-1.34577E-002	-1.35689E-002	2.55592E-004	..........a	-327.66
	7	2.06667	-1.34937E-002	-1.36009E-002	2.40926E-004	..........a	-327.66
	8	2.325	-1.35296E-002	-1.36330E-002	2.44126E-004	..........a	-327.66
	9	2.58333	-1.35644E-002	-1.36668E-002	2.39992E-004	..........a	-327.66
	10	2.84167	-1.35981E-002	-1.37015E-002	2.41926E-004	..........a	-327.66
	11	3.1	-1.36314E-002	-1.37322E-002	2.55259E-004	..........a	-327.66
	12	3.35833	-1.36645E-002	-1.37658E-002	2.39859E-004	..........a	-327.66
	13	3.61667	-1.36975E-002	-1.37971E-002	2.48792E-004	..........a	-327.66
	14	3.875	-1.37302E-002	-1.38307E-002	2.36392E-004	..........a	-327.66
	15	4.13333	-1.37628E-002	-1.38624E-002	2.41526E-004	..........a	-327.66
	16	4.39167	-1.37953E-002	-1.38962E-002	2.36126E-004	..........a	-327.66
	17	4.65	-1.38278E-002	-1.39272E-002	2.49526E-004	..........a	-327.66
	18	4.90833	-1.38603E-002	-1.39584E-002	2.51792E-004	..........a	-327.66
	19	5.16667	-1.38925E-002	-1.39873E-002	2.32926E-004	..........a	-327.66
	20	5.425	-1.39242E-002	-1.40179E-002	2.45126E-004	..........a	-327.66
	21	5.68333	-1.39551E-002	-1.40507E-002	2.42326E-004	..........a	-327.66
	22	5.94167	-1.39857E-002	-1.40789E-002	2.54992E-004	..........a	-327.66
	23	6.2	-1.40163E-002	-1.41085E-002	2.40992E-004	..........a	-327.66
	24	6.45833	-1.40467E-002	-1.41389E-002	2.40392E-004	..........a	-327.66
	25	6.71667	-1.40767E-002	-1.41662E-002	2.51926E-004	..........a	-327.66
	26	6.975	-1.41063E-002	-1.41950E-002	2.44592E-004	..........a	-327.66
	27	7.23333	-1.41355E-002	-1.42250E-002	2.33259E-004	..........a	-327.66
	28	7.49167	-1.41644E-002	-1.42527E-002	2.50726E-004	..........a	-327.66
	29	7.75	-1.41932E-002	-1.42799E-002	2.52726E-004	..........a	-327.66
	30	8.00833	-1.42218E-002	-1.43079E-002	2.46859E-004	..........a	-327.66
	31	8.26667	-1.42501E-002	-1.43357E-002	2.48659E-004	..........a	-327.66
	32	8.525	-1.42780E-002	-1.43624E-002	2.39126E-004	..........a	-327.66
	33	8.78333	-1.43057E-002	-1.43923E-002	2.30592E-004	..........a	-327.66
	34	9.04167	-1.43334E-002	-1.44198E-002	2.40459E-004	..........a	-327.66
	35	9.3	-1.43613E-002	-1.44455E-002	2.51259E-004	..........a	-327.66
	36	9.5583	-1.43891E-002	-1.44711E-002	2.41926E-004	..........a	-327.66
	37	9.8167	-1.44164E-002	-1.44949E-002	2.47259E-004	..........a	-327.66
	38	10.075	-1.44429E-002	-1.45216E-002	2.46192E-004	..........a	-327.66
EOC	QUANT	-0.0144429	Open Circuit (V)
PSTATMODEL	IQUANT	7	Pstat Model
PSTATSECTION	LABEL	REF600P-43058	Pstat Section
PSTATSERIALNO	LABEL	43058	Pstat Serial Number
CTRLMODE	IQUANT	1	Control Mode
ELECTROMETER	IQUANT	0	RE=0 or CS=1
IESTAB	IQUANT	2	I/E Stability
CASPEED	IQUANT	4	Control Amp Speed
CONVENTION	IQUANT	1	Current Convention
ICHRANGE	IQUANT	2	Ich Range
ICHRANGEMODE	TOGGLE	F	Ich Auto Range
ICHOFFSETENABLE	TOGGLE	F	Ich Offset Enable
ICHOFFSET	QUANT	0	Ich Offset (V)
ICHFILTER	IQUANT	2	Ich Filter
VCHRANGE	IQUANT	2	Vch Range
VCHRANGEMODE	TOGGLE	F	Vch Auto Range
VCHOFFSETENABLE	TOGGLE	F	Vch Offset Enable
VCHOFFSET	QUANT	0	Vch Offset (V)
VCHFILTER	IQUANT	2	Vch Filter
ACHRANGE	IQUANT	2	Ach Range
ACHOFFSETENABLE	TOGGLE	F	Ach Offset Enable
ACHOFFSET	QUANT	0	Ach Offset (V)
ACHFILTER	IQUANT	1	Ach Filter
IERANGELOWERLIMIT	IQUANT	1	I/E Range Lower Limit
IERANGEMODE	TOGGLE	T	I/E AutoRange
IERANGE	IQUANT	4	I/E Range
POSFEEDENABLE	TOGGLE	F	Positive Feedback IR Comp
POSFEEDRESISTANCE	QUANT	0	Positive Feedback Resistance (ohm)
ACHSELECT	IQUANT	4	Ach Select
SENSECABLEID	IQUANT	7	Sense Cable ID
PWRCABLEID	IQUANT	7	Power Cable ID
DCCALDATE	LABEL	3/22/2024	DC Calibration Date
ACCALDATE	LABEL	3/22/2024	AC Calibration Date
THERMOSELECT	IQUANT	1	Thermo Select
FRAMEWORKVERSION	LABEL	7.8.4	Framework Version
INSTRUMENTVERSION	LABEL	4.42	Instrument Version
CURVE1	TABLE
	Pt	T	Vf	Im	Vu	Sig	Ach	IERange	Over	Temp
	#	s	V vs. Ref.	A	V	V	V	#	bits	deg C
	0	0.2	-1.43899E-002	4.12792E-010	0.00000E+000	-1.44500E-002	1.00329E-003	5	..........a	-327.66
	1	0.4	-2.43154E-002	-3.22641E-009	0.00000E+000	-2.44500E-002	1.02529E-003	5	..........a	-327.66
	2	0.6	-3.43867E-002	-5.81443E-009	0.00000E+000	-3.44500E-002	9.92992E-004	5	..........a	-327.66
	3	0.8	-4.44066E-002	-8.02477E-009	0.00000E+000	-4.44500E-002	1.00889E-003	5	..........a	-327.66
	4	1	-5.44056E-002	-9.99896E-009	0.00000E+000	-5.44500E-002	9.92392E-004	5	..........a	-327.66
	5	1.2	-6.43425E-002	-1.19140E-008	0.00000E+000	-6.44500E-002	1.01299E-003	5	..........a	-327.66
	6	1.4	-7.43637E-002	-1.37749E-008	0.00000E+000	-7.44500E-002	1.00559E-003	5	..........a	-327.66
	7	1.6	-8.44131E-002	-1.56248E-008	0.00000E+000	-8.44500E-002	9.92492E-004	5	..........a	-327.66
	8	1.8	-9.43967E-002	-1.74045E-008	0.00000E+000	-9.44500E-002	1.00209E-003	5	..........a	-327.66
	9	2	-1.04355E-001	-1.92445E-008	0.00000E+000	-1.04450E-001	1.02009E-003	5	..........a	-327.66
	10	2.2	-1.14374E-001	-2.11428E-008	0.00000E+000	-1.14450E-001	1.00669E-003	5	..........a	-327.66
	11	2.4	-1.24436E-001	-2.29893E-008	0.00000E+000	-1.24450E-001	1.00669E-003	5	..........a	-327.66
	12	2.6	-1.34407E-001	-2.49086E-008	0.00000E+000	-1.34450E-001	1.00379E-003	5	..........a	-327.66
	13	2.8	-1.44349E-001	-2.68395E-008	0.00000E+000	-1.44450E-001	1.00059E-003	5	..........a	-327.66
	14	3	-1.54357E-001	-2.88122E-008	0.00000E+000	-1.54450E-001	1.01729E-003	5	..........a	-327.66
	15	3.2	-1.64329E-001	-3.07781E-008	0.00000E+000	-1.64450E-001	9.97092E-004	5	..........a	-327.66
	16	3.4	-1.74415E-001	-3.27392E-008	0.00000E+000	-1.74450E-001	1.00589E-003	5	..........a	-327.66
	17	3.6	-1.84364E-001	-3.47407E-008	0.00000E+000	-1.84450E-001	1.00899E-003	5	..........a	-327.66
	18	3.8	-1.94357E-001	-3.67375E-008	0.00000E+000	-1.94450E-001	9.92392E-004	5	..........a	-327.66
	19	4	-2.04421E-001	-3.87369E-008	0.00000E+000	-2.04450E-001	1.01099E-003	5	..........a	-327.66
	20	4.2	-2.14352E-001	-4.07326E-008	0.00000E+000	-2.14450E-001	1.02349E-003	5	..........a	-327.66
	21	4.4	-2.24324E-001	-4.27372E-008	0.00000E+000	-2.24450E-001	1.01369E-003	5	..........a	-327.66
	22	4.6	-2.34312E-001	-4.47166E-008	0.00000E+000	-2.34450E-001	1.00169E-003	5	..........a	-327.66
	23	4.8	-2.44306E-001	-4.67042E-008	0.00000E+000	-2.44450E-001	1.00389E-003	5	..........a	-327.66
	24	5	-2.54365E-001	-4.86836E-008	0.00000E+000	-2.54450E-001	1.02219E-003	5	..........a	-327.66
	25	5.2	-2.64304E-001	-5.06639E-008	0.00000E+000	-2.64450E-001	9.96492E-004	5	..........a	-327.66
	26	5.4	-2.74288E-001	-5.26391E-008	0.00000E+000	-2.74450E-001	9.93492E-004	5	..........a	-327.66
	27	5.6	-2.84311E-001	-5.46013E-008	0.00000E+000	-2.84450E-001	1.00799E-003	5	..........a	-327.66
	28	5.8	-2.94305E-001	-5.65916E-008	0.00000E+000	-2.94450E-001	1.00409E-003	5	..........a	-327.66
	29	6	-3.04359E-001	-5.85743E-008	0.00000E+000	-3.04450E-001	1.02209E-003	5	..........a	-327.66
	30	6.2	-3.14271E-001	-6.05780E-008	0.00000E+000	-3.14450E-001	1.00279E-003	5	..........a	-327.66
	31	6.4	-3.24303E-001	-6.25769E-008	0.00000E+000	-3.24450E-001	1.01049E-003	5	..........a	-327.66
	32	6.6	-3.34364E-001	-6.45494E-008	0.00000E+000	-3.34450E-001	1.00509E-003	5	..........a	-327.66
	33	6.8	-3.44264E-001	-6.65719E-008	0.00000E+000	-3.44450E-001	1.00379E-003	5	..........a	-327.66
	34	7	-3.54302E-001	-6.85508E-008	0.00000E+000	-3.54450E-001	9.96392E-004	5	..........a	-327.66
	35	7.2	-3.64332E-001	-7.05733E-008	0.00000E+000	-3.64450E-001	1.02129E-003	5	..........a	-327.66
	36	7.4	-3.74292E-001	-7.25704E-008	0.00000E+000	-3.74450E-001	1.00739E-003	5	..........a	-327.66
	37	7.6	-3.84352E-001	-7.46042E-008	0.00000E+000	-3.84450E-001	1.00589E-003	5	..........a	-327.66
	38	7.8	-3.94258E-001	-7.66132E-008	0.00000E+000	-3.94450E-001	1.00509E-003	5	..........a	-327.66
	39	8	-4.04336E-001	-7.86325E-008	0.00000E+000	-4.04450E-001	1.01499E-003	5	..........a	-327.66
	40	8.2	-4.14309E-001	-8.06423E-008	0.00000E+000	-4.14450E-001	1.00699E-003	5	..........a	-327.66
	41	8.4	-4.24262E-001	-8.27067E-008	0.00000E+000	-4.24450E-001	9.99492E-004	5	..........a	-327.66
	42	8.6	-4.34255E-001	-8.46792E-008	0.00000E+000	-4.34450E-001	1.01219E-003	5	..........a	-327.66
	43	8.8	-4.44275E-001	-8.66378E-008	0.00000E+000	-4.44450E-001	1.00079E-003	5	..........a	-327.66
	44	9	-4.54280E-001	-8.85928E-008	0.00000E+000	-4.54450E-001	1.00609E-003	5	..........a	-327.66
	45	9.2	-4.64250E-001	-9.05564E-008	0.00000E+000	-4.64450E-001	1.02299E-003	5	..........a	-327.66
	46	9.4	-4.74242E-001	-9.25666E-008	0.00000E+000	-4.74450E-001	9.92392E-004	5	..........a	-327.66
	47	9.6	-4.84294E-001	-9.44765E-008	0.00000E+000	-4.84450E-001	1.02229E-003	5	..........a	-327.66
	48	9.8	-4.94264E-001	-9.63746E-008	0.00000E+000	-4.94450E-001	9.97792E-004	5	..........a	-327.66
	49	10	-5.04250E-001	-9.82631E-008	0.00000E+000	-5.04450E-001	9.95192E-004	5	..........a	-327.66
	50	10.2	-5.14203E-001	-1.00206E-007	0.00000E+000	-5.14450E-001	9.94092E-004	5	..........a	-327.66
	51	10.4	-5.24279E-001	-1.02157E-007	0.00000E+000	-5.24450E-001	1.01509E-003	5	..........a	-327.66
	52	10.6	-5.34299E-001	-1.04101E-007	0.00000E+000	-5.34450E-001	9.94492E-004	5	..........a	-327.66
	53	10.8	-5.44281E-001	-1.06062E-007	0.00000E+000	-5.44450E-001	1.01009E-003	5	..........a	-327.66
	54	11	-5.54237E-001	-1.08085E-007	0.00000E+000	-5.54450E-001	1.00249E-003	5	..........a	-327.66
	55	11.2	-5.64293E-001	-1.10090E-007	0.00000E+000	-5.64450E-001	1.00519E-003	5	..........a	-327.66
	56	11.4	-5.74282E-001	-1.12085E-007	0.00000E+000	-5.74450E-001	1.00089E-003	5	..........a	-327.66
	57	11.6	-5.84284E-001	-1.14130E-007	0.00000E+000	-5.84450E-001	9.96492E-004	5	..........a	-327.66
	58	11.8	-5.94173E-001	-1.16217E-007	0.00000E+000	-5.94450E-001	1.00789E-003	5	..........a	-327.66
	59	12	-6.04249E-001	-1.18336E-007	0.00000E+000	-6.04450E-001	9.96592E-004	5	..........a	-327.66
	60	12.2	-5.94190E-001	-1.05608E-007	0.00000E+000	-5.94450E-001	9.89492E-004	5	..........a	-327.66
	61	12.4	-5.84267E-001	-9.69989E-008	0.00000E+000	-5.84450E-001	1.00549E-003	5	..........a	-327.66
	62	12.6	-5.74236E-001	-9.02971E-008	0.00000E+000	-5.74450E-001	9.82092E-004	5	..........a	-327.66
	63	12.8	-5.64308E-001	-8.46533E-008	0.00000E+000	-5.64450E-001	1.00839E-003	5	..........a	-327.66
	64	13	-5.54263E-001	-7.96594E-008	0.00000E+000	-5.54450E-001	1.00319E-003	5	..........a	-327.66
	65	13.2	-5.44323E-001	-7.51669E-008	0.00000E+000	-5.44450E-001	1.00639E-003	5	..........a	-327.66
	66	13.4	-5.34310E-001	-7.10800E-008	0.00000E+000	-5.34450E-001	1.01039E-003	5	..........a	-327.66
	67	13.6	-5.24271E-001	-6.73142E-008	0.00000E+000	-5.24450E-001	1.00829E-003	5	..........a	-327.66
	68	13.8	-5.14238E-001	-6.38248E-008	0.00000E+000	-5.14450E-001	1.00239E-003	5	..........a	-327.66
	69	14	-5.04265E-001	-6.05319E-008	0.00000E+000	-5.04450E-001	1.01609E-003	5	..........a	-327.66
	70	14.2	-4.94315E-001	-5.73974E-008	0.00000E+000	-4.94450E-001	1.01819E-003	5	..........a	-327.66
	71	14.4	-4.84275E-001	-5.44488E-008	0.00000E+000	-4.84450E-001	1.00289E-003	5	..........a	-327.66
	72	14.6	-4.74262E-001	-5.16354E-008	0.00000E+000	-4.74450E-001	9.95392E-004	5	..........a	-327.66
	73	14.8	-4.64309E-001	-4.89717E-008	0.00000E+000	-4.64450E-001	1.00619E-003	5	..........a	-327.66
	74	15	-4.54305E-001	-4.63389E-008	0.00000E+000	-4.54450E-001	1.01389E-003	5	..........a	-327.66
	75	15.2	-4.44300E-001	-4.38646E-008	0.00000E+000	-4.44450E-001	1.02019E-003	5	..........a	-327.66
	76	15.4	-4.34294E-001	-4.14031E-008	0.00000E+000	-4.34450E-001	9.94892E-004	5	..........a	-327.66
	77	15.6	-4.24275E-001	-3.90083E-008	0.00000E+000	-4.24450E-001	1.00289E-003	5	..........a	-327.66
	78	15.8	-4.14331E-001	-3.66910E-008	0.00000E+000	-4.14450E-001	1.00939E-003	5	..........a	-327.66
	79	16	-4.04322E-001	-3.44852E-008	0.00000E+000	-4.04450E-001	1.01499E-003	5	..........a	-327.66
	80	16.2	-3.94274E-001	-3.23067E-008	0.00000E+000	-3.94450E-001	9.82392E-004	5	..........a	-327.66
	81	16.4	-3.84326E-001	-3.01992E-008	0.00000E+000	-3.84450E-001	1.01069E-003	5	..........a	-327.66
	82	16.6	-3.74358E-001	-2.81457E-008	0.00000E+000	-3.74450E-001	1.03039E-003	5	..........a	-327.66
	83	16.8	-3.64340E-001	-2.61542E-008	0.00000E+000	-3.64450E-001	1.01619E-003	5	..........a	-327.66
	84	17	-3.54313E-001	-2.41640E-008	0.00000E+000	-3.54450E-001	9.90792E-004	5	..........a	-327.66
	85	17.2	-3.44288E-001	-2.22369E-008	0.00000E+000	-3.44450E-001	1.02839E-003	5	..........a	-327.66
	86	17.4	-3.34399E-001	-2.03700E-008	0.00000E+000	-3.34450E-001	1.00509E-003	5	..........a	-327.66
	87	17.6	-3.24312E-001	-1.85229E-008	0.00000E+000	-3.24450E-001	1.01469E-003	5	..........a	-327.66
	88	17.8	-3.14301E-001	-1.67185E-008	0.00000E+000	-3.14450E-001	9.89992E-004	5	..........a	-327.66
	89	18	-3.04311E-001	-1.49406E-008	0.00000E+000	-3.04450E-001	1.01059E-003	5	..........a	-327.66
	90	18.2	-2.94318E-001	-1.32220E-008	0.00000E+000	-2.94450E-001	1.01319E-003	5	..........a	-327.66
	91	18.4	-2.84385E-001	-1.15258E-008	0.00000E+000	-2.84450E-001	1.01459E-003	5	..........a	-327.66
	92	18.6	-2.74295E-001	-9.86425E-009	0.00000E+000	-2.74450E-001	9.99492E-004	5	..........a	-327.66
	93	18.8	-2.64321E-001	-8.23343E-009	0.00000E+000	-2.64450E-001	1.01399E-003	5	..........a	-327.66
	94	19	-2.54394E-001	-6.62289E-009	0.00000E+000	-2.54450E-001	1.01459E-003	5	..........a	-327.66
	95	19.2	-2.44330E-001	-5.06955E-009	0.00000E+000	-2.44450E-001	1.01039E-003	5	..........a	-327.66
	96	19.4	-2.34330E-001	-3.45213E-009	0.00000E+000	-2.34450E-001	9.92292E-004	5	..........a	-327.66
	97	19.6	-2.24388E-001	-1.95930E-009	0.00000E+000	-2.24450E-001	1.00119E-003	5	..........a	-327.66
	98	19.8	-2.14350E-001	-4.46720E-010	0.00000E+000	-2.14450E-001	9.93792E-004	5	..........a	-327.66
	99	20	-2.04471E-001	1.05149E-009	0.00000E+000	-2.04450E-001	1.02099E-003	5	..........a	-327.66
	100	20.2	-1.94400E-001	2.51908E-009	0.00000E+000	-1.94450E-001	9.96292E-004	5	..........a	-327.66
	101	20.4	-1.84422E-001	3.97616E-009	0.00000E+000	-1.84450E-001	1.03789E-003	5	..........a	-327.66
	102	20.6	-1.74426E-001	5.39609E-009	0.00000E+000	-1.74450E-001	1.01319E-003	5	..........a	-327.66
	103	20.8	-1.64492E-001	6.81743E-009	0.00000E+000	-1.64450E-001	1.00859E-003	5	..........a	-327.66
	104	21	-1.54409E-001	8.20902E-009	0.00000E+000	-1.54450E-001	1.00139E-003	5	..........a	-327.66
	105	21.2	-1.44368E-001	9.58468E-009	0.00000E+000	-1.44450E-001	1.00589E-003	5	..........a	-327.66
	106	21.4	-1.34453E-001	1.09321E-008	0.00000E+000	-1.34450E-001	1.01329E-003	5	..........a	-327.66
	107	21.6	-1.24414E-001	1.22918E-008	0.00000E+000	-1.24450E-001	1.01209E-003	5	..........a	-327.66
	108	21.8	-1.14388E-001	1.35988E-008	0.00000E+000	-1.14450E-001	1.00629E-003	5	..........a	-327.66
	109	22	-1.04380E-001	1.49376E-008	0.00000E+000	-1.04450E-001	1.00289E-003	5	..........a	-327.66
	110	22.2	-9.43961E-002	1.62305E-008	0.00000E+000	-9.44500E-002	1.00449E-003	5	..........a	-327.66
	111	22.4	-8.44192E-002	1.75305E-008	0.00000E+000	-8.44500E-002	1.02589E-003	5	..........a	-327.66
	112	22.6	-7.44038E-002	1.88351E-008	0.00000E+000	-7.44500E-002	9.92692E-004	5	..........a	-327.66
	113	22.8	-6.43649E-002	2.00961E-008	0.00000E+000	-6.44500E-002	1.01419E-003	5	..........a	-327.66
	114	23	-5.44138E-002	2.13750E-008	0.00000E+000	-5.44500E-002	1.02999E-003	5	..........a	-327.66
	115	23.2	-4.44128E-002	2.26560E-008	0.00000E+000	-4.44500E-002	1.02279E-003	5	..........a	-327.66
	116	23.4	-3.43861E-002	2.39380E-008	0.00000E+000	-3.44500E-002	9.89892E-004	5	..........a	-327.66
	117	23.6	-2.43696E-002	2.51859E-008	0.00000E+000	-2.44500E-002	1.01009E-003	5	..........a	-327.66
	118	23.8	-1.44014E-002	2.64540E-008	0.00000E+000	-1.44500E-002	1.00049E-003	5	..........a	-327.66
	119	24	-4.40286E-003	2.77477E-008	0.00000E+000	-4.44999E-003	1.02589E-003	5	..........a	-327.66
	120	24.2	5.61349E-003	2.90416E-008	0.00000E+000	5.55000E-003	1.00199E-003	5	..........a	-327.66
	121	24.4	1.55828E-002	3.03333E-008	0.00000E+000	1.55500E-002	1.02559E-003	5	..........a	-327.66
	122	24.6	2.55521E-002	3.16249E-008	0.00000E+000	2.55500E-002	1.01679E-003	5	..........a	-327.66
	123	24.8	3.56031E-002	3.29103E-008	0.00000E+000	3.55500E-002	1.00729E-003	5	..........a	-327.66
	124	25	4.56585E-002	3.42010E-008	0.00000E+000	4.55500E-002	1.00779E-003	5	..........a	-327.66
	125	25.2	5.56031E-002	3.54973E-008	0.00000E+000	5.55500E-002	1.01879E-003	5	..........a	-327.66
	126	25.4	6.55485E-002	3.68347E-008	0.00000E+000	6.55500E-002	1.00929E-003	5	..........a	-327.66
	127	25.6	7.55293E-002	3.81592E-008	0.00000E+000	7.55500E-002	1.02089E-003	5	..........a	-327.66
	128	25.8	8.55969E-002	3.95153E-008	0.00000E+000	8.55500E-002	1.00209E-003	5	..........a	-327.66
	129	26	9.55739E-002	4.08761E-008	0.00000E+000	9.55500E-002	1.01879E-003	5	..........a	-327.66
	130	26.2	1.05548E-001	4.22992E-008	0.00000E+000	1.05550E-001	1.02149E-003	5	..........a	-327.66
	131	26.4	1.15495E-001	4.36889E-008	0.00000E+000	1.15550E-001	1.01009E-003	5	..........a	-327.66
	132	26.6	1.25641E-001	4.51269E-008	0.00000E+000	1.25550E-001	1.00669E-003	5	..........a	-327.66
	133	26.8	1.35631E-001	4.65544E-008	0.00000E+000	1.35550E-001	1.01079E-003	5	..........a	-327.66
	134	27	1.45554E-001	4.80244E-008	0.00000E+000	1.45550E-001	1.01289E-003	5	..........a	-327.66
	135	27.2	1.55553E-001	4.95124E-008	0.00000E+000	1.55550E-001	1.00599E-003	5	..........a	-327.66
	136	27.4	1.65601E-001	5.09693E-008	0.00000E+000	1.65550E-001	1.00059E-003	5	..........a	-327.66
	137	27.6	1.75581E-001	5.24798E-008	0.00000E+000	1.75550E-001	1.02029E-003	5	..........a	-327.66
	138	27.8	1.85530E-001	5.39661E-008	0.00000E+000	1.85550E-001	1.02039E-003	5	..........a	-327.66
	139	28	1.95586E-001	5.54969E-008	0.00000E+000	1.95550E-001	9.96592E-004	5	..........a	-327.66
	140	28.2	2.05523E-001	5.70381E-008	0.00000E+000	2.05550E-001	1.00289E-003	5	..........a	-327.66
	141	28.4	2.15590E-001	5.87551E-008	0.00000E+000	2.15550E-001	1.00479E-003	5	..........a	-327.66
	142	28.6	2.25518E-001	6.05885E-008	0.00000E+000	2.25550E-001	9.94992E-004	5	..........a	-327.66
	143	28.8	2.35522E-001	6.24384E-008	0.00000E+000	2.35550E-001	1.02499E-003	5	..........a	-327.66
	144	29	2.45461E-001	6.40486E-008	0.00000E+000	2.45550E-001	9.84592E-004	5	..........a	-327.66
	145	29.2	2.55571E-001	6.55777E-008	0.00000E+000	2.55550E-001	1.00419E-003	5	..........a	-327.66
	146	29.4	2.65536E-001	6.70238E-008	0.00000E+000	2.65550E-001	9.99992E-004	5	..........a	-327.66
	147	29.6	2.75523E-001	6.84922E-008	0.00000E+000	2.75550E-001	1.01079E-003	5	..........a	-327.66
	148	29.8	2.85529E-001	7.00855E-008	0.00000E+000	2.85550E-001	1.01219E-003	5	..........a	-327.66
	149	30	2.95601E-001	7.16408E-008	0.00000E+000	2.95550E-001	1.00009E-003	5	..........a	-327.66
	150	30.2	3.05512E-001	7.32874E-008	0.00000E+000	3.05550E-001	9.98592E-004	5	..........a	-327.66
	151	30.4	3.15534E-001	7.50058E-008	0.00000E+000	3.15550E-001	1.00259E-003	5	..........a	-327.66
	152	30.6	3.25564E-001	7.67738E-008	0.00000E+000	3.25550E-001	9.86492E-004	5	..........a	-327.66
	153	30.8	3.35600E-001	7.86745E-008	0.00000E+000	3.35550E-001	1.02499E-003	5	..........a	-327.66
	154	31	3.45531E-001	8.06785E-008	0.00000E+000	3.45550E-001	1.00339E-003	5	..........a	-327.66
	155	31.2	3.55514E-001	8.28428E-008	0.00000E+000	3.55550E-001	1.00849E-003	5	..........a	-327.66
	156	31.4	3.65514E-001	8.50928E-008	0.00000E+000	3.65550E-001	9.90192E-004	5	..........a	-327.66
	157	31.6	3.75560E-001	8.74773E-008	0.00000E+000	3.75550E-001	1.00739E-003	5	..........a	-327.66
	158	31.8	3.85487E-001	8.99653E-008	0.00000E+000	3.85550E-001	1.00939E-003	5	..........a	-327.66
	159	32	3.95535E-001	9.25592E-008	0.00000E+000	3.95550E-001	1.00299E-003	5	..........a	-327.66
	160	32.2	4.05513E-001	9.52592E-008	0.00000E+000	4.05550E-001	1.00389E-003	5	..........a	-327.66
	161	32.4	4.15567E-001	9.80215E-008	0.00000E+000	4.15550E-001	1.02399E-003	5	..........a	-327.66
	162	32.6	4.25475E-001	1.00905E-007	0.00000E+000	4.25550E-001	1.00939E-003	5	..........a	-327.66
	163	32.8	4.35473E-001	1.03876E-007	0.00000E+000	4.35550E-001	1.01109E-003	5	..........a	-327.66
	164	33	4.45506E-001	1.06892E-007	0.00000E+000	4.45550E-001	1.02279E-003	5	..........a	-327.66
	165	33.2	4.55550E-001	1.09874E-007	0.00000E+000	4.55550E-001	1.00349E-003	5	..........a	-327.66
	166	33.4	4.65484E-001	1.12932E-007	0.00000E+000	4.65550E-001	1.02769E-003	5	..........a	-327.66
	167	33.6	4.75497E-001	1.15958E-007	0.00000E+000	4.75550E-001	1.02469E-003	5	..........a	-327.66
	168	33.8	4.85462E-001	1.18933E-007	0.00000E+000	4.85550E-001	1.00579E-003	5	..........a	-327.66
	169	34	4.95547E-001	1.21868E-007	0.00000E+000	4.95550E-001	9.88092E-004	5	..........a	-327.66
	170	34.2	5.05465E-001	1.24819E-007	0.00000E+000	5.05550E-001	1.01039E-003	5	..........a	-327.66
	171	34.4	5.15465E-001	1.27756E-007	0.00000E+000	5.15550E-001	1.01969E-003	5	..........a	-327.66
	172	34.6	5.25504E-001	1.30653E-007	0.00000E+000	5.25550E-001	1.00569E-003	5	..........a	-327.66
	173	34.8	5.35554E-001	1.33607E-007	0.00000E+000	5.35550E-001	1.01699E-003	5	..........a	-327.66
	174	35	5.45469E-001	1.36526E-007	0.00000E+000	5.45550E-001	9.99092E-004	5	..........a	-327.66
	175	35.2	5.55481E-001	1.39460E-007	0.00000E+000	5.55550E-001	1.01269E-003	5	..........a	-327.66
	176	35.4	5.65451E-001	1.42404E-007	0.00000E+000	5.65550E-001	1.00019E-003	5	..........a	-327.66
	177	35.6	5.75525E-001	1.45418E-007	0.00000E+000	5.75550E-001	1.00869E-003	5	..........a	-327.66
	178	35.8	5.85459E-001	1.48433E-007	0.00000E+000	5.85550E-001	1.01359E-003	5	..........a	-327.66
	179	36	5.95442E-001	1.51477E-007	0.00000E+000	5.95550E-001	1.00379E-003	5	..........a	-327.66
	180	36.2	6.05442E-001	1.54519E-007	0.00000E+000	6.05550E-001	1.00819E-003	5	..........a	-327.66
	181	36.4	6.15527E-001	1.57631E-007	0.00000E+000	6.15550E-001	9.88492E-004	5	..........a	-327.66
	182	36.6	6.25420E-001	1.60745E-007	0.00000E+000	6.25550E-001	1.00269E-003	5	..........a	-327.66
	183	36.8	6.35417E-001	1.64012E-007	0.00000E+000	6.35550E-001	9.99792E-004	5	..........a	-327.66
	184	37	6.45416E-001	1.67236E-007	0.00000E+000	6.45550E-001	9.84692E-004	5	..........a	-327.66
	185	37.2	6.55442E-001	1.70381E-007	0.00000E+000	6.55550E-001	1.01719E-003	5	..........a	-327.66
	186	37.4	6.65409E-001	1.73588E-007	0.00000E+000	6.65550E-001	9.99792E-004	5	..........a	-327.66
	187	37.6	6.75396E-001	1.76909E-007	0.00000E+000	6.75550E-001	9.88892E-004	5	..........a	-327.66
	188	37.8	6.85407E-001	1.80282E-007	0.00000E+000	6.85550E-001	9.92092E-004	5	..........a	-327.66
	189	38	6.95501E-001	1.83768E-007	0.00000E+000	6.95550E-001	1.01569E-003	5	..........a	-327.66
	190	38.2	7.05397E-001	1.87332E-007	0.00000E+000	7.05550E-001	1.01139E-003	5	..........a	-327.66
	191	38.4	7.15382E-001	1.91021E-007	0.00000E+000	7.15550E-001	1.02579E-003	5	..........a	-327.66
	192	38.6	7.25417E-001	1.94913E-007	0.00000E+000	7.25550E-001	1.00359E-003	5	..........a	-327.66
	193	38.8	7.35535E-001	1.99044E-007	0.00000E+000	7.35550E-001	1.00819E-003	5	..........a	-327.66
	194	39	7.45396E-001	2.03443E-007	0.00000E+000	7.45550E-001	9.98192E-004	5	..........a	-327.66
	195	39.2	7.55446E-001	2.08176E-007	0.00000E+000	7.55550E-001	9.95992E-004	5	..........a	-327.66
	196	39.4	7.65409E-001	2.13287E-007	0.00000E+000	7.65550E-001	9.93992E-004	5	..........a	-327.66
	197	39.6	7.75473E-001	2.18667E-007	0.00000E+000	7.75550E-001	1.00989E-003	5	..........a	-327.66
	198	39.8	7.85376E-001	2.24509E-007	0.00000E+000	7.85550E-001	1.00729E-003	5	..........a	-327.66
	199	40	7.95392E-001	2.30791E-007	0.00000E+000	7.95550E-001	1.00779E-003	5	..........a	-327.66
CURVE2	TABLE
	Pt	T	Vf	Im	Vu	Sig	Ach	IERange	Over	Temp
	#	s	V vs. Ref.	A	V	V	V	#	bits	deg C
	200	40.2	7.89960E-001	2.01292E-007	0.00000E+000	7.90000E-001	1.01879E-003	5	..........a	-327.66
	201	40.4	7.79858E-001	1.73212E-007	0.00000E+000	7.80000E-001	1.01109E-003	5	..........a	-327.66
	202	40.6	7.69914E-001	1.53062E-007	0.00000E+000	7.70000E-001	1.00789E-003	5	..........a	-327.66
	203	40.8	7.59866E-001	1.37549E-007	0.00000E+000	7.60000E-001	1.00249E-003	5	..........a	-327.66
	204	41	7.49969E-001	1.25085E-007	0.00000E+000	7.50000E-001	1.02639E-003	5	..........a	-327.66
	205	41.2	7.39924E-001	1.14767E-007	0.00000E+000	7.40000E-001	1.00119E-003	5	..........a	-327.66
	206	41.4	7.29887E-001	1.06031E-007	0.00000E+000	7.30000E-001	9.96292E-004	5	..........a	-327.66
	207	41.6	7.19902E-001	9.84988E-008	0.00000E+000	7.20000E-001	1.01259E-003	5	..........a	-327.66
	208	41.8	7.09975E-001	9.18646E-008	0.00000E+000	7.10000E-001	1.00359E-003	5	..........a	-327.66
	209	42	6.99904E-001	8.59831E-008	0.00000E+000	7.00000E-001	1.01609E-003	5	..........a	-327.66
	210	42.2	6.89898E-001	8.06486E-008	0.00000E+000	6.90000E-001	9.98792E-004	5	..........a	-327.66
	211	42.4	6.79956E-001	7.58065E-008	0.00000E+000	6.80000E-001	1.00709E-003	5	..........a	-327.66
	212	42.6	6.69975E-001	7.13523E-008	0.00000E+000	6.70000E-001	1.01939E-003	5	..........a	-327.66
	213	42.8	6.59941E-001	6.72242E-008	0.00000E+000	6.60000E-001	1.00229E-003	5	..........a	-327.66
	214	43	6.49922E-001	6.33569E-008	0.00000E+000	6.50000E-001	1.01819E-003	5	..........a	-327.66
	215	43.2	6.39896E-001	5.97021E-008	0.00000E+000	6.40000E-001	1.02409E-003	5	..........a	-327.66
	216	43.4	6.30032E-001	5.62951E-008	0.00000E+000	6.30000E-001	1.00219E-003	5	..........a	-327.66
	217	43.6	6.19927E-001	5.30314E-008	0.00000E+000	6.20000E-001	9.96192E-004	5	..........a	-327.66
	218	43.8	6.09954E-001	4.98999E-008	0.00000E+000	6.10000E-001	1.01169E-003	5	..........a	-327.66
	219	44	5.99971E-001	4.69339E-008	0.00000E+000	6.00000E-001	9.96492E-004	5	..........a	-327.66
	220	44.2	5.89969E-001	4.41029E-008	0.00000E+000	5.90000E-001	9.96792E-004	5	..........a	-327.66
	221	44.4	5.79994E-001	4.13668E-008	0.00000E+000	5.80000E-001	9.99192E-004	5	..........a	-327.66
	222	44.6	5.69944E-001	3.87242E-008	0.00000E+000	5.70000E-001	1.01209E-003	5	..........a	-327.66
	223	44.8	5.59970E-001	3.62204E-008	0.00000E+000	5.60000E-001	1.01179E-003	5	..........a	-327.66
	224	45	5.50029E-001	3.37413E-008	0.00000E+000	5.50000E-001	1.02479E-003	5	..........a	-327.66
	225	45.2	5.40001E-001	3.13219E-008	0.00000E+000	5.40000E-001	1.00649E-003	5	..........a	-327.66
	226	45.4	5.29928E-001	2.89484E-008	0.00000E+000	5.30000E-001	1.00879E-003	5	..........a	-327.66
	227	45.6	5.19972E-001	2.65955E-008	0.00000E+000	5.20000E-001	1.01089E-003	5	..........a	-327.66
	228	45.8	5.09965E-001	2.43205E-008	0.00000E+000	5.10000E-001	1.01079E-003	5	..........a	-327.66
	229	46	5.00055E-001	2.20559E-008	0.00000E+000	5.00000E-001	9.92892E-004	5	..........a	-327.66
	230	46.2	4.89922E-001	1.98180E-008	0.00000E+000	4.90000E-001	1.01479E-003	5	..........a	-327.66
	231	46.4	4.79916E-001	1.76180E-008	0.00000E+000	4.80000E-001	1.02399E-003	5	..........a	-327.66
	232	46.6	4.70031E-001	1.54069E-008	0.00000E+000	4.70000E-001	1.01799E-003	5	..........a	-327.66
	233	46.8	4.60008E-001	1.32298E-008	0.00000E+000	4.60000E-001	1.00889E-003	5	..........a	-327.66
	234	47	4.49786E-001	1.09433E-008	0.00000E+000	4.50000E-001	1.00249E-003	5	..........a	-327.66
	235	47.2	4.39937E-001	8.72093E-009	0.00000E+000	4.40000E-001	1.00529E-003	5	..........a	-327.66
	236	47.4	4.29993E-001	6.43572E-009	0.00000E+000	4.30000E-001	9.93492E-004	5	..........a	-327.66
	237	47.6	4.20014E-001	4.12854E-009	0.00000E+000	4.20000E-001	1.00699E-003	5	..........a	-327.66
	238	47.8	4.09941E-001	1.77598E-009	0.00000E+000	4.10000E-001	1.00209E-003	5	..........a	-327.66
	239	48	3.99987E-001	-6.40247E-010	0.00000E+000	4.00000E-001	1.01439E-003	5	..........a	-327.66
	240	48.2	3.90056E-001	-2.96095E-009	0.00000E+000	3.90000E-001	1.00989E-003	5	..........a	-327.66
	241	48.4	3.80070E-001	-5.31005E-009	0.00000E+000	3.80000E-001	9.92892E-004	5	..........a	-327.66
	242	48.6	3.70046E-001	-7.68628E-009	0.00000E+000	3.70000E-001	1.02309E-003	5	..........a	-327.66
	243	48.8	3.60020E-001	-1.00369E-008	0.00000E+000	3.60000E-001	1.02149E-003	5	..........a	-327.66
	244	49	3.50008E-001	-1.24122E-008	0.00000E+000	3.50000E-001	1.03779E-003	5	..........a	-327.66
	245	49.2	3.40103E-001	-1.47780E-008	0.00000E+000	3.40000E-001	9.87692E-004	5	..........a	-327.66
	246	49.4	3.29998E-001	-1.71030E-008	0.00000E+000	3.30000E-001	1.00669E-003	5	..........a	-327.66
	247	49.6	3.20075E-001	-1.94014E-008	0.00000E+000	3.20000E-001	1.01669E-003	5	..........a	-327.66
	248	49.8	3.10043E-001	-2.17263E-008	0.00000E+000	3.10000E-001	1.02339E-003	5	..........a	-327.66
	249	50	3.00093E-001	-2.39609E-008	0.00000E+000	3.00000E-001	1.02079E-003	5	..........a	-327.66
	250	50.2	2.90050E-001	-2.61241E-008	0.00000E+000	2.90000E-001	1.00459E-003	5	..........a	-327.66
	251	50.4	2.79986E-001	-2.81793E-008	0.00000E+000	2.80000E-001	1.01129E-003	5	..........a	-327.66
	252	50.6	2.70080E-001	-3.01966E-008	0.00000E+000	2.70000E-001	1.00409E-003	5	..........a	-327.66
	253	50.8	2.60062E-001	-3.21062E-008	0.00000E+000	2.60000E-001	9.97592E-004	5	..........a	-327.66
	254	51	2.50008E-001	-3.38585E-008	0.00000E+000	2.50000E-001	1.02239E-003	5	..........a	-327.66
	255	51.2	2.40061E-001	-3.54768E-008	0.00000E+000	2.40000E-001	1.00689E-003	5	..........a	-327.66
	256	51.4	2.30006E-001	-3.69432E-008	0.00000E+000	2.30000E-001	1.01239E-003	5	..........a	-327.66
	257	51.6	2.19981E-001	-3.82245E-008	0.00000E+000	2.20000E-001	9.93592E-004	5	..........a	-327.66
	258	51.8	2.10031E-001	-3.93649E-008	0.00000E+000	2.10000E-001	1.01439E-003	5	..........a	-327.66
	259	52	2.00065E-001	-4.02879E-008	0.00000E+000	2.00000E-001	9.95992E-004	5	..........a	-327.66
	260	52.2	1.90119E-001	-4.11911E-008	0.00000E+000	1.90000E-001	1.01339E-003	5	..........a	-327.66
	261	52.4	1.80128E-001	-4.17290E-008	0.00000E+000	1.80000E-001	9.82692E-004	5	..........a	-327.66
	262	52.6	1.70074E-001	-4.21823E-008	0.00000E+000	1.70000E-001	9.94692E-004	5	..........a	-327.66
	263	52.8	1.60055E-001	-4.24254E-008	0.00000E+000	1.60000E-001	9.96792E-004	5	..........a	-327.66
	264	53	1.50063E-001	-4.26139E-008	0.00000E+000	1.50000E-001	1.00709E-003	5	..........a	-327.66
	265	53.2	1.40131E-001	-4.27722E-008	0.00000E+000	1.40000E-001	1.00389E-003	5	..........a	-327.66
	266	53.4	1.30055E-001	-4.28849E-008	0.00000E+000	1.30000E-001	1.00299E-003	5	..........a	-327.66
	267	53.6	1.20056E-001	-4.30623E-008	0.00000E+000	1.20000E-001	1.01609E-003	5	..........a	-327.66
	268	53.8	1.10114E-001	-4.32287E-008	0.00000E+000	1.10000E-001	1.00269E-003	5	..........a	-327.66
	269	54	1.00131E-001	-4.34837E-008	0.00000E+000	1.00000E-001	9.96692E-004	5	..........a	-327.66
	270	54.2	9.00916E-002	-4.37834E-008	0.00000E+000	9.00000E-002	1.01379E-003	5	..........a	-327.66
	271	54.4	8.00672E-002	-4.40956E-008	0.00000E+000	8.00000E-002	1.01459E-003	5	..........a	-327.66
	272	54.6	7.00798E-002	-4.45135E-008	0.00000E+000	7.00000E-002	1.01719E-003	5	..........a	-327.66
	273	54.8	6.01403E-002	-4.49285E-008	0.00000E+000	6.00000E-002	1.00369E-003	5	..........a	-327.66
	274	55	5.00741E-002	-4.54666E-008	0.00000E+000	5.00000E-002	1.00889E-003	5	..........a	-327.66
	275	55.2	4.01048E-002	-4.59906E-008	0.00000E+000	4.00000E-002	1.01769E-003	5	..........a	-327.66
	276	55.4	3.00892E-002	-4.65844E-008	0.00000E+000	3.00000E-002	1.01219E-003	5	..........a	-327.66
	277	55.6	2.01759E-002	-4.71718E-008	0.00000E+000	2.00000E-002	1.02759E-003	5	..........a	-327.66
	278	55.8	1.01014E-002	-4.79706E-008	0.00000E+000	1.00000E-002	1.00559E-003	5	..........a	-327.66
	279	56	3.11917E-005	-4.88886E-008	0.00000E+000	7.45058E-009	1.00229E-003	5	..........a	-327.66
	280	56.2	-9.86496E-003	-4.96455E-008	0.00000E+000	-1.00000E-002	9.87792E-004	5	..........a	-327.66
	281	56.4	-1.98773E-002	-5.01145E-008	0.00000E+000	-2.00000E-002	9.93592E-004	5	..........a	-327.66
	282	56.6	-2.99246E-002	-5.07143E-008	0.00000E+000	-3.00000E-002	1.01029E-003	5	..........a	-327.66
	283	56.8	-3.98921E-002	-5.19209E-008	0.00000E+000	-4.00000E-002	9.91692E-004	5	..........a	-327.66
	284	57	-4.99123E-002	-5.26966E-008	0.00000E+000	-5.00000E-002	1.02599E-003	5	..........a	-327.66
	285	57.2	-5.98055E-002	-5.34850E-008	0.00000E+000	-6.00000E-002	9.99192E-004	5	..........a	-327.66
	286	57.4	-6.98988E-002	-5.46359E-008	0.00000E+000	-7.00000E-002	1.00209E-003	5	..........a	-327.66
	287	57.6	-7.99141E-002	-5.52180E-008	0.00000E+000	-8.00000E-002	9.99692E-004	5	..........a	-327.66
	288	57.8	-8.98805E-002	-5.63031E-008	0.00000E+000	-9.00000E-002	1.00859E-003	5	..........a	-327.66
	289	58	-9.98684E-002	-5.72670E-008	0.00000E+000	-1.00000E-001	1.00939E-003	5	..........a	-327.66
	290	58.2	-1.09974E-001	-5.88891E-008	0.00000E+000	-1.10000E-001	1.00689E-003	5	..........a	-327.66
	291	58.4	-1.19901E-001	-5.96262E-008	0.00000E+000	-1.20000E-001	1.00709E-003	5	..........a	-327.66
	292	58.6	-1.29934E-001	-6.11459E-008	0.00000E+000	-1.30000E-001	9.89592E-004	5	..........a	-327.66
	293	58.8	-1.39876E-001	-6.26081E-008	0.00000E+000	-1.40000E-001	1.00569E-003	5	..........a	-327.66
	294	59	-1.49955E-001	-6.36883E-008	0.00000E+000	-1.50000E-001	9.98092E-004	5	..........a	-327.66
	295	59.2	-1.59919E-001	-6.51609E-008	0.00000E+000	-1.60000E-001	1.01449E-003	5	..........a	-327.66
	296	59.4	-1.69872E-001	-6.65153E-008	0.00000E+000	-1.70000E-001	9.98292E-004	5	..........a	-327.66
	297	59.6	-1.79871E-001	-6.82103E-008	0.00000E+000	-1.80000E-001	1.01209E-003	5	..........a	-327.66
	298	59.8	-1.90054E-001	-6.97064E-008	0.00000E+000	-1.90000E-001	1.00819E-003	5	..........a	-327.66
	299	60	-1.99911E-001	-7.07849E-008	0.00000E+000	-2.00000E-001	9.84392E-004	5	..........a	-327.66
	300	60.2	-2.09867E-001	-7.18985E-008	0.00000E+000	-2.10000E-001	1.01229E-003	5	..........a	-327.66
	301	60.4	-2.19843E-001	-7.31217E-008	0.00000E+000	-2.20000E-001	9.91392E-004	5	..........a	-327.66
	302	60.6	-2.29882E-001	-7.55280E-008	0.00000E+000	-2.30000E-001	1.00289E-003	5	..........a	-327.66
	303	60.8	-2.39870E-001	-7.66938E-008	0.00000E+000	-2.40000E-001	9.93092E-004	5	..........a	-327.66
	304	61	-2.49866E-001	-7.78795E-008	0.00000E+000	-2.50000E-001	1.00169E-003	5	..........a	-327.66
	305	61.2	-2.59765E-001	-7.92236E-008	0.00000E+000	-2.60000E-001	1.00599E-003	5	..........a	-327.66
	306	61.4	-2.69844E-001	-8.09126E-008	0.00000E+000	-2.70000E-001	9.88392E-004	5	..........a	-327.66
	307	61.6	-2.79889E-001	-8.24229E-008	0.00000E+000	-2.80000E-001	1.01389E-003	5	..........a	-327.66
	308	61.8	-2.89886E-001	-8.42322E-008	0.00000E+000	-2.90000E-001	9.96192E-004	5	..........a	-327.66
	309	62	-2.99825E-001	-8.57838E-008	0.00000E+000	-3.00000E-001	9.90292E-004	5	..........a	-327.66
	310	62.2	-3.09868E-001	-8.76141E-008	0.00000E+000	-3.10000E-001	1.00799E-003	5	..........a	-327.66
	311	62.4	-3.19843E-001	-8.92729E-008	0.00000E+000	-3.20000E-001	9.88592E-004	5	..........a	-327.66
	312	62.6	-3.29861E-001	-9.10433E-008	0.00000E+000	-3.30000E-001	1.00879E-003	5	..........a	-327.66
	313	62.8	-3.39773E-001	-9.28917E-008	0.00000E+000	-3.40000E-001	9.94592E-004	5	..........a	-327.66
	314	63	-3.49858E-001	-9.45966E-008	0.00000E+000	-3.50000E-001	1.00669E-003	5	..........a	-327.66
	315	63.2	-3.59865E-001	-9.70503E-008	0.00000E+000	-3.60000E-001	1.01039E-003	5	..........a	-327.66
	316	63.4	-3.69839E-001	-9.81294E-008	0.00000E+000	-3.70000E-001	1.01739E-003	5	..........a	-327.66
	317	63.6	-3.79800E-001	-9.99395E-008	0.00000E+000	-3.80000E-001	1.00889E-003	5	..........a	-327.66
	318	63.8	-3.89885E-001	-1.01640E-007	0.00000E+000	-3.90000E-001	1.01779E-003	5	..........a	-327.66
	319	64	-3.99841E-001	-1.03635E-007	0.00000E+000	-4.00000E-001	1.00119E-003	5	..........a	-327.66
	320	64.2	-4.09851E-001	-1.05029E-007	0.00000E+000	-4.10000E-001	1.00969E-003	5	..........a	-327.66
	321	64.4	-4.19747E-001	-1.06690E-007	0.00000E+000	-4.20000E-001	1.00629E-003	5	..........a	-327.66
	322	64.6	-4.29835E-001	-1.08470E-007	0.00000E+000	-4.30000E-001	1.00069E-003	5	..........a	-327.66
	323	64.8	-4.39845E-001	-1.10036E-007	0.00000E+000	-4.40000E-001	9.94792E-004	5	..........a	-327.66
	324	65	-4.49825E-001	-1.11521E-007	0.00000E+000	-4.50000E-001	9.99592E-004	5	..........a	-327.66
	325	65.2	-4.59769E-001	-1.13239E-007	0.00000E+000	-4.60000E-001	9.87892E-004	5	..........a	-327.66
	326	65.4	-4.69826E-001	-1.14938E-007	0.00000E+000	-4.70000E-001	1.01099E-003	5	..........a	-327.66
	327	65.6	-4.79809E-001	-1.16270E-007	0.00000E+000	-4.80000E-001	9.84792E-004	5	..........a	-327.66
	328	65.8	-4.89826E-001	-1.18077E-007	0.00000E+000	-4.90000E-001	1.00159E-003	5	..........a	-327.66
	329	66	-4.99796E-001	-1.19378E-007	0.00000E+000	-5.00000E-001	1.00539E-003	5	..........a	-327.66
	330	66.2	-5.09837E-001	-1.20995E-007	0.00000E+000	-5.10000E-001	1.00829E-003	5	..........a	-327.66
	331	66.4	-5.19838E-001	-1.22615E-007	0.00000E+000	-5.20000E-001	1.00669E-003	5	..........a	-327.66
	332	66.6	-5.29822E-001	-1.24210E-007	0.00000E+000	-5.30000E-001	1.00199E-003	5	..........a	-327.66
	333	66.8	-5.39750E-001	-1.25560E-007	0.00000E+000	-5.40000E-001	9.98792E-004	5	..........a	-327.66
	334	67	-5.49843E-001	-1.27368E-007	0.00000E+000	-5.50000E-001	1.01499E-003	5	..........a	-327.66
	335	67.2	-5.59833E-001	-1.28497E-007	0.00000E+000	-5.60000E-001	1.02799E-003	5	..........a	-327.66
	336	67.4	-5.69845E-001	-1.30070E-007	0.00000E+000	-5.70000E-001	1.02869E-003	5	..........a	-327.66
	337	67.6	-5.79769E-001	-1.31439E-007	0.00000E+000	-5.80000E-001	9.90992E-004	5	..........a	-327.66
	338	67.8	-5.89835E-001	-1.32885E-007	0.00000E+000	-5.90000E-001	1.01149E-003	5	..........a	-327.66
	339	68	-5.99751E-001	-1.34090E-007	0.00000E+000	-6.00000E-001	1.00209E-003	5	..........a	-327.66
	340	68.2	-5.89864E-001	-1.19924E-007	0.00000E+000	-5.90000E-001	1.01289E-003	5	..........a	-327.66
	341	68.4	-5.79778E-001	-1.10537E-007	0.00000E+000	-5.80000E-001	9.78692E-004	5	..........a	-327.66
	342	68.6	-5.69845E-001	-1.03109E-007	0.00000E+000	-5.70000E-001	1.01009E-003	5	..........a	-327.66
	343	68.8	-5.59834E-001	-9.68219E-008	0.00000E+000	-5.60000E-001	1.02249E-003	5	..........a	-327.66
	344	69	-5.49844E-001	-9.17489E-008	0.00000E+000	-5.50000E-001	9.98292E-004	5	..........a	-327.66
	345	69.2	-5.39785E-001	-8.66436E-008	0.00000E+000	-5.40000E-001	1.00019E-003	5	..........a	-327.66
	346	69.4	-5.29840E-001	-8.25195E-008	0.00000E+000	-5.30000E-001	9.94792E-004	5	..........a	-327.66
	347	69.6	-5.19873E-001	-7.79496E-008	0.00000E+000	-5.20000E-001	1.01569E-003	5	..........a	-327.66
	348	69.8	-5.09892E-001	-7.42488E-008	0.00000E+000	-5.10000E-001	9.90192E-004	5	..........a	-327.66
	349	70	-4.99814E-001	-7.07166E-008	0.00000E+000	-5.00000E-001	1.00029E-003	5	..........a	-327.66
	350	70.2	-4.89852E-001	-6.75866E-008	0.00000E+000	-4.90000E-001	9.91892E-004	5	..........a	-327.66
	351	70.4	-4.79879E-001	-6.40264E-008	0.00000E+000	-4.80000E-001	1.00939E-003	5	..........a	-327.66
	352	70.6	-4.69838E-001	-6.09066E-008	0.00000E+000	-4.70000E-001	9.87892E-004	5	..........a	-327.66
[...]
	920	184.2	-3.89914E-001	-4.18951E-008	0.00000E+000	-3.90000E-001	9.88992E-004	5	..........a	-327.66
	921	184.4	-3.79841E-001	-3.94581E-008	0.00000E+000	-3.80000E-001	9.88192E-004	5	..........a	-327.66
	922	184.6	-3.69864E-001	-3.71399E-008	0.00000E+000	-3.70000E-001	1.00559E-003	5	..........a	-327.66
	923	184.8	-3.59932E-001	-3.47582E-008	0.00000E+000	-3.60000E-001	9.94392E-004	5	..........a	-327.66
	924	185	-3.49889E-001	-3.24616E-008	0.00000E+000	-3.50000E-001	1.02199E-003	5	..........a	-327.66
	925	185.2	-3.39868E-001	-3.02271E-008	0.00000E+000	-3.40000E-001	9.91892E-004	5	..........a	-327.66
	926	185.4	-3.29946E-001	-2.80433E-008	0.00000E+000	-3.30000E-001	1.01929E-003	5	..........a	-327.66
	927	185.6	-3.19882E-001	-2.58753E-008	0.00000E+000	-3.20000E-001	9.99192E-004	5	..........a	-327.66
	928	185.8	-3.09895E-001	-2.37337E-008	0.00000E+000	-3.10000E-001	9.91492E-004	5	..........a	-327.66
	929	186	-2.99871E-001	-2.16878E-008	0.00000E+000	-3.00000E-001	9.98392E-004	5	..........a	-327.66
	930	186.2	-2.89915E-001	-1.96040E-008	0.00000E+000	-2.90000E-001	1.00829E-003	5	..........a	-327.66
	931	186.4	-2.79971E-001	-1.75844E-008	0.00000E+000	-2.80000E-001	1.00309E-003	5	..........a	-327.66
	932	186.6	-2.69885E-001	-1.56440E-008	0.00000E+000	-2.70000E-001	9.98392E-004	5	..........a	-327.66
	933	186.8	-2.59857E-001	-1.36679E-008	0.00000E+000	-2.60000E-001	9.88692E-004	5	..........a	-327.66
	934	187	-2.49893E-001	-1.17886E-008	0.00000E+000	-2.50000E-001	9.96992E-004	5	..........a	-327.66
	935	187.2	-2.39897E-001	-9.91156E-009	0.00000E+000	-2.40000E-001	9.98792E-004	5	..........a	-327.66
	936	187.4	-2.29922E-001	-8.09444E-009	0.00000E+000	-2.30000E-001	1.01009E-003	5	..........a	-327.66
	937	187.6	-2.19891E-001	-6.30465E-009	0.00000E+000	-2.20000E-001	9.92992E-004	5	..........a	-327.66
	938	187.8	-2.09901E-001	-4.52757E-009	0.00000E+000	-2.10000E-001	9.97592E-004	5	..........a	-327.66
	939	188	-1.99966E-001	-2.83882E-009	0.00000E+000	-2.00000E-001	1.00239E-003	5	..........a	-327.66
	940	188.2	-1.89937E-001	-1.11164E-009	0.00000E+000	-1.90000E-001	9.89692E-004	5	..........a	-327.66
	941	188.4	-1.79961E-001	5.68818E-010	0.00000E+000	-1.80000E-001	9.96292E-004	5	..........a	-327.66
	942	188.6	-1.69939E-001	2.20503E-009	0.00000E+000	-1.70000E-001	1.01319E-003	5	..........a	-327.66
	943	188.8	-1.60040E-001	3.84501E-009	0.00000E+000	-1.60000E-001	1.00129E-003	5	..........a	-327.66
	944	189	-1.49998E-001	5.41262E-009	0.00000E+000	-1.50000E-001	9.98792E-004	5	..........a	-327.66
	945	189.2	-1.39909E-001	7.00231E-009	0.00000E+000	-1.40000E-001	9.92492E-004	5	..........a	-327.66
	946	189.4	-1.29992E-001	8.55997E-009	0.00000E+000	-1.30000E-001	1.01559E-003	5	..........a	-327.66
	947	189.6	-1.19975E-001	1.00963E-008	0.00000E+000	-1.20000E-001	1.00619E-003	5	..........a	-327.66
	948	189.8	-1.10001E-001	1.16328E-008	0.00000E+000	-1.10000E-001	1.00589E-003	5	..........a	-327.66
	949	190	-9.99655E-002	1.31414E-008	0.00000E+000	-1.00000E-001	9.83192E-004	5	..........a	-327.66
	950	190.2	-8.99286E-002	1.46296E-008	0.00000E+000	-9.00000E-002	9.99692E-004	5	..........a	-327.66
	951	190.4	-7.99877E-002	1.61385E-008	0.00000E+000	-8.00000E-002	1.00759E-003	5	..........a	-327.66
	952	190.6	-7.00061E-002	1.76175E-008	0.00000E+000	-7.00000E-002	9.85592E-004	5	..........a	-327.66
	953	190.8	-5.99306E-002	1.91021E-008	0.00000E+000	-6.00000E-002	9.81692E-004	5	..........a	-327.66
	954	191	-4.99457E-002	2.05401E-008	0.00000E+000	-5.00000E-002	1.01509E-003	5	..........a	-327.66
	955	191.2	-3.99578E-002	2.20749E-008	0.00000E+000	-4.00000E-002	1.01039E-003	5	..........a	-327.66
	956	191.4	-3.00077E-002	2.35498E-008	0.00000E+000	-3.00000E-002	1.01189E-003	5	..........a	-327.66
	957	191.6	-1.99569E-002	2.49930E-008	0.00000E+000	-2.00000E-002	9.93692E-004	5	..........a	-327.66
	958	191.8	-9.93341E-003	2.64464E-008	0.00000E+000	-1.00000E-002	1.00379E-003	5	..........a	-327.66
	959	192	-4.39083E-005	2.79075E-008	0.00000E+000	7.45058E-009	1.02059E-003	5	..........a	-327.66
	960	192.2	1.00376E-002	2.93892E-008	0.00000E+000	1.00000E-002	9.97892E-004	5	..........a	-327.66
	961	192.4	2.00696E-002	3.08403E-008	0.00000E+000	2.00000E-002	1.00099E-003	5	..........a	-327.66
	962	192.6	3.00183E-002	3.23494E-008	0.00000E+000	3.00000E-002	1.00839E-003	5	..........a	-327.66
	963	192.8	3.99739E-002	3.38046E-008	0.00000E+000	4.00000E-002	9.90392E-004	5	..........a	-327.66
	964	193	5.00216E-002	3.53222E-008	0.00000E+000	5.00000E-002	1.00259E-003	5	..........a	-327.66
	965	193.2	6.00567E-002	3.68115E-008	0.00000E+000	6.00000E-002	9.78892E-004	5	..........a	-327.66
	966	193.4	6.99545E-002	3.83393E-008	0.00000E+000	7.00000E-002	1.00859E-003	5	..........a	-327.66
	967	193.6	7.99769E-002	3.98301E-008	0.00000E+000	8.00000E-002	1.00969E-003	5	..........a	-327.66
	968	193.8	9.00308E-002	4.13915E-008	0.00000E+000	9.00000E-002	1.01429E-003	5	..........a	-327.66
	969	194	1.00048E-001	4.29556E-008	0.00000E+000	1.00000E-001	9.85592E-004	5	..........a	-327.66
	970	194.2	1.10041E-001	4.48998E-008	0.00000E+000	1.10000E-001	9.85892E-004	5	..........a	-327.66
	971	194.4	1.19993E-001	4.65389E-008	0.00000E+000	1.20000E-001	9.90692E-004	5	..........a	-327.66
	972	194.6	1.30024E-001	4.77851E-008	0.00000E+000	1.30000E-001	9.93292E-004	5	..........a	-327.66
	973	194.8	1.40047E-001	4.92966E-008	0.00000E+000	1.40000E-001	1.00309E-003	5	..........a	-327.66
	974	195	1.50018E-001	5.08024E-008	0.00000E+000	1.50000E-001	1.01009E-003	5	..........a	-327.66
	975	195.2	1.59989E-001	5.23533E-008	0.00000E+000	1.60000E-001	1.00529E-003	5	..........a	-327.66
	976	195.4	1.69984E-001	5.38914E-008	0.00000E+000	1.70000E-001	1.01419E-003	5	..........a	-327.66
	977	195.6	1.80018E-001	5.54137E-008	0.00000E+000	1.80000E-001	9.93392E-004	5	..........a	-327.66
	978	195.8	1.90075E-001	5.69083E-008	0.00000E+000	1.90000E-001	1.00099E-003	5	..........a	-327.66
	979	196	1.99995E-001	5.84511E-008	0.00000E+000	2.00000E-001	9.97892E-004	5	..........a	-327.66
	980	196.2	2.09956E-001	5.99526E-008	0.00000E+000	2.10000E-001	1.00519E-003	5	..........a	-327.66
	981	196.4	2.19829E-001	6.13457E-008	0.00000E+000	2.20000E-001	9.99992E-004	5	..........a	-327.66
	982	196.6	2.29980E-001	6.28225E-008	0.00000E+000	2.30000E-001	1.00979E-003	5	..........a	-327.66
	983	196.8	2.39963E-001	6.41736E-008	0.00000E+000	2.40000E-001	1.00579E-003	5	..........a	-327.66
	984	197	2.49960E-001	6.54738E-008	0.00000E+000	2.50000E-001	1.02619E-003	5	..........a	-327.66
	985	197.2	2.59991E-001	6.67399E-008	0.00000E+000	2.60000E-001	1.00249E-003	5	..........a	-327.66
	986	197.4	2.70028E-001	6.80372E-008	0.00000E+000	2.70000E-001	9.98292E-004	5	..........a	-327.66
	987	197.6	2.79927E-001	6.92801E-008	0.00000E+000	2.80000E-001	1.00309E-003	5	..........a	-327.66
	988	197.8	2.89990E-001	7.05176E-008	0.00000E+000	2.90000E-001	1.00499E-003	5	..........a	-327.66
	989	198	2.99964E-001	7.17907E-008	0.00000E+000	3.00000E-001	9.78592E-004	5	..........a	-327.66
	990	198.2	3.10011E-001	7.30661E-008	0.00000E+000	3.10000E-001	1.01299E-003	5	..........a	-327.66
	991	198.4	3.19978E-001	7.43208E-008	0.00000E+000	3.20000E-001	1.00559E-003	5	..........a	-327.66
	992	198.6	3.29990E-001	7.56551E-008	0.00000E+000	3.30000E-001	1.01919E-003	5	..........a	-327.66
	993	198.8	3.40030E-001	7.69786E-008	0.00000E+000	3.40000E-001	9.98492E-004	5	..........a	-327.66
	994	199	3.50028E-001	7.83638E-008	0.00000E+000	3.50000E-001	1.01309E-003	5	..........a	-327.66
	995	199.2	3.59932E-001	7.96736E-008	0.00000E+000	3.60000E-001	9.97892E-004	5	..........a	-327.66
	996	199.4	3.69998E-001	8.10742E-008	0.00000E+000	3.70000E-001	9.98992E-004	5	..........a	-327.66
	997	199.6	3.79986E-001	8.24828E-008	0.00000E+000	3.80000E-001	9.97892E-004	5	..........a	-327.66
	998	199.8	3.90000E-001	8.39025E-008	0.00000E+000	3.90000E-001	9.99292E-004	5	..........a	-327.66
	999	200	3.99924E-001	8.53469E-008	0.00000E+000	4.00000E-001	9.92492E-004	5	..........a	-327.66
	1000	200.2	4.09922E-001	8.68282E-008	0.00000E+000	4.10000E-001	1.00299E-003	5	..........a	-327.66
	1001	200.4	4.19967E-001	8.83369E-008	0.00000E+000	4.20000E-001	1.00779E-003	5	..........a	-327.66
	1002	200.6	4.29932E-001	8.98815E-008	0.00000E+000	4.30000E-001	9.98992E-004	5	..........a	-327.66
	1003	200.8	4.39921E-001	9.14141E-008	0.00000E+000	4.40000E-001	1.02589E-003	5	..........a	-327.66
	1004	201	4.49821E-001	9.29793E-008	0.00000E+000	4.50000E-001	9.96392E-004	5	..........a	-327.66
	1005	201.2	4.59942E-001	9.45498E-008	0.00000E+000	4.60000E-001	9.97892E-004	5	..........a	-327.66
	1006	201.4	4.69992E-001	9.61151E-008	0.00000E+000	4.70000E-001	9.98092E-004	5	..........a	-327.66
	1007	201.6	4.79908E-001	9.77417E-008	0.00000E+000	4.80000E-001	9.99192E-004	5	..........a	-327.66
	1008	201.8	4.89899E-001	9.94272E-008	0.00000E+000	4.90000E-001	1.00589E-003	5	..........a	-327.66
	1009	202	4.99975E-001	1.01140E-007	0.00000E+000	5.00000E-001	9.81792E-004	5	..........a	-327.66
	1010	202.2	5.09972E-001	1.02932E-007	0.00000E+000	5.10000E-001	9.99892E-004	5	..........a	-327.66
	1011	202.4	5.19927E-001	1.04891E-007	0.00000E+000	5.20000E-001	1.01319E-003	5	..........a	-327.66
	1012	202.6	5.29929E-001	1.06962E-007	0.00000E+000	5.30000E-001	1.00729E-003	5	..........a	-327.66
	1013	202.8	5.39945E-001	1.08986E-007	0.00000E+000	5.40000E-001	9.97492E-004	5	..........a	-327.66
	1014	203	5.49990E-001	1.11211E-007	0.00000E+000	5.50000E-001	1.00279E-003	5	..........a	-327.66
	1015	203.2	5.59921E-001	1.13423E-007	0.00000E+000	5.60000E-001	1.00479E-003	5	..........a	-327.66
	1016	203.4	5.69900E-001	1.15750E-007	0.00000E+000	5.70000E-001	9.91992E-004	5	..........a	-327.66
	1017	203.6	5.79921E-001	1.18170E-007	0.00000E+000	5.80000E-001	9.83692E-004	5	..........a	-327.66
	1018	203.8	5.89975E-001	1.20759E-007	0.00000E+000	5.90000E-001	1.00989E-003	5	..........a	-327.66
	1019	204	5.99917E-001	1.23069E-007	0.00000E+000	6.00000E-001	9.87892E-004	5	..........a	-327.66
	1020	204.2	6.09883E-001	1.25584E-007	0.00000E+000	6.10000E-001	1.00299E-003	5	..........a	-327.66
	1021	204.4	6.19895E-001	1.28100E-007	0.00000E+000	6.20000E-001	1.01139E-003	5	..........a	-327.66
	1022	204.6	6.29979E-001	1.30658E-007	0.00000E+000	6.30000E-001	9.98592E-004	5	..........a	-327.66
	1023	204.8	6.39870E-001	1.33245E-007	0.00000E+000	6.40000E-001	1.01459E-003	5	..........a	-327.66
	1024	205	6.49866E-001	1.35895E-007	0.00000E+000	6.50000E-001	1.00829E-003	5	..........a	-327.66
	1025	205.2	6.59880E-001	1.38682E-007	0.00000E+000	6.60000E-001	9.93692E-004	5	..........a	-327.66
	1026	205.4	6.69951E-001	1.41548E-007	0.00000E+000	6.70000E-001	9.91992E-004	5	..........a	-327.66
	1027	205.6	6.79865E-001	1.44504E-007	0.00000E+000	6.80000E-001	9.70692E-004	5	..........a	-327.66
	1028	205.8	6.89886E-001	1.47641E-007	0.00000E+000	6.90000E-001	1.00649E-003	5	..........a	-327.66
	1029	206	6.99884E-001	1.50991E-007	0.00000E+000	7.00000E-001	9.91392E-004	5	..........a	-327.66
	1030	206.2	7.09971E-001	1.54554E-007	0.00000E+000	7.10000E-001	1.00529E-003	5	..........a	-327.66
	1031	206.4	7.19872E-001	1.58428E-007	0.00000E+000	7.20000E-001	9.99292E-004	5	..........a	-327.66
	1032	206.6	7.29865E-001	1.62625E-007	0.00000E+000	7.30000E-001	1.00729E-003	5	..........a	-327.66
	1033	206.8	7.39871E-001	1.67234E-007	0.00000E+000	7.40000E-001	1.01429E-003	5	..........a	-327.66
	1034	207	7.49947E-001	1.72295E-007	0.00000E+000	7.50000E-001	1.00519E-003	5	..........a	-327.66
	1035	207.2	7.59855E-001	1.77927E-007	0.00000E+000	7.60000E-001	9.96492E-004	5	..........a	-327.66
	1036	207.4	7.69854E-001	1.83754E-007	0.00000E+000	7.70000E-001	1.00569E-003	5	..........a	-327.66
	1037	207.6	7.79850E-001	1.90022E-007	0.00000E+000	7.80000E-001	1.00209E-003	5	..........a	-327.66
	1038	207.8	7.89949E-001	1.96928E-007	0.00000E+000	7.90000E-001	1.00779E-003	5	..........a	-327.66
	1039	208	7.99837E-001	2.04372E-007	0.00000E+000	8.00000E-001	9.81092E-004	5	..........a	-327.66
CURVE5	TABLE
	Pt	T	Vf	Im	Vu	Sig	Ach	IERange	Over	Temp
	#	s	V vs. Ref.	A	V	V	V	#	bits	deg C
	1040	208.2	7.89963E-001	1.70398E-007	0.00000E+000	7.90000E-001	1.01549E-003	5	..........a	-327.66
	1041	208.4	7.79864E-001	1.47991E-007	0.00000E+000	7.80000E-001	1.00279E-003	5	..........a	-327.66
	1042	208.6	7.69889E-001	1.31480E-007	0.00000E+000	7.70000E-001	9.97792E-004	5	..........a	-327.66
	1043	208.8	7.59891E-001	1.18571E-007	0.00000E+000	7.60000E-001	9.97092E-004	5	..........a	-327.66
	1044	209	7.49975E-001	1.08190E-007	0.00000E+000	7.50000E-001	9.94492E-004	5	..........a	-327.66
	1045	209.2	7.39918E-001	9.94643E-008	0.00000E+000	7.40000E-001	9.84092E-004	5	..........a	-327.66
	1046	209.4	7.29908E-001	9.20349E-008	0.00000E+000	7.30000E-001	9.99492E-004	5	..........a	-327.66
	1047	209.6	7.19889E-001	8.55875E-008	0.00000E+000	7.20000E-001	1.01269E-003	5	..........a	-327.66
	1048	209.8	7.09958E-001	7.98303E-008	0.00000E+000	7.10000E-001	1.00709E-003	5	..........a	-327.66
	1049	210	6.99901E-001	7.47253E-008	0.00000E+000	7.00000E-001	9.92192E-004	5	..........a	-327.66
	1050	210.2	6.89889E-001	7.00766E-008	0.00000E+000	6.90000E-001	1.00929E-003	5	..........a	-327.66
	1051	210.4	6.79937E-001	6.57728E-008	0.00000E+000	6.80000E-001	1.00119E-003	5	..........a	-327.66
	1052	210.6	6.69972E-001	6.18079E-008	0.00000E+000	6.70000E-001	1.01939E-003	5	..........a	-327.66
	1053	210.8	6.59940E-001	5.81163E-008	0.00000E+000	6.60000E-001	1.00419E-003	5	..........a	-327.66
	1054	211	6.49923E-001	5.46485E-008	0.00000E+000	6.50000E-001	1.01699E-003	5	..........a	-327.66
	1055	211.2	6.39896E-001	5.13445E-008	0.00000E+000	6.40000E-001	1.00649E-003	5	..........a	-327.66
	1056	211.4	6.30011E-001	4.82296E-008	0.00000E+000	6.30000E-001	9.93592E-004	5	..........a	-327.66
	1057	211.6	6.19935E-001	4.52320E-008	0.00000E+000	6.20000E-001	9.87092E-004	5	..........a	-327.66
	1058	211.8	6.09966E-001	4.23732E-008	0.00000E+000	6.10000E-001	1.01259E-003	5	..........a	-327.66
	1059	212	5.99961E-001	3.95961E-008	0.00000E+000	6.00000E-001	9.92392E-004	5	..........a	-327.66
	1060	212.2	5.90033E-001	3.69982E-008	0.00000E+000	5.90000E-001	1.00889E-003	5	..........a	-327.66
	1061	212.4	5.80010E-001	3.45222E-008	0.00000E+000	5.80000E-001	1.00479E-003	5	..........a	-327.66
	1062	212.6	5.69976E-001	3.20997E-008	0.00000E+000	5.70000E-001	1.01769E-003	5	..........a	-327.66
	1063	212.8	5.59953E-001	2.97782E-008	0.00000E+000	5.60000E-001	1.00299E-003	5	..........a	-327.66
	1064	213	5.50038E-001	2.74576E-008	0.00000E+000	5.50000E-001	1.00699E-003	5	..........a	-327.66
	1065	213.2	5.39994E-001	2.51340E-008	0.00000E+000	5.40000E-001	1.01109E-003	5	..........a	-327.66
	1066	213.4	5.29930E-001	2.28757E-008	0.00000E+000	5.30000E-001	1.02279E-003	5	..........a	-327.66
	1067	213.6	5.19982E-001	2.06317E-008	0.00000E+000	5.20000E-001	9.92792E-004	5	..........a	-327.66
	1068	213.8	5.09954E-001	1.84703E-008	0.00000E+000	5.10000E-001	1.02549E-003	5	..........a	-327.66
	1069	214	5.00036E-001	1.63538E-008	0.00000E+000	5.00000E-001	1.01399E-003	5	..........a	-327.66
	1070	214.2	4.89959E-001	1.42800E-008	0.00000E+000	4.90000E-001	1.00469E-003	5	..........a	-327.66
	1071	214.4	4.79913E-001	1.22179E-008	0.00000E+000	4.80000E-001	9.98792E-004	5	..........a	-327.66
	1072	214.6	4.70031E-001	1.01083E-008	0.00000E+000	4.70000E-001	1.00099E-003	5	..........a	-327.66
	1073	214.8	4.59998E-001	8.01962E-009	0.00000E+000	4.60000E-001	1.00899E-003	5	..........a	-327.66
	1074	215	4.49764E-001	5.83791E-009	0.00000E+000	4.50000E-001	9.93992E-004	5	..........a	-327.66
	1075	215.2	4.39948E-001	3.64948E-009	0.00000E+000	4.40000E-001	9.92792E-004	5	..........a	-327.66
	1076	215.4	4.29986E-001	1.40573E-009	0.00000E+000	4.30000E-001	9.90992E-004	5	..........a	-327.66
	1077	215.6	4.20005E-001	-9.23068E-010	0.00000E+000	4.20000E-001	1.02679E-003	5	..........a	-327.66
	1078	215.8	4.10003E-001	-3.14869E-009	0.00000E+000	4.10000E-001	1.00199E-003	5	..........a	-327.66
	1079	216	4.00033E-001	-5.37816E-009	0.00000E+000	4.00000E-001	9.92592E-004	5	..........a	-327.66
	1080	216.2	3.90056E-001	-7.63135E-009	0.00000E+000	3.90000E-001	1.00629E-003	5	..........a	-327.66
	1081	216.4	3.80074E-001	-9.93856E-009	0.00000E+000	3.80000E-001	9.97792E-004	5	..........a	-327.66
	1082	216.6	3.70046E-001	-1.21873E-008	0.00000E+000	3.70000E-001	9.99192E-004	5	..........a	-327.66
	1083	216.8	3.60031E-001	-1.44927E-008	0.00000E+000	3.60000E-001	1.00399E-003	5	..........a	-327.66
	1084	217	3.50018E-001	-1.67796E-008	0.00000E+000	3.50000E-001	1.01469E-003	5	..........a	-327.66
	1085	217.2	3.40099E-001	-1.90162E-008	0.00000E+000	3.40000E-001	1.01449E-003	5	..........a	-327.66
	1086	217.4	3.30023E-001	-2.13049E-008	0.00000E+000	3.30000E-001	9.99092E-004	5	..........a	-327.66
	1087	217.6	3.20063E-001	-2.35168E-008	0.00000E+000	3.20000E-001	1.00469E-003	5	..........a	-327.66
	1088	217.8	3.10071E-001	-2.57102E-008	0.00000E+000	3.10000E-001	1.00939E-003	5	..........a	-327.66
	1089	218	3.00103E-001	-2.78378E-008	0.00000E+000	3.00000E-001	1.00399E-003	5	..........a	-327.66
	1090	218.2	2.90070E-001	-2.98659E-008	0.00000E+000	2.90000E-001	1.00659E-003	5	..........a	-327.66
	1091	218.4	2.79996E-001	-3.18886E-008	0.00000E+000	2.80000E-001	9.96692E-004	5	..........a	-327.66
	1092	218.6	2.70065E-001	-3.37308E-008	0.00000E+000	2.70000E-001	9.93992E-004	5	..........a	-327.66
	1093	218.8	2.60074E-001	-3.55019E-008	0.00000E+000	2.60000E-001	9.91792E-004	5	..........a	-327.66
	1094	219	2.50014E-001	-3.71089E-008	0.00000E+000	2.50000E-001	9.97292E-004	5	..........a	-327.66
	1095	219.2	2.40056E-001	-3.85874E-008	0.00000E+000	2.40000E-001	9.99692E-004	5	..........a	-327.66
	1096	219.4	2.30030E-001	-3.98668E-008	0.00000E+000	2.30000E-001	1.01869E-003	5	..........a	-327.66
	1097	219.6	2.20077E-001	-4.10022E-008	0.00000E+000	2.20000E-001	9.90592E-004	5	..........a	-327.66
	1098	219.8	2.10031E-001	-4.20358E-008	0.00000E+000	2.10000E-001	9.95192E-004	5	..........a	-327.66
	1099	220	2.00057E-001	-4.28009E-008	0.00000E+000	2.00000E-001	1.00859E-003	5	..........a	-327.66
	1100	220.2	1.90117E-001	-4.33981E-008	0.00000E+000	1.90000E-001	9.97992E-004	5	..........a	-327.66
	1101	220.4	1.80107E-001	-4.38125E-008	0.00000E+000	1.80000E-001	9.90592E-004	5	..........a	-327.66
	1102	220.6	1.70098E-001	-4.40815E-008	0.00000E+000	1.70000E-001	1.00679E-003	5	..........a	-327.66
	1103	220.8	1.60090E-001	-4.42390E-008	0.00000E+000	1.60000E-001	1.00999E-003	5	..........a	-327.66
	1104	221	1.50111E-001	-4.43630E-008	0.00000E+000	1.50000E-001	9.95192E-004	5	..........a	-327.66
	1105	221.2	1.40137E-001	-4.44202E-008	0.00000E+000	1.40000E-001	9.97592E-004	5	..........a	-327.66
	1106	221.4	1.30091E-001	-4.44886E-008	0.00000E+000	1.30000E-001	1.00009E-003	5	..........a	-327.66
	1107	221.6	1.20105E-001	-4.46445E-008	0.00000E+000	1.20000E-001	9.94892E-004	5	..........a	-327.66
	1108	221.8	1.10139E-001	-4.48548E-008	0.00000E+000	1.10000E-001	9.93592E-004	5	..........a	-327.66
	1109	222	1.00118E-001	-4.51713E-008	0.00000E+000	1.00000E-001	9.96192E-004	5	..........a	-327.66
	1110	222.2	9.01082E-002	-4.56183E-008	0.00000E+000	9.00000E-002	1.00349E-003	5	..........a	-327.66
	1111	222.4	8.00823E-002	-4.60380E-008	0.00000E+000	8.00000E-002	1.02089E-003	5	..........a	-327.66
	1112	222.6	7.00492E-002	-4.65759E-008	0.00000E+000	7.00000E-002	1.01979E-003	5	..........a	-327.66
	1113	222.8	6.01256E-002	-4.71574E-008	0.00000E+000	6.00000E-002	1.01689E-003	5	..........a	-327.66
	1114	223	5.00371E-002	-4.77533E-008	0.00000E+000	5.00000E-002	1.02069E-003	5	..........a	-327.66
	1115	223.2	4.00754E-002	-4.84052E-008	0.00000E+000	4.00000E-002	1.00499E-003	5	..........a	-327.66
	1116	223.4	3.00689E-002	-4.91338E-008	0.00000E+000	3.00000E-002	1.00679E-003	5	..........a	-327.66
	1117	223.6	2.01813E-002	-4.99151E-008	0.00000E+000	2.00000E-002	1.00329E-003	5	..........a	-327.66
	1118	223.8	1.01217E-002	-5.06562E-008	0.00000E+000	1.00000E-002	9.98192E-004	5	..........a	-327.66
	1119	224	5.85417E-005	-5.13709E-008	0.00000E+000	7.45058E-009	1.00119E-003	5	..........a	-327.66
	1120	224.2	-9.88236E-003	-5.18761E-008	0.00000E+000	-1.00000E-002	9.95992E-004	5	..........a	-327.66