File: data/raw/batch_data/20240424_ZI_GM0016_HL03_E09_CV50.DTA
EXPLAIN
TAG	CV
TITLE	LABEL	Cyclic Voltammetry	Test &Identifier
DATE	LABEL	4/24/2024	Date
TIME	LABEL	18:41:37	Time
NOTES	NOTES	1	&Notes...

PSTAT	PSTAT	REF600P-43058	Potentiostat
VINIT	POTEN	0.00000E+000	T	Initial &E (V)
VLIMIT1	POTEN	-6.00000E-001	F	Scan Limit &1 (V)
VLIMIT2	POTEN	8.00000E-001	F	Scan Limit &2 (V)
VFINAL	POTEN	0.00000E+000	T	Final &E (V)
SCANRATE	QUANT	4.99999E+001	&Scan Rate (mV/s)
STEPSIZE	QUANT	1.00000E+001	St&ep Size (mV)
CYCLES	IQUANT	4	C&ycles (#)
IMODE	SELECTOR	0	I/E Range &Mode
IRANGE	QUANT	1.00000E-005	&Max Current (mA)
AREA	QUANT	1.00000E+000	Electrode &Area (cm^2)
ELECTRODETYPE	SELECTOR	0	Electrode Type
STRIPPING	TOGGLE	F	Used for Stripping
POLARITY	TOGGLE	F	Signal Polarity
CONDIT	TWOPARAM	F	1.50000E+001	0.00000E+000	Conditionin&g	Time(s)	E(V)
DELAY	TWOPARAM	T	1.00000E+001	0.00000E+000	Init. De&lay	Time(s)	Stab.(mV/s)
EQDELAY	QUANT	1.00000E+001	Equil. &Time (s)
IRCOMP	SELECTOR	0	IRCom&p
PFCOR	QUANT	5.00000E+001	PF Corr. (ohm)
SAMPLINGMODE	SELECTOR	1	Sampling &Mode
OCVCURVE	TABLE	39
	Pt	T	Vf	Vm	Ach	Over	Temp
	#	s	V vs. Ref.	V	V	bits	deg C
	0	0.258333	-4.41129E-002	-4.41129E-002	2.47326E-004	..........a	-327.66
	1	0.516667	-4.41154E-002	-4.42474E-002	2.44259E-004	..........a	-327.66
	2	0.775	-4.41310E-002	-4.43655E-002	2.51059E-004	..........a	-327.66
	3	1.03333	-4.41749E-002	-4.44963E-002	2.52859E-004	..........a	-327.66
	4	1.29167	-4.42536E-002	-4.46177E-002	2.49592E-004	..........a	-327.66
	5	1.55	-4.43598E-002	-4.47440E-002	2.44059E-004	..........a	-327.66
	6	1.80833	-4.44806E-002	-4.48653E-002	2.46192E-004	..........a	-327.66
	7	2.06667	-4.46058E-002	-4.49767E-002	2.42859E-004	..........a	-327.66
	8	2.325	-4.47301E-002	-4.50972E-002	2.42192E-004	..........a	-327.66
	9	2.58333	-4.48514E-002	-4.52163E-002	2.43526E-004	..........a	-327.66
	10	2.84167	-4.49704E-002	-4.53349E-002	2.32392E-004	..........a	-327.66
	11	3.1	-4.50887E-002	-4.54521E-002	2.48659E-004	..........a	-327.66
	12	3.35833	-4.52067E-002	-4.55630E-002	2.43659E-004	..........a	-327.66
	13	3.61667	-4.53242E-002	-4.56817E-002	2.46592E-004	..........a	-327.66
	14	3.875	-4.54405E-002	-4.57862E-002	2.42526E-004	..........a	-327.66
	15	4.13333	-4.55554E-002	-4.59081E-002	2.34059E-004	..........a	-327.66
	16	4.39167	-4.56691E-002	-4.60140E-002	2.49459E-004	..........a	-327.66
	17	4.65	-4.57820E-002	-4.61195E-002	2.48992E-004	..........a	-327.66
	18	4.90833	-4.58940E-002	-4.62375E-002	2.34059E-004	..........a	-327.66
	19	5.16667	-4.60048E-002	-4.63419E-002	2.57326E-004	..........a	-327.66
	20	5.425	-4.61148E-002	-4.64416E-002	2.43392E-004	..........a	-327.66
	21	5.68333	-4.62239E-002	-4.65615E-002	2.37859E-004	..........a	-327.66
	22	5.94167	-4.63320E-002	-4.66611E-002	2.57926E-004	..........a	-327.66
	23	6.2	-4.64395E-002	-4.67609E-002	2.36926E-004	..........a	-327.66
	24	6.45833	-4.65465E-002	-4.68797E-002	2.37926E-004	..........a	-327.66
	25	6.71667	-4.66527E-002	-4.69764E-002	2.52592E-004	..........a	-327.66
	26	6.975	-4.67586E-002	-4.70695E-002	2.47659E-004	..........a	-327.66
	27	7.23333	-4.68633E-002	-4.71808E-002	2.51192E-004	..........a	-327.66
	28	7.49167	-4.69664E-002	-4.72915E-002	2.44259E-004	..........a	-327.66
	29	7.75	-4.70692E-002	-4.73816E-002	2.61459E-004	..........a	-327.66
	30	8.00833	-4.71726E-002	-4.74825E-002	2.44459E-004	..........a	-327.66
	31	8.26667	-4.72751E-002	-4.75857E-002	2.35392E-004	..........a	-327.66
	32	8.525	-4.73762E-002	-4.76851E-002	2.49926E-004	..........a	-327.66
	33	8.78333	-4.74765E-002	-4.77799E-002	2.48992E-004	..........a	-327.66
	34	9.04167	-4.75762E-002	-4.78743E-002	2.50526E-004	..........a	-327.66
	35	9.3	-4.76748E-002	-4.79771E-002	2.39059E-004	..........a	-327.66
	36	9.5583	-4.77725E-002	-4.80747E-002	2.52659E-004	..........a	-327.66
	37	9.8167	-4.78701E-002	-4.81680E-002	2.44726E-004	..........a	-327.66
	38	10.075	-4.79677E-002	-4.82633E-002	2.51526E-004	..........a	-327.66
EOC	QUANT	-0.0479677	Open Circuit (V)
PSTATMODEL	IQUANT	7	Pstat Model
PSTATSECTION	LABEL	REF600P-43058	Pstat Section
PSTATSERIALNO	LABEL	43058	Pstat Serial Number
CTRLMODE	IQUANT	1	Control Mode
ELECTROMETER	IQUANT	0	RE=0 or CS=1
IESTAB	IQUANT	2	I/E Stability
CASPEED	IQUANT	4	Control Amp Speed
CONVENTION	IQUANT	1	Current Convention
ICHRANGE	IQUANT	2	Ich Range
ICHRANGEMODE	TOGGLE	F	Ich Auto Range
ICHOFFSETENABLE	TOGGLE	F	Ich Offset Enable
ICHOFFSET	QUANT	0	Ich Offset (V)
ICHFILTER	IQUANT	2	Ich Filter
VCHRANGE	IQUANT	2	Vch Range
VCHRANGEMODE	TOGGLE	F	Vch Auto Range
VCHOFFSETENABLE	TOGGLE	F	Vch Offset Enable
VCHOFFSET	QUANT	0	Vch Offset (V)
VCHFILTER	IQUANT	2	Vch Filter
ACHRANGE	IQUANT	2	Ach Range
ACHOFFSETENABLE	TOGGLE	F	Ach Offset Enable
ACHOFFSET	QUANT	0	Ach Offset (V)
ACHFILTER	IQUANT	1	Ach Filter
IERANGELOWERLIMIT	IQUANT	1	I/E Range Lower Limit
IERANGEMODE	TOGGLE	T	I/E AutoRange
IERANGE	IQUANT	4	I/E Range
POSFEEDENABLE	TOGGLE	F	Positive Feedback IR Comp
POSFEEDRESISTANCE	QUANT	0	Positive Feedback Resistance (ohm)
ACHSELECT	IQUANT	4	Ach Select
SENSECABLEID	IQUANT	7	Sense Cable ID
PWRCABLEID	IQUANT	7	Power Cable ID
DCCALDATE	LABEL	3/22/2024	DC Calibration Date
ACCALDATE	LABEL	3/22/2024	AC Calibration Date
THERMOSELECT	IQUANT	1	Thermo Select
FRAMEWORKVERSION	LABEL	7.8.4	Framework Version
INSTRUMENTVERSION	LABEL	4.42	Instrument Version
CURVE1	TABLE
	Pt	T	Vf	Im	Vu	Sig	Ach	IERange	Over	Temp
	#	s	V vs. Ref.	A	V	V	V	#	bits	deg C
	0	0.2	-4.79223E-002	7.06833E-010	0.00000E+000	-4.79500E-002	9.96292E-004	5	..........a	-327.66
	1	0.4	-5.79330E-002	-2.20686E-009	0.00000E+000	-5.79500E-002	1.00999E-003	5	..........a	-327.66
	2	0.6	-6.78352E-002	-4.22900E-009	0.00000E+000	-6.79500E-002	9.85492E-004	5	..........a	-327.66
	3	0.8	-7.78802E-002	-5.95696E-009	0.00000E+000	-7.79500E-002	9.94192E-004	5	..........a	-327.66
	4	1	-8.79357E-002	-7.51381E-009	0.00000E+000	-8.79500E-002	9.94392E-004	5	..........a	-327.66
	5	1.2	-9.78618E-002	-8.98133E-009	0.00000E+000	-9.79500E-002	9.88192E-004	5	..........a	-327.66
	6	1.4	-1.07839E-001	-1.03710E-008	0.00000E+000	-1.07950E-001	9.70792E-004	5	..........a	-327.66
	7	1.6	-1.17880E-001	-1.17185E-008	0.00000E+000	-1.17950E-001	9.82692E-004	5	..........a	-327.66
	8	1.8	-1.27948E-001	-1.30400E-008	0.00000E+000	-1.27950E-001	1.00999E-003	5	..........a	-327.66
	9	2	-1.37862E-001	-1.42955E-008	0.00000E+000	-1.37950E-001	9.92092E-004	5	..........a	-327.66
	10	2.2	-1.47862E-001	-1.55366E-008	0.00000E+000	-1.47950E-001	9.93192E-004	5	..........a	-327.66
	11	2.4	-1.57893E-001	-1.67529E-008	0.00000E+000	-1.57950E-001	9.88992E-004	5	..........a	-327.66
	12	2.6	-1.67885E-001	-1.79569E-008	0.00000E+000	-1.67950E-001	9.95592E-004	5	..........a	-327.66
	13	2.8	-1.77860E-001	-1.91318E-008	0.00000E+000	-1.77950E-001	9.98492E-004	5	..........a	-327.66
	14	3	-1.87823E-001	-2.03023E-008	0.00000E+000	-1.87950E-001	9.94592E-004	5	..........a	-327.66
	15	3.2	-1.97878E-001	-2.14632E-008	0.00000E+000	-1.97950E-001	9.98392E-004	5	..........a	-327.66
	16	3.4	-2.07903E-001	-2.26092E-008	0.00000E+000	-2.07950E-001	9.97592E-004	5	..........a	-327.66
	17	3.6	-2.17849E-001	-2.37529E-008	0.00000E+000	-2.17950E-001	9.85392E-004	5	..........a	-327.66
	18	3.8	-2.27799E-001	-2.49018E-008	0.00000E+000	-2.27950E-001	9.94992E-004	5	..........a	-327.66
	19	4	-2.37870E-001	-2.60620E-008	0.00000E+000	-2.37950E-001	1.00029E-003	5	..........a	-327.66
	20	4.2	-2.47852E-001	-2.72096E-008	0.00000E+000	-2.47950E-001	1.00809E-003	5	..........a	-327.66
	21	4.4	-2.57864E-001	-2.84037E-008	0.00000E+000	-2.57950E-001	1.00449E-003	5	..........a	-327.66
	22	4.6	-2.67763E-001	-2.96132E-008	0.00000E+000	-2.67950E-001	9.92092E-004	5	..........a	-327.66
	23	4.8	-2.77853E-001	-3.08314E-008	0.00000E+000	-2.77950E-001	9.93392E-004	5	..........a	-327.66
	24	5	-2.87867E-001	-3.20981E-008	0.00000E+000	-2.87950E-001	9.99692E-004	5	..........a	-327.66
	25	5.2	-2.97835E-001	-3.33977E-008	0.00000E+000	-2.97950E-001	9.87492E-004	5	..........a	-327.66
	26	5.4	-3.07774E-001	-3.47291E-008	0.00000E+000	-3.07950E-001	1.00009E-003	5	..........a	-327.66
	27	5.6	-3.17869E-001	-3.61406E-008	0.00000E+000	-3.17950E-001	1.00429E-003	5	..........a	-327.66
	28	5.8	-3.27880E-001	-3.75646E-008	0.00000E+000	-3.27950E-001	1.01109E-003	5	..........a	-327.66
	29	6	-3.37842E-001	-3.90526E-008	0.00000E+000	-3.37950E-001	1.01359E-003	5	..........a	-327.66
	30	6.2	-3.47821E-001	-4.06133E-008	0.00000E+000	-3.47950E-001	9.94592E-004	5	..........a	-327.66
	31	6.4	-3.57866E-001	-4.22088E-008	0.00000E+000	-3.57950E-001	9.85592E-004	5	..........a	-327.66
	32	6.6	-3.67837E-001	-4.38665E-008	0.00000E+000	-3.67950E-001	1.00199E-003	5	..........a	-327.66
	33	6.8	-3.77831E-001	-4.55201E-008	0.00000E+000	-3.77950E-001	1.01029E-003	5	..........a	-327.66
	34	7	-3.87749E-001	-4.72121E-008	0.00000E+000	-3.87950E-001	9.99592E-004	5	..........a	-327.66
	35	7.2	-3.97837E-001	-4.89641E-008	0.00000E+000	-3.97950E-001	1.00079E-003	5	..........a	-327.66
	36	7.4	-4.07829E-001	-5.06864E-008	0.00000E+000	-4.07950E-001	1.01389E-003	5	..........a	-327.66
	37	7.6	-4.17838E-001	-5.24654E-008	0.00000E+000	-4.17950E-001	1.01089E-003	5	..........a	-327.66
	38	7.8	-4.27779E-001	-5.42692E-008	0.00000E+000	-4.27950E-001	9.83992E-004	5	..........a	-327.66
	39	8	-4.37815E-001	-5.60206E-008	0.00000E+000	-4.37950E-001	9.77992E-004	5	..........a	-327.66
	40	8.2	-4.47800E-001	-5.78064E-008	0.00000E+000	-4.47950E-001	9.94692E-004	5	..........a	-327.66
	41	8.4	-4.57817E-001	-5.95947E-008	0.00000E+000	-4.57950E-001	1.02369E-003	5	..........a	-327.66
	42	8.6	-4.67712E-001	-6.13673E-008	0.00000E+000	-4.67950E-001	9.94692E-004	5	..........a	-327.66
	43	8.8	-4.77805E-001	-6.31453E-008	0.00000E+000	-4.77950E-001	9.80792E-004	5	..........a	-327.66
	44	9	-4.87804E-001	-6.48937E-008	0.00000E+000	-4.87950E-001	9.89392E-004	5	..........a	-327.66
	45	9.2	-4.97822E-001	-6.66464E-008	0.00000E+000	-4.97950E-001	1.01499E-003	5	..........a	-327.66
	46	9.4	-5.07743E-001	-6.83406E-008	0.00000E+000	-5.07950E-001	9.72292E-004	5	..........a	-327.66
	47	9.6	-5.17816E-001	-7.00745E-008	0.00000E+000	-5.17950E-001	9.82392E-004	5	..........a	-327.66
	48	9.8	-5.27797E-001	-7.17651E-008	0.00000E+000	-5.27950E-001	9.91292E-004	5	..........a	-327.66
	49	10	-5.37839E-001	-7.34704E-008	0.00000E+000	-5.37950E-001	9.91192E-004	5	..........a	-327.66
	50	10.2	-5.47810E-001	-7.51477E-008	0.00000E+000	-5.47950E-001	9.82592E-004	5	..........a	-327.66
	51	10.4	-5.57812E-001	-7.68150E-008	0.00000E+000	-5.57950E-001	1.01019E-003	5	..........a	-327.66
	52	10.6	-5.67834E-001	-7.85485E-008	0.00000E+000	-5.67950E-001	1.00739E-003	5	..........a	-327.66
	53	10.8	-5.77801E-001	-8.02942E-008	0.00000E+000	-5.77950E-001	9.82892E-004	5	..........a	-327.66
	54	11	-5.87738E-001	-8.21048E-008	0.00000E+000	-5.87950E-001	9.88692E-004	5	..........a	-327.66
	55	11.2	-5.97802E-001	-8.39460E-008	0.00000E+000	-5.97950E-001	9.89892E-004	5	..........a	-327.66
	56	11.4	-5.87730E-001	-7.27806E-008	0.00000E+000	-5.87950E-001	9.95692E-004	5	..........a	-327.66
	57	11.6	-5.77806E-001	-6.55960E-008	0.00000E+000	-5.77950E-001	1.02719E-003	5	..........a	-327.66
	58	11.8	-5.67833E-001	-5.99226E-008	0.00000E+000	-5.67950E-001	1.00049E-003	5	..........a	-327.66
	59	12	-5.57823E-001	-5.53459E-008	0.00000E+000	-5.57950E-001	9.92792E-004	5	..........a	-327.66
	60	12.2	-5.47798E-001	-5.13401E-008	0.00000E+000	-5.47950E-001	9.99892E-004	5	..........a	-327.66
	61	12.4	-5.37834E-001	-4.77371E-008	0.00000E+000	-5.37950E-001	1.01409E-003	5	..........a	-327.66
	62	12.6	-5.27769E-001	-4.44582E-008	0.00000E+000	-5.27950E-001	9.98792E-004	5	..........a	-327.66
	63	12.8	-5.17829E-001	-4.15466E-008	0.00000E+000	-5.17950E-001	9.98492E-004	5	..........a	-327.66
	64	13	-5.07768E-001	-3.87554E-008	0.00000E+000	-5.07950E-001	9.84792E-004	5	..........a	-327.66
	65	13.2	-4.97836E-001	-3.61996E-008	0.00000E+000	-4.97950E-001	1.00589E-003	5	..........a	-327.66
	66	13.4	-4.87799E-001	-3.37813E-008	0.00000E+000	-4.87950E-001	1.02109E-003	5	..........a	-327.66
	67	13.6	-4.77819E-001	-3.15115E-008	0.00000E+000	-4.77950E-001	1.00439E-003	5	..........a	-327.66
	68	13.8	-4.67703E-001	-2.93373E-008	0.00000E+000	-4.67950E-001	9.87892E-004	5	..........a	-327.66
	69	14	-4.57831E-001	-2.72889E-008	0.00000E+000	-4.57950E-001	9.92392E-004	5	..........a	-327.66
	70	14.2	-4.47785E-001	-2.53017E-008	0.00000E+000	-4.47950E-001	1.00979E-003	5	..........a	-327.66
	71	14.4	-4.37810E-001	-2.34741E-008	0.00000E+000	-4.37950E-001	1.01539E-003	5	..........a	-327.66
	72	14.6	-4.27792E-001	-2.16800E-008	0.00000E+000	-4.27950E-001	9.83792E-004	5	..........a	-327.66
	73	14.8	-4.17821E-001	-1.99511E-008	0.00000E+000	-4.17950E-001	1.00669E-003	5	..........a	-327.66
	74	15	-4.07831E-001	-1.83029E-008	0.00000E+000	-4.07950E-001	9.85092E-004	5	..........a	-327.66
	75	15.2	-3.97841E-001	-1.67406E-008	0.00000E+000	-3.97950E-001	9.98792E-004	5	..........a	-327.66
	76	15.4	-3.87770E-001	-1.51798E-008	0.00000E+000	-3.87950E-001	9.89792E-004	5	..........a	-327.66
	77	15.6	-3.77836E-001	-1.36907E-008	0.00000E+000	-3.77950E-001	1.01659E-003	5	..........a	-327.66
	78	15.8	-3.67897E-001	-1.22824E-008	0.00000E+000	-3.67950E-001	1.00349E-003	5	..........a	-327.66
	79	16	-3.57875E-001	-1.09253E-008	0.00000E+000	-3.57950E-001	9.88992E-004	5	..........a	-327.66
	80	16.2	-3.47827E-001	-9.55807E-009	0.00000E+000	-3.47950E-001	9.94692E-004	5	..........a	-327.66
	81	16.4	-3.37845E-001	-8.25790E-009	0.00000E+000	-3.37950E-001	1.00479E-003	5	..........a	-327.66
	82	16.6	-3.27887E-001	-7.00518E-009	0.00000E+000	-3.27950E-001	9.97392E-004	5	..........a	-327.66
	83	16.8	-3.17846E-001	-5.79795E-009	0.00000E+000	-3.17950E-001	9.97392E-004	5	..........a	-327.66
	84	17	-3.07828E-001	-4.59727E-009	0.00000E+000	-3.07950E-001	1.00019E-003	5	..........a	-327.66
	85	17.2	-2.97842E-001	-3.43322E-009	0.00000E+000	-2.97950E-001	1.00889E-003	5	..........a	-327.66
	86	17.4	-2.87874E-001	-2.30474E-009	0.00000E+000	-2.87950E-001	1.02049E-003	5	..........a	-327.66
	87	17.6	-2.77869E-001	-1.19851E-009	0.00000E+000	-2.77950E-001	1.00439E-003	5	..........a	-327.66
	88	17.8	-2.67793E-001	-1.54409E-010	0.00000E+000	-2.67950E-001	9.91892E-004	5	..........a	-327.66
	89	18	-2.57883E-001	9.54322E-010	0.00000E+000	-2.57950E-001	9.92992E-004	5	..........a	-327.66
	90	18.2	-2.47869E-001	2.00839E-009	0.00000E+000	-2.47950E-001	1.00419E-003	5	..........a	-327.66
	91	18.4	-2.37909E-001	3.03425E-009	0.00000E+000	-2.37950E-001	9.94692E-004	5	..........a	-327.66
	92	18.6	-2.27815E-001	4.03000E-009	0.00000E+000	-2.27950E-001	9.98792E-004	5	..........a	-327.66
	93	18.8	-2.17842E-001	5.00654E-009	0.00000E+000	-2.17950E-001	9.91392E-004	5	..........a	-327.66
	94	19	-2.07876E-001	5.97355E-009	0.00000E+000	-2.07950E-001	9.90092E-004	5	..........a	-327.66
	95	19.2	-1.97882E-001	6.93811E-009	0.00000E+000	-1.97950E-001	9.91692E-004	5	..........a	-327.66
	96	19.4	-1.87863E-001	7.85503E-009	0.00000E+000	-1.87950E-001	1.00639E-003	5	..........a	-327.66
	97	19.6	-1.77920E-001	8.80942E-009	0.00000E+000	-1.77950E-001	1.00339E-003	5	..........a	-327.66
	98	19.8	-1.67874E-001	9.72145E-009	0.00000E+000	-1.67950E-001	1.00389E-003	5	..........a	-327.66
	99	20	-1.57877E-001	1.05982E-008	0.00000E+000	-1.57950E-001	1.00269E-003	5	..........a	-327.66
	100	20.2	-1.47877E-001	1.15197E-008	0.00000E+000	-1.47950E-001	9.79392E-004	5	..........a	-327.66
	101	20.4	-1.37874E-001	1.23978E-008	0.00000E+000	-1.37950E-001	9.94792E-004	5	..........a	-327.66
	102	20.6	-1.28012E-001	1.32957E-008	0.00000E+000	-1.27950E-001	1.02429E-003	5	..........a	-327.66
	103	20.8	-1.17898E-001	1.41658E-008	0.00000E+000	-1.17950E-001	9.91692E-004	5	..........a	-327.66
	104	21	-1.07825E-001	1.50362E-008	0.00000E+000	-1.07950E-001	9.90992E-004	5	..........a	-327.66
	105	21.2	-9.78812E-002	1.59159E-008	0.00000E+000	-9.79500E-002	9.88992E-004	5	..........a	-327.66
	106	21.4	-8.80441E-002	1.68175E-008	0.00000E+000	-8.79500E-002	1.01289E-003	5	..........a	-327.66
	107	21.6	-7.79541E-002	1.76654E-008	0.00000E+000	-7.79500E-002	9.91792E-004	5	..........a	-327.66
	108	21.8	-6.78621E-002	1.85500E-008	0.00000E+000	-6.79500E-002	9.86492E-004	5	..........a	-327.66
	109	22	-5.79173E-002	1.94622E-008	0.00000E+000	-5.79500E-002	1.01959E-003	5	..........a	-327.66
	110	22.2	-4.79403E-002	2.03696E-008	0.00000E+000	-4.79500E-002	1.01149E-003	5	..........a	-327.66
	111	22.4	-3.79063E-002	2.12934E-008	0.00000E+000	-3.79500E-002	1.02039E-003	5	..........a	-327.66
	112	22.6	-2.78541E-002	2.22570E-008	0.00000E+000	-2.79500E-002	9.81692E-004	5	..........a	-327.66
	113	22.8	-1.79257E-002	2.32040E-008	0.00000E+000	-1.79500E-002	9.96292E-004	5	..........a	-327.66
	114	23	-7.95451E-003	2.42017E-008	0.00000E+000	-7.94999E-003	9.84692E-004	5	..........a	-327.66
	115	23.2	2.11889E-003	2.52143E-008	0.00000E+000	2.05000E-003	1.01479E-003	5	..........a	-327.66
	116	23.4	1.21443E-002	2.62222E-008	0.00000E+000	1.20500E-002	9.90092E-004	5	..........a	-327.66
	117	23.6	2.20769E-002	2.72906E-008	0.00000E+000	2.20500E-002	1.00479E-003	5	..........a	-327.66
	118	23.8	3.20326E-002	2.83101E-008	0.00000E+000	3.20500E-002	1.02779E-003	5	..........a	-327.66
	119	24	4.20856E-002	2.93877E-008	0.00000E+000	4.20500E-002	9.93592E-004	5	..........a	-327.66
	120	24.2	5.21750E-002	3.04354E-008	0.00000E+000	5.20500E-002	9.94992E-004	5	..........a	-327.66
	121	24.4	6.21420E-002	3.14885E-008	0.00000E+000	6.20500E-002	9.99392E-004	5	..........a	-327.66
	122	24.6	7.20734E-002	3.25509E-008	0.00000E+000	7.20500E-002	1.00719E-003	5	..........a	-327.66
	123	24.8	8.20283E-002	3.36001E-008	0.00000E+000	8.20500E-002	9.95792E-004	5	..........a	-327.66
	124	25	9.21955E-002	3.46608E-008	0.00000E+000	9.20500E-002	9.89292E-004	5	..........a	-327.66
	125	25.2	1.02050E-001	3.57347E-008	0.00000E+000	1.02050E-001	1.02289E-003	5	..........a	-327.66
	126	25.4	1.12110E-001	3.68450E-008	0.00000E+000	1.12050E-001	1.01119E-003	5	..........a	-327.66
	127	25.6	1.22099E-001	3.79530E-008	0.00000E+000	1.22050E-001	9.92192E-004	5	..........a	-327.66
	128	25.8	1.32152E-001	3.92038E-008	0.00000E+000	1.32050E-001	1.00209E-003	5	..........a	-327.66
	129	26	1.42105E-001	4.11973E-008	0.00000E+000	1.42050E-001	9.83892E-004	5	..........a	-327.66
	130	26.2	1.52006E-001	4.36162E-008	0.00000E+000	1.52050E-001	1.01459E-003	5	..........a	-327.66
	131	26.4	1.62100E-001	4.52099E-008	0.00000E+000	1.62050E-001	1.01349E-003	5	..........a	-327.66
	132	26.6	1.72166E-001	4.64802E-008	0.00000E+000	1.72050E-001	1.00399E-003	5	..........a	-327.66
	133	26.8	1.82073E-001	4.72167E-008	0.00000E+000	1.82050E-001	1.01259E-003	5	..........a	-327.66
	134	27	1.92119E-001	4.77107E-008	0.00000E+000	1.92050E-001	1.00509E-003	5	..........a	-327.66
	135	27.2	2.02051E-001	4.84619E-008	0.00000E+000	2.02050E-001	1.02119E-003	5	..........a	-327.66
	136	27.4	2.12091E-001	4.94772E-008	0.00000E+000	2.12050E-001	9.95692E-004	5	..........a	-327.66
	137	27.6	2.22017E-001	5.07272E-008	0.00000E+000	2.22050E-001	9.91492E-004	5	..........a	-327.66
	138	27.8	2.32014E-001	5.21408E-008	0.00000E+000	2.32050E-001	9.92492E-004	5	..........a	-327.66
	139	28	2.42040E-001	5.37228E-008	0.00000E+000	2.42050E-001	9.94992E-004	5	..........a	-327.66
	140	28.2	2.52123E-001	5.54216E-008	0.00000E+000	2.52050E-001	9.94492E-004	5	..........a	-327.66
	141	28.4	2.62056E-001	5.72719E-008	0.00000E+000	2.62050E-001	1.03349E-003	5	..........a	-327.66
	142	28.6	2.71971E-001	5.91983E-008	0.00000E+000	2.72050E-001	1.01139E-003	5	..........a	-327.66
	143	28.8	2.81986E-001	6.12454E-008	0.00000E+000	2.82050E-001	1.00629E-003	5	..........a	-327.66
	144	29	2.92088E-001	6.34131E-008	0.00000E+000	2.92050E-001	1.00969E-003	5	..........a	-327.66
	145	29.2	3.02035E-001	6.56496E-008	0.00000E+000	3.02050E-001	9.99292E-004	5	..........a	-327.66
	146	29.4	3.12031E-001	6.80268E-008	0.00000E+000	3.12050E-001	1.01449E-003	5	..........a	-327.66
	147	29.6	3.22074E-001	7.04911E-008	0.00000E+000	3.22050E-001	1.00319E-003	5	..........a	-327.66
	148	29.8	3.32099E-001	7.30962E-008	0.00000E+000	3.32050E-001	9.97692E-004	5	..........a	-327.66
	149	30	3.42093E-001	7.57919E-008	0.00000E+000	3.42050E-001	9.99392E-004	5	..........a	-327.66
	150	30.2	3.52044E-001	7.86505E-008	0.00000E+000	3.52050E-001	1.01039E-003	5	..........a	-327.66
	151	30.4	3.62018E-001	8.15544E-008	0.00000E+000	3.62050E-001	9.91392E-004	5	..........a	-327.66
	152	30.6	3.72125E-001	8.46130E-008	0.00000E+000	3.72050E-001	1.00829E-003	5	..........a	-327.66
	153	30.8	3.82009E-001	8.76980E-008	0.00000E+000	3.82050E-001	1.02309E-003	5	..........a	-327.66
	154	31	3.92021E-001	9.08702E-008	0.00000E+000	3.92050E-001	1.00869E-003	5	..........a	-327.66
	155	31.2	4.01999E-001	9.40688E-008	0.00000E+000	4.02050E-001	9.92292E-004	5	..........a	-327.66
	156	31.4	4.12028E-001	9.73429E-008	0.00000E+000	4.12050E-001	9.90892E-004	5	..........a	-327.66
	157	31.6	4.22049E-001	1.00709E-007	0.00000E+000	4.22050E-001	1.00079E-003	5	..........a	-327.66
	158	31.8	4.31939E-001	1.04163E-007	0.00000E+000	4.32050E-001	1.02159E-003	5	..........a	-327.66
	159	32	4.42002E-001	1.07605E-007	0.00000E+000	4.42050E-001	1.00439E-003	5	..........a	-327.66
	160	32.2	4.52076E-001	1.11087E-007	0.00000E+000	4.52050E-001	9.92192E-004	5	..........a	-327.66
	161	32.4	4.62016E-001	1.14621E-007	0.00000E+000	4.62050E-001	9.99592E-004	5	..........a	-327.66
	162	32.6	4.72010E-001	1.18132E-007	0.00000E+000	4.72050E-001	9.91392E-004	5	..........a	-327.66
	163	32.8	4.81974E-001	1.21664E-007	0.00000E+000	4.82050E-001	1.00519E-003	5	..........a	-327.66
	164	33	4.91987E-001	1.25192E-007	0.00000E+000	4.92050E-001	1.01439E-003	5	..........a	-327.66
	165	33.2	5.02046E-001	1.28678E-007	0.00000E+000	5.02050E-001	1.00279E-003	5	..........a	-327.66
	166	33.4	5.11930E-001	1.32143E-007	0.00000E+000	5.12050E-001	1.01489E-003	5	..........a	-327.66
	167	33.6	5.21976E-001	1.35542E-007	0.00000E+000	5.22050E-001	1.01269E-003	5	..........a	-327.66
	168	33.8	5.32019E-001	1.38933E-007	0.00000E+000	5.32050E-001	9.95892E-004	5	..........a	-327.66
	169	34	5.41991E-001	1.42186E-007	0.00000E+000	5.42050E-001	1.01559E-003	5	..........a	-327.66
	170	34.2	5.51964E-001	1.45439E-007	0.00000E+000	5.52050E-001	1.01159E-003	5	..........a	-327.66
	171	34.4	5.61979E-001	1.48602E-007	0.00000E+000	5.62050E-001	1.02179E-003	5	..........a	-327.66
	172	34.6	5.71979E-001	1.51691E-007	0.00000E+000	5.72050E-001	1.01099E-003	5	..........a	-327.66
	173	34.8	5.81986E-001	1.54737E-007	0.00000E+000	5.82050E-001	1.00859E-003	5	..........a	-327.66
	174	35	5.91938E-001	1.57740E-007	0.00000E+000	5.92050E-001	9.81692E-004	5	..........a	-327.66
	175	35.2	6.02008E-001	1.60679E-007	0.00000E+000	6.02050E-001	1.00929E-003	5	..........a	-327.66
	176	35.4	6.11963E-001	1.63609E-007	0.00000E+000	6.12050E-001	9.86992E-004	5	..........a	-327.66
	177	35.6	6.21978E-001	1.66571E-007	0.00000E+000	6.22050E-001	1.00259E-003	5	..........a	-327.66
	178	35.8	6.31902E-001	1.69445E-007	0.00000E+000	6.32050E-001	1.01439E-003	5	..........a	-327.66
	179	36	6.41892E-001	1.72333E-007	0.00000E+000	6.42050E-001	1.01109E-003	5	..........a	-327.66
	180	36.2	6.51933E-001	1.75220E-007	0.00000E+000	6.52050E-001	1.00209E-003	5	..........a	-327.66
	181	36.4	6.61963E-001	1.78165E-007	0.00000E+000	6.62050E-001	1.00929E-003	5	..........a	-327.66
	182	36.6	6.71893E-001	1.81090E-007	0.00000E+000	6.72050E-001	9.95592E-004	5	..........a	-327.66
	183	36.8	6.81928E-001	1.84133E-007	0.00000E+000	6.82050E-001	9.94192E-004	5	..........a	-327.66
	184	37	6.91880E-001	1.87241E-007	0.00000E+000	6.92050E-001	1.00129E-003	5	..........a	-327.66
	185	37.2	7.01969E-001	1.90419E-007	0.00000E+000	7.02050E-001	1.00949E-003	5	..........a	-327.66
	186	37.4	7.11880E-001	1.93743E-007	0.00000E+000	7.12050E-001	9.90492E-004	5	..........a	-327.66
	187	37.6	7.21896E-001	1.97182E-007	0.00000E+000	7.22050E-001	1.02309E-003	5	..........a	-327.66
	188	37.8	7.31819E-001	2.00834E-007	0.00000E+000	7.32050E-001	9.98292E-004	5	..........a	-327.66
	189	38	7.41968E-001	2.04622E-007	0.00000E+000	7.42050E-001	1.00669E-003	5	..........a	-327.66
	190	38.2	7.51901E-001	2.08707E-007	0.00000E+000	7.52050E-001	9.96592E-004	5	..........a	-327.66
	191	38.4	7.61905E-001	2.13037E-007	0.00000E+000	7.62050E-001	9.91792E-004	5	..........a	-327.66
	192	38.6	7.71892E-001	2.17645E-007	0.00000E+000	7.72050E-001	1.00439E-003	5	..........a	-327.66
	193	38.8	7.81990E-001	2.22511E-007	0.00000E+000	7.82050E-001	1.01039E-003	5	..........a	-327.66
	194	39	7.91875E-001	2.27713E-007	0.00000E+000	7.92050E-001	1.01539E-003	5	..........a	-327.66
	195	39.2	8.01897E-001	2.33233E-007	0.00000E+000	8.02050E-001	1.00169E-003	5	..........a	-327.66
CURVE2	TABLE
	Pt	T	Vf	Im	Vu	Sig	Ach	IERange	Over	Temp
	#	s	V vs. Ref.	A	V	V	V	#	bits	deg C
	196	39.4	7.89950E-001	1.86382E-007	0.00000E+000	7.90000E-001	9.97192E-004	5	..........a	-327.66
	197	39.6	7.79884E-001	1.59777E-007	0.00000E+000	7.80000E-001	9.90992E-004	5	..........a	-327.66
	198	39.8	7.69899E-001	1.40153E-007	0.00000E+000	7.70000E-001	1.00819E-003	5	..........a	-327.66
	199	40	7.59912E-001	1.24898E-007	0.00000E+000	7.60000E-001	1.01249E-003	5	..........a	-327.66
	200	40.2	7.49978E-001	1.12629E-007	0.00000E+000	7.50000E-001	1.00459E-003	5	..........a	-327.66
	201	40.4	7.39888E-001	1.02526E-007	0.00000E+000	7.40000E-001	9.84292E-004	5	..........a	-327.66
	202	40.6	7.29936E-001	9.40332E-008	0.00000E+000	7.30000E-001	1.02449E-003	5	..........a	-327.66
	203	40.8	7.19909E-001	8.67025E-008	0.00000E+000	7.20000E-001	1.00679E-003	5	..........a	-327.66
	204	41	7.09961E-001	8.03220E-008	0.00000E+000	7.10000E-001	1.01989E-003	5	..........a	-327.66
	205	41.2	6.99916E-001	7.47227E-008	0.00000E+000	7.00000E-001	9.87892E-004	5	..........a	-327.66
	206	41.4	6.89906E-001	6.96693E-008	0.00000E+000	6.90000E-001	9.92792E-004	5	..........a	-327.66
	207	41.6	6.79930E-001	6.51101E-008	0.00000E+000	6.80000E-001	9.96692E-004	5	..........a	-327.66
	208	41.8	6.69978E-001	6.09091E-008	0.00000E+000	6.70000E-001	1.00599E-003	5	..........a	-327.66
	209	42	6.59940E-001	5.70460E-008	0.00000E+000	6.60000E-001	9.97992E-004	5	..........a	-327.66
	210	42.2	6.49904E-001	5.34618E-008	0.00000E+000	6.50000E-001	1.00279E-003	5	..........a	-327.66
	211	42.4	6.39906E-001	5.01086E-008	0.00000E+000	6.40000E-001	1.02209E-003	5	..........a	-327.66
	212	42.6	6.30045E-001	4.69580E-008	0.00000E+000	6.30000E-001	9.81192E-004	5	..........a	-327.66
	213	42.8	6.19921E-001	4.39522E-008	0.00000E+000	6.20000E-001	9.89592E-004	5	..........a	-327.66
	214	43	6.09950E-001	4.10940E-008	0.00000E+000	6.10000E-001	1.00929E-003	5	..........a	-327.66
	215	43.2	5.99965E-001	3.83676E-008	0.00000E+000	6.00000E-001	1.00669E-003	5	..........a	-327.66
	216	43.4	5.90027E-001	3.58070E-008	0.00000E+000	5.90000E-001	9.90292E-004	5	..........a	-327.66
	217	43.6	5.80024E-001	3.33228E-008	0.00000E+000	5.80000E-001	1.00549E-003	5	..........a	-327.66
	218	43.8	5.69971E-001	3.09790E-008	0.00000E+000	5.70000E-001	1.00719E-003	5	..........a	-327.66
	219	44	5.59923E-001	2.87274E-008	0.00000E+000	5.60000E-001	1.01419E-003	5	..........a	-327.66
	220	44.2	5.50039E-001	2.65152E-008	0.00000E+000	5.50000E-001	1.00369E-003	5	..........a	-327.66
	221	44.4	5.40003E-001	2.44356E-008	0.00000E+000	5.40000E-001	9.90292E-004	5	..........a	-327.66
	222	44.6	5.29947E-001	2.23318E-008	0.00000E+000	5.30000E-001	1.00569E-003	5	..........a	-327.66
	223	44.8	5.19976E-001	2.02748E-008	0.00000E+000	5.20000E-001	1.00149E-003	5	..........a	-327.66
	224	45	5.09961E-001	1.83252E-008	0.00000E+000	5.10000E-001	1.00799E-003	5	..........a	-327.66
	225	45.2	5.00047E-001	1.64495E-008	0.00000E+000	5.00000E-001	9.92192E-004	5	..........a	-327.66
	226	45.4	4.89945E-001	1.45824E-008	0.00000E+000	4.90000E-001	9.91592E-004	5	..........a	-327.66
	227	45.6	4.79902E-001	1.27901E-008	0.00000E+000	4.80000E-001	1.02469E-003	5	..........a	-327.66
	228	45.8	4.70028E-001	1.10172E-008	0.00000E+000	4.70000E-001	1.01549E-003	5	..........a	-327.66
	229	46	4.60015E-001	9.27724E-009	0.00000E+000	4.60000E-001	1.00679E-003	5	..........a	-327.66
	230	46.2	4.49878E-001	7.48718E-009	0.00000E+000	4.50000E-001	9.82592E-004	5	..........a	-327.66
	231	46.4	4.39952E-001	5.68969E-009	0.00000E+000	4.40000E-001	9.92992E-004	5	..........a	-327.66
	232	46.6	4.29976E-001	3.95364E-009	0.00000E+000	4.30000E-001	1.00479E-003	5	..........a	-327.66
	233	46.8	4.20017E-001	2.09860E-009	0.00000E+000	4.20000E-001	9.99692E-004	5	..........a	-327.66
	234	47	4.09970E-001	2.62646E-010	0.00000E+000	4.10000E-001	1.00079E-003	5	..........a	-327.66
	235	47.2	3.99974E-001	-1.61837E-009	0.00000E+000	4.00000E-001	9.87592E-004	5	..........a	-327.66
	236	47.4	3.90085E-001	-3.48572E-009	0.00000E+000	3.90000E-001	1.01579E-003	5	..........a	-327.66
	237	47.6	3.80065E-001	-5.38565E-009	0.00000E+000	3.80000E-001	9.97392E-004	5	..........a	-327.66
	238	47.8	3.70053E-001	-7.30181E-009	0.00000E+000	3.70000E-001	1.01189E-003	5	..........a	-327.66
	239	48	3.60049E-001	-9.26663E-009	0.00000E+000	3.60000E-001	9.83292E-004	5	..........a	-327.66
	240	48.2	3.50045E-001	-1.13187E-008	0.00000E+000	3.50000E-001	9.98092E-004	5	..........a	-327.66
	241	48.4	3.40102E-001	-1.34045E-008	0.00000E+000	3.40000E-001	1.00449E-003	5	..........a	-327.66
	242	48.6	3.30044E-001	-1.55592E-008	0.00000E+000	3.30000E-001	9.93792E-004	5	..........a	-327.66
	243	48.8	3.20043E-001	-1.78013E-008	0.00000E+000	3.20000E-001	1.00789E-003	5	..........a	-327.66
	244	49	3.10065E-001	-2.01170E-008	0.00000E+000	3.10000E-001	1.02319E-003	5	..........a	-327.66
	245	49.2	3.00083E-001	-2.25421E-008	0.00000E+000	3.00000E-001	9.96592E-004	5	..........a	-327.66
	246	49.4	2.90055E-001	-2.50317E-008	0.00000E+000	2.90000E-001	1.00419E-003	5	..........a	-327.66
	247	49.6	2.79990E-001	-2.76684E-008	0.00000E+000	2.80000E-001	9.95892E-004	5	..........a	-327.66
	248	49.8	2.70101E-001	-3.04124E-008	0.00000E+000	2.70000E-001	1.01459E-003	5	..........a	-327.66
	249	50	2.60075E-001	-3.32515E-008	0.00000E+000	2.60000E-001	9.84192E-004	5	..........a	-327.66
	250	50.2	2.50031E-001	-3.61935E-008	0.00000E+000	2.50000E-001	1.01199E-003	5	..........a	-327.66
	251	50.4	2.40068E-001	-3.91615E-008	0.00000E+000	2.40000E-001	1.02529E-003	5	..........a	-327.66
	252	50.6	2.30010E-001	-4.22000E-008	0.00000E+000	2.30000E-001	1.02049E-003	5	..........a	-327.66
	253	50.8	2.20091E-001	-4.50555E-008	0.00000E+000	2.20000E-001	9.83492E-004	5	..........a	-327.66
	254	51	2.10035E-001	-4.77597E-008	0.00000E+000	2.10000E-001	1.00929E-003	5	..........a	-327.66
	255	51.2	2.00081E-001	-5.01713E-008	0.00000E+000	2.00000E-001	9.97392E-004	5	..........a	-327.66
	256	51.4	1.90129E-001	-5.22260E-008	0.00000E+000	1.90000E-001	1.00559E-003	5	..........a	-327.66
	257	51.6	1.80134E-001	-5.36862E-008	0.00000E+000	1.80000E-001	1.00859E-003	5	..........a	-327.66
	258	51.8	1.70106E-001	-5.45922E-008	0.00000E+000	1.70000E-001	1.00119E-003	5	..........a	-327.66
	259	52	1.60092E-001	-5.48281E-008	0.00000E+000	1.60000E-001	9.98392E-004	5	..........a	-327.66
	260	52.2	1.50091E-001	-5.44792E-008	0.00000E+000	1.50000E-001	1.01149E-003	5	..........a	-327.66
	261	52.4	1.40139E-001	-5.35133E-008	0.00000E+000	1.40000E-001	9.87492E-004	5	..........a	-327.66
	262	52.6	1.30080E-001	-5.20843E-008	0.00000E+000	1.30000E-001	1.00489E-003	5	..........a	-327.66
	263	52.8	1.20087E-001	-5.03174E-008	0.00000E+000	1.20000E-001	9.99292E-004	5	..........a	-327.66
	264	53	1.10121E-001	-4.84102E-008	0.00000E+000	1.10000E-001	1.00189E-003	5	..........a	-327.66
	265	53.2	1.00133E-001	-4.64530E-008	0.00000E+000	1.00000E-001	1.00949E-003	5	..........a	-327.66
	266	53.4	9.01221E-002	-4.46174E-008	0.00000E+000	9.00000E-002	9.95592E-004	5	..........a	-327.66
	267	53.6	8.00537E-002	-4.29505E-008	0.00000E+000	8.00000E-002	1.02329E-003	5	..........a	-327.66
	268	53.8	7.00392E-002	-4.16230E-008	0.00000E+000	7.00000E-002	1.01819E-003	5	..........a	-327.66
	269	54	6.01330E-002	-4.05078E-008	0.00000E+000	6.00000E-002	9.91892E-004	5	..........a	-327.66
	270	54.2	5.00929E-002	-3.97323E-008	0.00000E+000	5.00000E-002	1.00969E-003	5	..........a	-327.66
	271	54.4	4.00149E-002	-3.92515E-008	0.00000E+000	4.00000E-002	1.01449E-003	5	..........a	-327.66
	272	54.6	3.00596E-002	-3.89208E-008	0.00000E+000	3.00000E-002	1.01219E-003	5	..........a	-327.66
	273	54.8	2.01649E-002	-3.87810E-008	0.00000E+000	2.00000E-002	1.01409E-003	5	..........a	-327.66
	274	55	1.01171E-002	-3.88786E-008	0.00000E+000	1.00000E-002	9.90392E-004	5	..........a	-327.66
	275	55.2	2.94917E-005	-3.91022E-008	0.00000E+000	7.45058E-009	1.00019E-003	5	..........a	-327.66
	276	55.4	-9.85131E-003	-3.94511E-008	0.00000E+000	-1.00000E-002	9.94792E-004	5	..........a	-327.66
	277	55.6	-1.98746E-002	-3.96983E-008	0.00000E+000	-2.00000E-002	9.86692E-004	5	..........a	-327.66
	278	55.8	-2.99022E-002	-4.00069E-008	0.00000E+000	-3.00000E-002	9.96292E-004	5	..........a	-327.66
	279	56	-3.98874E-002	-4.04170E-008	0.00000E+000	-4.00000E-002	9.79992E-004	5	..........a	-327.66
	280	56.2	-4.98902E-002	-4.09888E-008	0.00000E+000	-5.00000E-002	1.01539E-003	5	..........a	-327.66
	281	56.4	-5.98745E-002	-4.16452E-008	0.00000E+000	-6.00000E-002	9.99592E-004	5	..........a	-327.66
	282	56.6	-6.98895E-002	-4.21358E-008	0.00000E+000	-7.00000E-002	1.01589E-003	5	..........a	-327.66
	283	56.8	-7.99545E-002	-4.29189E-008	0.00000E+000	-8.00000E-002	1.00979E-003	5	..........a	-327.66
	284	57	-8.98863E-002	-4.34600E-008	0.00000E+000	-9.00000E-002	1.01289E-003	5	..........a	-327.66
	285	57.2	-9.98747E-002	-4.42659E-008	0.00000E+000	-1.00000E-001	9.71592E-004	5	..........a	-327.66
	286	57.4	-1.09923E-001	-4.51061E-008	0.00000E+000	-1.10000E-001	9.94892E-004	5	..........a	-327.66
	287	57.6	-1.19889E-001	-4.58680E-008	0.00000E+000	-1.20000E-001	1.00189E-003	5	..........a	-327.66
	288	57.8	-1.29927E-001	-4.68346E-008	0.00000E+000	-1.30000E-001	9.96592E-004	5	..........a	-327.66
	289	58	-1.39827E-001	-4.78715E-008	0.00000E+000	-1.40000E-001	1.00419E-003	5	..........a	-327.66
	290	58.2	-1.49935E-001	-4.85966E-008	0.00000E+000	-1.50000E-001	9.97192E-004	5	..........a	-327.66
	291	58.4	-1.59915E-001	-4.95584E-008	0.00000E+000	-1.60000E-001	1.01539E-003	5	..........a	-327.66
	292	58.6	-1.69872E-001	-5.05284E-008	0.00000E+000	-1.70000E-001	1.00379E-003	5	..........a	-327.66
	293	58.8	-1.79881E-001	-5.18713E-008	0.00000E+000	-1.80000E-001	9.79092E-004	5	..........a	-327.66
	294	59	-1.89909E-001	-5.26844E-008	0.00000E+000	-1.90000E-001	1.00219E-003	5	..........a	-327.66
	295	59.2	-1.99942E-001	-5.37308E-008	0.00000E+000	-2.00000E-001	9.96792E-004	5	..........a	-327.66
	296	59.4	-2.09869E-001	-5.50197E-008	0.00000E+000	-2.10000E-001	1.00939E-003	5	..........a	-327.66
	297	59.6	-2.19851E-001	-5.61538E-008	0.00000E+000	-2.20000E-001	1.00109E-003	5	..........a	-327.66
	298	59.8	-2.29902E-001	-5.74547E-008	0.00000E+000	-2.30000E-001	9.89092E-004	5	..........a	-327.66
	299	60	-2.39921E-001	-5.89111E-008	0.00000E+000	-2.40000E-001	1.00089E-003	5	..........a	-327.66
	300	60.2	-2.49854E-001	-6.02435E-008	0.00000E+000	-2.50000E-001	9.91092E-004	5	..........a	-327.66
	301	60.4	-2.59803E-001	-6.15338E-008	0.00000E+000	-2.60000E-001	9.99192E-004	5	..........a	-327.66
	302	60.6	-2.69856E-001	-6.31013E-008	0.00000E+000	-2.70000E-001	1.00109E-003	5	..........a	-327.66
	303	60.8	-2.79890E-001	-6.43090E-008	0.00000E+000	-2.80000E-001	9.96992E-004	5	..........a	-327.66
	304	61	-2.89874E-001	-6.58575E-008	0.00000E+000	-2.90000E-001	1.01589E-003	5	..........a	-327.66
	305	61.2	-2.99836E-001	-6.71638E-008	0.00000E+000	-3.00000E-001	9.90392E-004	5	..........a	-327.66
	306	61.4	-3.09907E-001	-6.87078E-008	0.00000E+000	-3.10000E-001	1.01209E-003	5	..........a	-327.66
	307	61.6	-3.19850E-001	-6.99849E-008	0.00000E+000	-3.20000E-001	1.01489E-003	5	..........a	-327.66
	308	61.8	-3.29881E-001	-7.15017E-008	0.00000E+000	-3.30000E-001	9.96792E-004	5	..........a	-327.66
	309	62	-3.39794E-001	-7.28501E-008	0.00000E+000	-3.40000E-001	9.87392E-004	5	..........a	-327.66
	310	62.2	-3.49873E-001	-7.41555E-008	0.00000E+000	-3.50000E-001	1.00389E-003	5	..........a	-327.66
	311	62.4	-3.59880E-001	-7.55328E-008	0.00000E+000	-3.60000E-001	9.90492E-004	5	..........a	-327.66
	312	62.6	-3.69861E-001	-7.69851E-008	0.00000E+000	-3.70000E-001	1.00359E-003	5	..........a	-327.66
	313	62.8	-3.79805E-001	-7.82800E-008	0.00000E+000	-3.80000E-001	9.91192E-004	5	..........a	-327.66
	314	63	-3.89939E-001	-7.95859E-008	0.00000E+000	-3.90000E-001	1.02409E-003	5	..........a	-327.66
	315	63.2	-3.99839E-001	-8.08697E-008	0.00000E+000	-4.00000E-001	1.00859E-003	5	..........a	-327.66
	316	63.4	-4.09859E-001	-8.21459E-008	0.00000E+000	-4.10000E-001	1.00219E-003	5	..........a	-327.66
	317	63.6	-4.19749E-001	-8.35395E-008	0.00000E+000	-4.20000E-001	9.87992E-004	5	..........a	-327.66
	318	63.8	-4.29842E-001	-8.47124E-008	0.00000E+000	-4.30000E-001	1.00879E-003	5	..........a	-327.66
	319	64	-4.39803E-001	-8.59057E-008	0.00000E+000	-4.40000E-001	1.00869E-003	5	..........a	-327.66
	320	64.2	-4.49840E-001	-8.72199E-008	0.00000E+000	-4.50000E-001	1.02249E-003	5	..........a	-327.66
	321	64.4	-4.59792E-001	-8.85246E-008	0.00000E+000	-4.60000E-001	9.84592E-004	5	..........a	-327.66
	322	64.6	-4.69830E-001	-8.97809E-008	0.00000E+000	-4.70000E-001	9.85292E-004	5	..........a	-327.66
	323	64.8	-4.79821E-001	-9.11519E-008	0.00000E+000	-4.80000E-001	1.01059E-003	5	..........a	-327.66
	324	65	-4.89835E-001	-9.23910E-008	0.00000E+000	-4.90000E-001	1.00659E-003	5	..........a	-327.66
	325	65.2	-4.99810E-001	-9.36736E-008	0.00000E+000	-5.00000E-001	9.99792E-004	5	..........a	-327.66
	326	65.4	-5.09845E-001	-9.51153E-008	0.00000E+000	-5.10000E-001	9.87892E-004	5	..........a	-327.66
	327	65.6	-5.19846E-001	-9.64918E-008	0.00000E+000	-5.20000E-001	1.00699E-003	5	..........a	-327.66
	328	65.8	-5.29830E-001	-9.77700E-008	0.00000E+000	-5.30000E-001	9.96592E-004	5	..........a	-327.66
	329	66	-5.39761E-001	-9.91850E-008	0.00000E+000	-5.40000E-001	1.00969E-003	5	..........a	-327.66
	330	66.2	-5.49840E-001	-1.00595E-007	0.00000E+000	-5.50000E-001	1.00539E-003	5	..........a	-327.66
	331	66.4	-5.59857E-001	-1.02039E-007	0.00000E+000	-5.60000E-001	1.01389E-003	5	..........a	-327.66
	332	66.6	-5.69858E-001	-1.03592E-007	0.00000E+000	-5.70000E-001	1.00769E-003	5	..........a	-327.66
	333	66.8	-5.79793E-001	-1.04981E-007	0.00000E+000	-5.80000E-001	9.94092E-004	5	..........a	-327.66
	334	67	-5.89842E-001	-1.06467E-007	0.00000E+000	-5.90000E-001	1.00749E-003	5	..........a	-327.66
	335	67.2	-5.99826E-001	-1.08072E-007	0.00000E+000	-6.00000E-001	9.95092E-004	5	..........a	-327.66
	336	67.4	-5.89864E-001	-9.36889E-008	0.00000E+000	-5.90000E-001	9.95892E-004	5	..........a	-327.66
	337	67.6	-5.79803E-001	-8.41490E-008	0.00000E+000	-5.80000E-001	9.89792E-004	5	..........a	-327.66
	338	67.8	-5.69861E-001	-7.68893E-008	0.00000E+000	-5.70000E-001	1.01719E-003	5	..........a	-327.66
	339	68	-5.59847E-001	-7.08865E-008	0.00000E+000	-5.60000E-001	9.90292E-004	5	..........a	-327.66
	340	68.2	-5.49875E-001	-6.58717E-008	0.00000E+000	-5.50000E-001	1.01299E-003	5	..........a	-327.66
	341	68.4	-5.39794E-001	-6.13170E-008	0.00000E+000	-5.40000E-001	1.01609E-003	5	..........a	-327.66
	342	68.6	-5.29840E-001	-5.73341E-008	0.00000E+000	-5.30000E-001	1.00989E-003	5	..........a	-327.66
	343	68.8	-5.19966E-001	-5.37082E-008	0.00000E+000	-5.20000E-001	1.01079E-003	5	..........a	-327.66
	344	69	-5.09853E-001	-5.02811E-008	0.00000E+000	-5.10000E-001	1.00179E-003	5	..........a	-327.66
	345	69.2	-4.99834E-001	-4.71831E-008	0.00000E+000	-5.00000E-001	1.01289E-003	5	..........a	-327.66
	346	69.4	-4.89832E-001	-4.44090E-008	0.00000E+000	-4.90000E-001	1.01889E-003	5	..........a	-327.66
	347	69.6	-4.79846E-001	-4.15533E-008	0.00000E+000	-4.80000E-001	1.00499E-003	5	..........a	-327.66
	348	69.8	-4.69836E-001	-3.89068E-008	0.00000E+000	-4.70000E-001	1.00929E-003	5	..........a	-327.66
	349	70	-4.59799E-001	-3.64054E-008	0.00000E+000	-4.60000E-001	1.01239E-003	5	..........a	-327.66
	350	70.2	-4.49839E-001	-3.40766E-008	0.00000E+000	-4.50000E-001	9.92392E-004	5	..........a	-327.66
	351	70.4	-4.39879E-001	-3.18436E-008	0.00000E+000	-4.40000E-001	9.99892E-004	5	..........a	-327.66
	352	70.6	-4.29867E-001	-2.96377E-008	0.00000E+000	-4.30000E-001	9.89592E-004	5	..........a	-327.66
[...]
	920	184.2	-3.49903E-001	-1.68717E-008	0.00000E+000	-3.50000E-001	1.00639E-003	5	..........a	-327.66
	921	184.4	-3.39870E-001	-1.52296E-008	0.00000E+000	-3.40000E-001	9.96492E-004	5	..........a	-327.66
	922	184.6	-3.29875E-001	-1.35678E-008	0.00000E+000	-3.30000E-001	9.99292E-004	5	..........a	-327.66
	923	184.8	-3.19890E-001	-1.19856E-008	0.00000E+000	-3.20000E-001	1.01169E-003	5	..........a	-327.66
	924	185	-3.09928E-001	-1.04569E-008	0.00000E+000	-3.10000E-001	9.84892E-004	5	..........a	-327.66
	925	185.2	-2.99865E-001	-8.95610E-009	0.00000E+000	-3.00000E-001	9.96892E-004	5	..........a	-327.66
	926	185.4	-2.89982E-001	-7.45365E-009	0.00000E+000	-2.90000E-001	1.00789E-003	5	..........a	-327.66
	927	185.6	-2.79905E-001	-6.03859E-009	0.00000E+000	-2.80000E-001	1.00219E-003	5	..........a	-327.66
	928	185.8	-2.69865E-001	-4.60421E-009	0.00000E+000	-2.70000E-001	9.96792E-004	5	..........a	-327.66
	929	186	-2.59844E-001	-3.22837E-009	0.00000E+000	-2.60000E-001	1.00019E-003	5	..........a	-327.66
	930	186.2	-2.49944E-001	-1.87557E-009	0.00000E+000	-2.50000E-001	1.00329E-003	5	..........a	-327.66
	931	186.4	-2.39954E-001	-5.38304E-010	0.00000E+000	-2.40000E-001	9.94792E-004	5	..........a	-327.66
	932	186.6	-2.29958E-001	7.66735E-010	0.00000E+000	-2.30000E-001	1.02859E-003	5	..........a	-327.66
	933	186.8	-2.19884E-001	2.06401E-009	0.00000E+000	-2.20000E-001	1.00399E-003	5	..........a	-327.66
	934	187	-2.09948E-001	3.31510E-009	0.00000E+000	-2.10000E-001	9.96192E-004	5	..........a	-327.66
	935	187.2	-1.99970E-001	4.58361E-009	0.00000E+000	-2.00000E-001	1.01149E-003	5	..........a	-327.66
	936	187.4	-1.90211E-001	5.77045E-009	0.00000E+000	-1.90000E-001	1.00419E-003	5	..........a	-327.66
	937	187.6	-1.79917E-001	6.99452E-009	0.00000E+000	-1.80000E-001	9.96792E-004	5	..........a	-327.66
	938	187.8	-1.69924E-001	8.16645E-009	0.00000E+000	-1.70000E-001	1.01359E-003	5	..........a	-327.66
	939	188	-1.60015E-001	9.35271E-009	0.00000E+000	-1.60000E-001	1.00169E-003	5	..........a	-327.66
	940	188.2	-1.49983E-001	1.04955E-008	0.00000E+000	-1.50000E-001	1.01469E-003	5	..........a	-327.66
	941	188.4	-1.39884E-001	1.16650E-008	0.00000E+000	-1.40000E-001	9.99792E-004	5	..........a	-327.66
	942	188.6	-1.30031E-001	1.27759E-008	0.00000E+000	-1.30000E-001	9.95092E-004	5	..........a	-327.66
	943	188.8	-1.19971E-001	1.39398E-008	0.00000E+000	-1.20000E-001	1.01899E-003	5	..........a	-327.66
	944	189	-1.09982E-001	1.50376E-008	0.00000E+000	-1.10000E-001	1.00769E-003	5	..........a	-327.66
	945	189.2	-9.99134E-002	1.61628E-008	0.00000E+000	-1.00000E-001	9.97392E-004	5	..........a	-327.66
	946	189.4	-8.99095E-002	1.72779E-008	0.00000E+000	-9.00000E-002	1.00579E-003	5	..........a	-327.66
	947	189.6	-8.00079E-002	1.84023E-008	0.00000E+000	-8.00000E-002	1.01799E-003	5	..........a	-327.66
	948	189.8	-6.99376E-002	1.95246E-008	0.00000E+000	-7.00000E-002	1.02359E-003	5	..........a	-327.66
	949	190	-5.99181E-002	2.06085E-008	0.00000E+000	-6.00000E-002	9.91392E-004	5	..........a	-327.66
	950	190.2	-4.99179E-002	2.17694E-008	0.00000E+000	-5.00000E-002	9.93692E-004	5	..........a	-327.66
	951	190.4	-3.99647E-002	2.28790E-008	0.00000E+000	-4.00000E-002	1.00329E-003	5	..........a	-327.66
	952	190.6	-2.99760E-002	2.39985E-008	0.00000E+000	-3.00000E-002	9.97692E-004	5	..........a	-327.66
	953	190.8	-1.99280E-002	2.51276E-008	0.00000E+000	-2.00000E-002	9.85992E-004	5	..........a	-327.66
	954	191	-9.91226E-003	2.62224E-008	0.00000E+000	-1.00000E-002	1.00919E-003	5	..........a	-327.66
	955	191.2	9.41669E-007	2.73541E-008	0.00000E+000	7.45058E-009	1.01089E-003	5	..........a	-327.66
	956	191.4	1.00453E-002	2.84520E-008	0.00000E+000	1.00000E-002	9.81292E-004	5	..........a	-327.66
	957	191.6	2.01120E-002	2.95762E-008	0.00000E+000	2.00000E-002	9.92792E-004	5	..........a	-327.66
	958	191.8	3.00179E-002	3.06742E-008	0.00000E+000	3.00000E-002	1.00279E-003	5	..........a	-327.66
	959	192	3.99740E-002	3.17868E-008	0.00000E+000	4.00000E-002	1.00849E-003	5	..........a	-327.66
	960	192.2	5.00178E-002	3.29065E-008	0.00000E+000	5.00000E-002	1.01779E-003	5	..........a	-327.66
	961	192.4	6.00600E-002	3.40487E-008	0.00000E+000	6.00000E-002	9.98692E-004	5	..........a	-327.66
	962	192.6	7.00164E-002	3.51645E-008	0.00000E+000	7.00000E-002	1.02439E-003	5	..........a	-327.66
	963	192.8	8.00196E-002	3.62682E-008	0.00000E+000	8.00000E-002	1.01999E-003	5	..........a	-327.66
	964	193	9.01093E-002	3.73844E-008	0.00000E+000	9.00000E-002	1.01619E-003	5	..........a	-327.66
	965	193.2	1.00050E-001	3.84821E-008	0.00000E+000	1.00000E-001	1.00519E-003	5	..........a	-327.66
	966	193.4	1.10050E-001	3.96847E-008	0.00000E+000	1.10000E-001	1.00559E-003	5	..........a	-327.66
	967	193.6	1.19983E-001	4.11503E-008	0.00000E+000	1.20000E-001	9.86492E-004	5	..........a	-327.66
	968	193.8	1.30014E-001	4.24644E-008	0.00000E+000	1.30000E-001	9.99892E-004	5	..........a	-327.66
	969	194	1.40066E-001	4.33281E-008	0.00000E+000	1.40000E-001	9.81792E-004	5	..........a	-327.66
	970	194.2	1.50010E-001	4.43581E-008	0.00000E+000	1.50000E-001	1.01859E-003	5	..........a	-327.66
	971	194.4	1.60012E-001	4.54602E-008	0.00000E+000	1.60000E-001	1.02299E-003	5	..........a	-327.66
	972	194.6	1.70055E-001	4.65330E-008	0.00000E+000	1.70000E-001	1.01199E-003	5	..........a	-327.66
	973	194.8	1.80057E-001	4.76749E-008	0.00000E+000	1.80000E-001	1.00449E-003	5	..........a	-327.66
	974	195	1.90037E-001	4.88471E-008	0.00000E+000	1.90000E-001	9.91192E-004	5	..........a	-327.66
	975	195.2	1.99997E-001	5.00255E-008	0.00000E+000	2.00000E-001	1.02579E-003	5	..........a	-327.66
	976	195.4	2.09959E-001	5.11601E-008	0.00000E+000	2.10000E-001	1.02199E-003	5	..........a	-327.66
	977	195.6	2.19720E-001	5.23058E-008	0.00000E+000	2.20000E-001	9.91692E-004	5	..........a	-327.66
	978	195.8	2.29965E-001	5.34204E-008	0.00000E+000	2.30000E-001	1.01779E-003	5	..........a	-327.66
	979	196	2.39982E-001	5.45656E-008	0.00000E+000	2.40000E-001	1.00989E-003	5	..........a	-327.66
	980	196.2	2.50002E-001	5.56343E-008	0.00000E+000	2.50000E-001	1.00339E-003	5	..........a	-327.66
	981	196.4	2.60000E-001	5.67424E-008	0.00000E+000	2.60000E-001	1.00439E-003	5	..........a	-327.66
	982	196.6	2.70056E-001	5.78504E-008	0.00000E+000	2.70000E-001	1.00049E-003	5	..........a	-327.66
	983	196.8	2.79926E-001	5.89552E-008	0.00000E+000	2.80000E-001	1.01419E-003	5	..........a	-327.66
	984	197	2.89983E-001	6.01036E-008	0.00000E+000	2.90000E-001	1.01109E-003	5	..........a	-327.66
	985	197.2	3.00010E-001	6.12691E-008	0.00000E+000	3.00000E-001	9.85592E-004	5	..........a	-327.66
	986	197.4	3.10007E-001	6.25454E-008	0.00000E+000	3.10000E-001	1.01429E-003	5	..........a	-327.66
	987	197.6	3.19984E-001	6.37953E-008	0.00000E+000	3.20000E-001	1.00869E-003	5	..........a	-327.66
	988	197.8	3.29969E-001	6.50964E-008	0.00000E+000	3.30000E-001	1.01539E-003	5	..........a	-327.66
	989	198	3.40037E-001	6.64976E-008	0.00000E+000	3.40000E-001	9.94892E-004	5	..........a	-327.66
	990	198.2	3.50008E-001	6.79641E-008	0.00000E+000	3.50000E-001	1.01149E-003	5	..........a	-327.66
	991	198.4	3.59923E-001	6.95209E-008	0.00000E+000	3.60000E-001	1.00769E-003	5	..........a	-327.66
	992	198.6	3.70015E-001	7.11930E-008	0.00000E+000	3.70000E-001	1.00449E-003	5	..........a	-327.66
	993	198.8	3.79986E-001	7.29875E-008	0.00000E+000	3.80000E-001	9.96192E-004	5	..........a	-327.66
	994	199	3.90003E-001	7.48803E-008	0.00000E+000	3.90000E-001	9.92492E-004	5	..........a	-327.66
	995	199.2	3.99983E-001	7.68509E-008	0.00000E+000	4.00000E-001	9.91992E-004	5	..........a	-327.66
	996	199.4	4.09970E-001	7.89284E-008	0.00000E+000	4.10000E-001	1.00379E-003	5	..........a	-327.66
	997	199.6	4.19966E-001	8.11746E-008	0.00000E+000	4.20000E-001	9.99392E-004	5	..........a	-327.66
	998	199.8	4.29967E-001	8.34759E-008	0.00000E+000	4.30000E-001	1.01789E-003	5	..........a	-327.66
	999	200	4.39917E-001	8.58612E-008	0.00000E+000	4.40000E-001	1.00999E-003	5	..........a	-327.66
	1000	200.2	4.49754E-001	8.83364E-008	0.00000E+000	4.50000E-001	9.88592E-004	5	..........a	-327.66
	1001	200.4	4.59949E-001	9.08801E-008	0.00000E+000	4.60000E-001	1.00339E-003	5	..........a	-327.66
	1002	200.6	4.70003E-001	9.35283E-008	0.00000E+000	4.70000E-001	1.00449E-003	5	..........a	-327.66
	1003	200.8	4.79911E-001	9.61996E-008	0.00000E+000	4.80000E-001	1.01749E-003	5	..........a	-327.66
	1004	201	4.89937E-001	9.90042E-008	0.00000E+000	4.90000E-001	9.96292E-004	5	..........a	-327.66
	1005	201.2	4.99975E-001	1.01832E-007	0.00000E+000	5.00000E-001	9.80492E-004	5	..........a	-327.66
	1006	201.4	5.09947E-001	1.04768E-007	0.00000E+000	5.10000E-001	1.00549E-003	5	..........a	-327.66
	1007	201.6	5.19936E-001	1.07678E-007	0.00000E+000	5.20000E-001	1.00749E-003	5	..........a	-327.66
	1008	201.8	5.29897E-001	1.10616E-007	0.00000E+000	5.30000E-001	9.97592E-004	5	..........a	-327.66
	1009	202	5.39939E-001	1.13500E-007	0.00000E+000	5.40000E-001	1.01149E-003	5	..........a	-327.66
	1010	202.2	5.49984E-001	1.16307E-007	0.00000E+000	5.50000E-001	1.01379E-003	5	..........a	-327.66
	1011	202.4	5.59919E-001	1.19011E-007	0.00000E+000	5.60000E-001	1.00789E-003	5	..........a	-327.66
	1012	202.6	5.69923E-001	1.21625E-007	0.00000E+000	5.70000E-001	1.01659E-003	5	..........a	-327.66
	1013	202.8	5.79940E-001	1.24205E-007	0.00000E+000	5.80000E-001	9.78692E-004	5	..........a	-327.66
	1014	203	5.89979E-001	1.26662E-007	0.00000E+000	5.90000E-001	1.00499E-003	5	..........a	-327.66
	1015	203.2	5.99917E-001	1.29055E-007	0.00000E+000	6.00000E-001	9.91892E-004	5	..........a	-327.66
	1016	203.4	6.09908E-001	1.31414E-007	0.00000E+000	6.10000E-001	1.00759E-003	5	..........a	-327.66
	1017	203.6	6.19890E-001	1.33793E-007	0.00000E+000	6.20000E-001	1.01949E-003	5	..........a	-327.66
	1018	203.8	6.29969E-001	1.36182E-007	0.00000E+000	6.30000E-001	1.00079E-003	5	..........a	-327.66
	1019	204	6.39864E-001	1.38588E-007	0.00000E+000	6.40000E-001	1.00599E-003	5	..........a	-327.66
	1020	204.2	6.49887E-001	1.41111E-007	0.00000E+000	6.50000E-001	1.01519E-003	5	..........a	-327.66
	1021	204.4	6.59894E-001	1.43656E-007	0.00000E+000	6.60000E-001	1.00409E-003	5	..........a	-327.66
	1022	204.6	6.69939E-001	1.46317E-007	0.00000E+000	6.70000E-001	9.97592E-004	5	..........a	-327.66
	1023	204.8	6.79876E-001	1.49029E-007	0.00000E+000	6.80000E-001	9.85392E-004	5	..........a	-327.66
	1024	205	6.89866E-001	1.51894E-007	0.00000E+000	6.90000E-001	1.00989E-003	5	..........a	-327.66
	1025	205.2	6.99862E-001	1.54891E-007	0.00000E+000	7.00000E-001	1.00999E-003	5	..........a	-327.66
	1026	205.4	7.09967E-001	1.58054E-007	0.00000E+000	7.10000E-001	1.00759E-003	5	..........a	-327.66
	1027	205.6	7.19856E-001	1.61446E-007	0.00000E+000	7.20000E-001	1.01369E-003	5	..........a	-327.66
	1028	205.8	7.29868E-001	1.65069E-007	0.00000E+000	7.30000E-001	1.02059E-003	5	..........a	-327.66
	1029	206	7.39860E-001	1.68929E-007	0.00000E+000	7.40000E-001	1.00169E-003	5	..........a	-327.66
	1030	206.2	7.49945E-001	1.73126E-007	0.00000E+000	7.50000E-001	1.01409E-003	5	..........a	-327.66
	1031	206.4	7.59836E-001	1.77685E-007	0.00000E+000	7.60000E-001	9.80692E-004	5	..........a	-327.66
	1032	206.6	7.69861E-001	1.82538E-007	0.00000E+000	7.70000E-001	1.01969E-003	5	..........a	-327.66
	1033	206.8	7.79855E-001	1.87625E-007	0.00000E+000	7.80000E-001	9.92492E-004	5	..........a	-327.66
	1034	207	7.89948E-001	1.93193E-007	0.00000E+000	7.90000E-001	1.00079E-003	5	..........a	-327.66
	1035	207.2	7.99842E-001	1.99167E-007	0.00000E+000	8.00000E-001	1.00349E-003	5	..........a	-327.66
CURVE5	TABLE
	Pt	T	Vf	Im	Vu	Sig	Ach	IERange	Over	Temp
	#	s	V vs. Ref.	A	V	V	V	#	bits	deg C
	1036	207.4	7.89958E-001	1.62283E-007	0.00000E+000	7.90000E-001	1.03179E-003	5	..........a	-327.66
	1037	207.6	7.79875E-001	1.38261E-007	0.00000E+000	7.80000E-001	9.97492E-004	5	..........a	-327.66
	1038	207.8	7.69884E-001	1.20871E-007	0.00000E+000	7.70000E-001	1.01249E-003	5	..........a	-327.66
	1039	208	7.59888E-001	1.07464E-007	0.00000E+000	7.60000E-001	1.00089E-003	5	..........a	-327.66
	1040	208.2	7.49973E-001	9.68207E-008	0.00000E+000	7.50000E-001	1.00049E-003	5	..........a	-327.66
	1041	208.4	7.39919E-001	8.80549E-008	0.00000E+000	7.40000E-001	1.00149E-003	5	..........a	-327.66
	1042	208.6	7.29914E-001	8.06573E-008	0.00000E+000	7.30000E-001	1.01389E-003	5	..........a	-327.66
	1043	208.8	7.19896E-001	7.43569E-008	0.00000E+000	7.20000E-001	1.00149E-003	5	..........a	-327.66
	1044	209	7.09960E-001	6.88160E-008	0.00000E+000	7.10000E-001	1.02359E-003	5	..........a	-327.66
	1045	209.2	6.99929E-001	6.38998E-008	0.00000E+000	7.00000E-001	9.96692E-004	5	..........a	-327.66
	1046	209.4	6.89920E-001	5.94653E-008	0.00000E+000	6.90000E-001	1.00229E-003	5	..........a	-327.66
	1047	209.6	6.79964E-001	5.54167E-008	0.00000E+000	6.80000E-001	1.00959E-003	5	..........a	-327.66
	1048	209.8	6.69984E-001	5.16668E-008	0.00000E+000	6.70000E-001	1.00639E-003	5	..........a	-327.66
	1049	210	6.59947E-001	4.82266E-008	0.00000E+000	6.60000E-001	9.95592E-004	5	..........a	-327.66
	1050	210.2	6.49952E-001	4.49844E-008	0.00000E+000	6.50000E-001	1.01609E-003	5	..........a	-327.66
	1051	210.4	6.39888E-001	4.19116E-008	0.00000E+000	6.40000E-001	1.01459E-003	5	..........a	-327.66
	1052	210.6	6.30005E-001	3.89666E-008	0.00000E+000	6.30000E-001	1.00519E-003	5	..........a	-327.66
	1053	210.8	6.19952E-001	3.62170E-008	0.00000E+000	6.20000E-001	1.00249E-003	5	..........a	-327.66
	1054	211	6.09944E-001	3.35856E-008	0.00000E+000	6.10000E-001	1.01319E-003	5	..........a	-327.66
	1055	211.2	5.99984E-001	3.10884E-008	0.00000E+000	6.00000E-001	9.90092E-004	5	..........a	-327.66
	1056	211.4	5.89987E-001	2.87294E-008	0.00000E+000	5.90000E-001	1.01409E-003	5	..........a	-327.66
	1057	211.6	5.80011E-001	2.65159E-008	0.00000E+000	5.80000E-001	9.89392E-004	5	..........a	-327.66
	1058	211.8	5.69976E-001	2.44155E-008	0.00000E+000	5.70000E-001	9.90392E-004	5	..........a	-327.66
	1059	212	5.59945E-001	2.23799E-008	0.00000E+000	5.60000E-001	1.01109E-003	5	..........a	-327.66
	1060	212.2	5.50041E-001	2.03385E-008	0.00000E+000	5.50000E-001	9.92192E-004	5	..........a	-327.66
	1061	212.4	5.39994E-001	1.83274E-008	0.00000E+000	5.40000E-001	1.00179E-003	5	..........a	-327.66
	1062	212.6	5.29978E-001	1.63913E-008	0.00000E+000	5.30000E-001	9.99592E-004	5	..........a	-327.66
	1063	212.8	5.19983E-001	1.44933E-008	0.00000E+000	5.20000E-001	1.00659E-003	5	..........a	-327.66
	1064	213	5.09961E-001	1.26609E-008	0.00000E+000	5.10000E-001	1.02159E-003	5	..........a	-327.66
	1065	213.2	5.00052E-001	1.09565E-008	0.00000E+000	5.00000E-001	9.87492E-004	5	..........a	-327.66
	1066	213.4	4.89958E-001	9.32186E-009	0.00000E+000	4.90000E-001	1.01859E-003	5	..........a	-327.66
	1067	213.6	4.79900E-001	7.71481E-009	0.00000E+000	4.80000E-001	1.03169E-003	5	..........a	-327.66
	1068	213.8	4.70035E-001	6.10995E-009	0.00000E+000	4.70000E-001	1.01259E-003	5	..........a	-327.66
	1069	214	4.60011E-001	4.44860E-009	0.00000E+000	4.60000E-001	1.00259E-003	5	..........a	-327.66
	1070	214.2	4.49915E-001	2.72261E-009	0.00000E+000	4.50000E-001	1.00319E-003	5	..........a	-327.66
	1071	214.4	4.39946E-001	1.04616E-009	0.00000E+000	4.40000E-001	1.01109E-003	5	..........a	-327.66
	1072	214.6	4.29987E-001	-7.81083E-010	0.00000E+000	4.30000E-001	1.02319E-003	5	..........a	-327.66
	1073	214.8	4.20027E-001	-2.49815E-009	0.00000E+000	4.20000E-001	1.00419E-003	5	..........a	-327.66
	1074	215	4.10036E-001	-4.26314E-009	0.00000E+000	4.10000E-001	1.01539E-003	5	..........a	-327.66
	1075	215.2	4.00045E-001	-6.07933E-009	0.00000E+000	4.00000E-001	1.02079E-003	5	..........a	-327.66
	1076	215.4	3.90061E-001	-7.93053E-009	0.00000E+000	3.90000E-001	1.01659E-003	5	..........a	-327.66
	1077	215.6	3.80056E-001	-9.83766E-009	0.00000E+000	3.80000E-001	9.92992E-004	5	..........a	-327.66
	1078	215.8	3.70055E-001	-1.17918E-008	0.00000E+000	3.70000E-001	1.01139E-003	5	..........a	-327.66
	1079	216	3.60060E-001	-1.38124E-008	0.00000E+000	3.60000E-001	9.91292E-004	5	..........a	-327.66
	1080	216.2	3.50036E-001	-1.59085E-008	0.00000E+000	3.50000E-001	9.99592E-004	5	..........a	-327.66
	1081	216.4	3.40091E-001	-1.80423E-008	0.00000E+000	3.40000E-001	1.01119E-003	5	..........a	-327.66
	1082	216.6	3.30046E-001	-2.03091E-008	0.00000E+000	3.30000E-001	1.00159E-003	5	..........a	-327.66
	1083	216.8	3.20048E-001	-2.27049E-008	0.00000E+000	3.20000E-001	1.00789E-003	5	..........a	-327.66
	1084	217	3.10072E-001	-2.51944E-008	0.00000E+000	3.10000E-001	9.87892E-004	5	..........a	-327.66
	1085	217.2	3.00097E-001	-2.77987E-008	0.00000E+000	3.00000E-001	9.90792E-004	5	..........a	-327.66
	1086	217.4	2.90061E-001	-3.05883E-008	0.00000E+000	2.90000E-001	9.91892E-004	5	..........a	-327.66
	1087	217.6	2.79992E-001	-3.35247E-008	0.00000E+000	2.80000E-001	1.02579E-003	5	..........a	-327.66
	1088	217.8	2.70109E-001	-3.66319E-008	0.00000E+000	2.70000E-001	9.87392E-004	5	..........a	-327.66
	1089	218	2.60073E-001	-3.98658E-008	0.00000E+000	2.60000E-001	9.94192E-004	5	..........a	-327.66
	1090	218.2	2.50022E-001	-4.32705E-008	0.00000E+000	2.50000E-001	1.00019E-003	5	..........a	-327.66
	1091	218.4	2.40078E-001	-4.66924E-008	0.00000E+000	2.40000E-001	1.01379E-003	5	..........a	-327.66
	1092	218.6	2.30046E-001	-5.01364E-008	0.00000E+000	2.30000E-001	1.01279E-003	5	..........a	-327.66
	1093	218.8	2.20024E-001	-5.35201E-008	0.00000E+000	2.20000E-001	9.82092E-004	5	..........a	-327.66
	1094	219	2.10045E-001	-5.66920E-008	0.00000E+000	2.10000E-001	1.01339E-003	5	..........a	-327.66
	1095	219.2	2.00073E-001	-5.95228E-008	0.00000E+000	2.00000E-001	1.01679E-003	5	..........a	-327.66
	1096	219.4	1.90132E-001	-6.18413E-008	0.00000E+000	1.90000E-001	9.99092E-004	5	..........a	-327.66
	1097	219.6	1.80121E-001	-6.34917E-008	0.00000E+000	1.80000E-001	9.88692E-004	5	..........a	-327.66
	1098	219.8	1.70112E-001	-6.43792E-008	0.00000E+000	1.70000E-001	1.01019E-003	5	..........a	-327.66
	1099	220	1.60082E-001	-6.44209E-008	0.00000E+000	1.60000E-001	1.00499E-003	5	..........a	-327.66
	1100	220.2	1.50097E-001	-6.36764E-008	0.00000E+000	1.50000E-001	1.00409E-003	5	..........a	-327.66
	1101	220.4	1.40144E-001	-6.21843E-008	0.00000E+000	1.40000E-001	1.00019E-003	5	..........a	-327.66
	1102	220.6	1.30099E-001	-6.00515E-008	0.00000E+000	1.30000E-001	1.00039E-003	5	..........a	-327.66
	1103	220.8	1.20063E-001	-5.74778E-008	0.00000E+000	1.20000E-001	1.02319E-003	5	..........a	-327.66
	1104	221	1.10124E-001	-5.46313E-008	0.00000E+000	1.10000E-001	1.00619E-003	5	..........a	-327.66
	1105	221.2	1.00144E-001	-5.18738E-008	0.00000E+000	1.00000E-001	9.97492E-004	5	..........a	-327.66
	1106	221.4	9.01078E-002	-4.91887E-008	0.00000E+000	9.00000E-002	1.01069E-003	5	..........a	-327.66
	1107	221.6	8.00762E-002	-4.68778E-008	0.00000E+000	8.00000E-002	1.03129E-003	5	..........a	-327.66
	1108	221.8	7.00984E-002	-4.49434E-008	0.00000E+000	7.00000E-002	1.01079E-003	5	..........a	-327.66
	1109	222	6.01307E-002	-4.35075E-008	0.00000E+000	6.00000E-002	9.77492E-004	5	..........a	-327.66
	1110	222.2	5.00669E-002	-4.25067E-008	0.00000E+000	5.00000E-002	1.00619E-003	5	..........a	-327.66
	1111	222.4	4.01369E-002	-4.19337E-008	0.00000E+000	4.00000E-002	1.00909E-003	5	..........a	-327.66
	1112	222.6	3.00756E-002	-4.15947E-008	0.00000E+000	3.00000E-002	9.85592E-004	5	..........a	-327.66
	1113	222.8	2.01644E-002	-4.16819E-008	0.00000E+000	2.00000E-002	1.00359E-003	5	..........a	-327.66
	1114	223	1.01185E-002	-4.20511E-008	0.00000E+000	1.00000E-002	1.02109E-003	5	..........a	-327.66
	1115	223.2	5.25917E-005	-4.23305E-008	0.00000E+000	7.45058E-009	1.00879E-003	5	..........a	-327.66
	1116	223.4	-9.87721E-003	-4.16376E-008	0.00000E+000	-1.00000E-002	9.93592E-004	5	..........a	-327.66
	1117	223.6	-1.98988E-002	-4.19806E-008	0.00000E+000	-2.00000E-002	9.92592E-004	5	..........a	-327.66
	1118	223.8	-2.99252E-002	-4.23797E-008	0.00000E+000	-3.00000E-002	1.00099E-003	5	..........a	-327.66
	1119	224	-3.99040E-002	-4.29237E-008	0.00000E+000	-4.00000E-002	9.97792E-004	5	..........a	-327.66
	1120	224.2	-4.99042E-002	-4.34774E-008	0.00000E+000	-5.00000E-002	1.02729E-003	5	..........a	-327.66