File: data/raw/batch_data/20240321_W_GM0016_HL03_E06_CV50.DTA
EXPLAIN
TAG	CV
TITLE	LABEL	Cyclic Voltammetry	Test &Identifier
DATE	LABEL	3/21/2024	Date
TIME	LABEL	17:45:33	Time
NOTES	NOTES	1	&Notes...

PSTAT	PSTAT	REF600P-43058	Potentiostat
VINIT	POTEN	0.00000E+000	T	Initial &E (V)
VLIMIT1	POTEN	-6.00000E-001	F	Scan Limit &1 (V)
VLIMIT2	POTEN	8.00000E-001	F	Scan Limit &2 (V)
VFINAL	POTEN	0.00000E+000	T	Final &E (V)
SCANRATE	QUANT	4.99999E+001	&Scan Rate (mV/s)
STEPSIZE	QUANT	1.00000E+001	St&ep Size (mV)
CYCLES	IQUANT	4	C&ycles (#)
IMODE	SELECTOR	1	I/E Range &Mode
IRANGE	QUANT	1.00000E-005	&Max Current (mA)
AREA	QUANT	1.00000E+000	Electrode &Area (cm^2)
ELECTRODETYPE	SELECTOR	0	Electrode Type
STRIPPING	TOGGLE	F	Used for Stripping
POLARITY	TOGGLE	F	Signal Polarity
CONDIT	TWOPARAM	F	1.50000E+001	0.00000E+000	Conditionin&g	Time(s)	E(V)
DELAY	TWOPARAM	T	1.00000E+001	0.00000E+000	Init. De&lay	Time(s)	Stab.(mV/s)
EQDELAY	QUANT	1.00000E+001	Equil. &Time (s)
IRCOMP	SELECTOR	0	IRCom&p
PFCOR	QUANT	5.00000E+001	PF Corr. (ohm)
SAMPLINGMODE	SELECTOR	1	Sampling &Mode
OCVCURVE	TABLE	39
	Pt	T	Vf	Vm	Ach	Over	Temp
	#	s	V vs. Ref.	V	V	bits	deg C
	0	0.258333	3.76815E-001	3.76815E-001	2.69356E-004	..........a	-327.66
	1	0.516667	3.76819E-001	3.76993E-001	2.48022E-004	..........a	-327.66
	2	0.775	3.76845E-001	3.77455E-001	2.49756E-004	..........a	-327.66
	3	1.03333	3.76939E-001	3.77901E-001	2.34556E-004	..........a	-327.66
	4	1.29167	3.77144E-001	3.78435E-001	2.54089E-004	..........a	-327.66
	5	1.55	3.77471E-001	3.78823E-001	2.41289E-004	..........a	-327.66
	6	1.80833	3.77886E-001	3.79339E-001	2.42756E-004	..........a	-327.66
	7	2.06667	3.78347E-001	3.79982E-001	2.52422E-004	..........a	-327.66
	8	2.325	3.78834E-001	3.80278E-001	2.30622E-004	..........a	-327.66
	9	2.58333	3.79332E-001	3.80817E-001	2.49556E-004	..........a	-327.66
	10	2.84167	3.79826E-001	3.81429E-001	2.50289E-004	..........a	-327.66
	11	3.1	3.80317E-001	3.81769E-001	2.52089E-004	..........a	-327.66
	12	3.35833	3.80809E-001	3.82308E-001	2.43289E-004	..........a	-327.66
	13	3.61667	3.81298E-001	3.82737E-001	2.28956E-004	..........a	-327.66
	14	3.875	3.81778E-001	3.83289E-001	2.61889E-004	..........a	-327.66
	15	4.13333	3.82255E-001	3.83724E-001	2.30489E-004	..........a	-327.66
	16	4.39167	3.82735E-001	3.84212E-001	2.38289E-004	..........a	-327.66
	17	4.65	3.83219E-001	3.84823E-001	2.41689E-004	..........a	-327.66
	18	4.90833	3.83709E-001	3.85157E-001	2.24689E-004	..........a	-327.66
	19	5.16667	3.84204E-001	3.85692E-001	2.49489E-004	..........a	-327.66
	20	5.425	3.84695E-001	3.86289E-001	2.44222E-004	..........a	-327.66
	21	5.68333	3.85184E-001	3.86627E-001	2.47356E-004	..........a	-327.66
	22	5.94167	3.85675E-001	3.87136E-001	2.45289E-004	..........a	-327.66
	23	6.2	3.86159E-001	3.87614E-001	2.44956E-004	..........a	-327.66
	24	6.45833	3.86634E-001	3.88102E-001	2.54756E-004	..........a	-327.66
	25	6.71667	3.87105E-001	3.88563E-001	2.35089E-004	..........a	-327.66
	26	6.975	3.87579E-001	3.89028E-001	2.40489E-004	..........a	-327.66
	27	7.23333	3.88055E-001	3.89591E-001	2.28422E-004	..........a	-327.66
	28	7.49167	3.88533E-001	3.89936E-001	2.38956E-004	..........a	-327.66
	29	7.75	3.89012E-001	3.90472E-001	2.37289E-004	..........a	-327.66
	30	8.00833	3.89486E-001	3.90963E-001	2.33956E-004	..........a	-327.66
	31	8.26667	3.89957E-001	3.91391E-001	2.39089E-004	..........a	-327.66
	32	8.525	3.90429E-001	3.91852E-001	2.39222E-004	..........a	-327.66
	33	8.78333	3.90897E-001	3.92288E-001	2.32422E-004	..........a	-327.66
	34	9.04167	3.91360E-001	3.92837E-001	2.53022E-004	..........a	-327.66
	35	9.3	3.91821E-001	3.93226E-001	2.36756E-004	..........a	-327.66
	36	9.5583	3.92285E-001	3.93714E-001	2.41289E-004	..........a	-327.66
	37	9.8167	3.92751E-001	3.94201E-001	2.28022E-004	..........a	-327.66
	38	10.075	3.93216E-001	3.94617E-001	2.35222E-004	..........a	-327.66
EOC	QUANT	0.3932158	Open Circuit (V)
PSTATMODEL	IQUANT	7	Pstat Model
PSTATSECTION	LABEL	REF600P-43058	Pstat Section
PSTATSERIALNO	LABEL	43058	Pstat Serial Number
CTRLMODE	IQUANT	1	Control Mode
ELECTROMETER	IQUANT	0	RE=0 or CS=1
IESTAB	IQUANT	2	I/E Stability
CASPEED	IQUANT	4	Control Amp Speed
CONVENTION	IQUANT	1	Current Convention
ICHRANGE	IQUANT	2	Ich Range
ICHRANGEMODE	TOGGLE	F	Ich Auto Range
ICHOFFSETENABLE	TOGGLE	F	Ich Offset Enable
ICHOFFSET	QUANT	0	Ich Offset (V)
ICHFILTER	IQUANT	2	Ich Filter
VCHRANGE	IQUANT	2	Vch Range
VCHRANGEMODE	TOGGLE	F	Vch Auto Range
VCHOFFSETENABLE	TOGGLE	F	Vch Offset Enable
VCHOFFSET	QUANT	0	Vch Offset (V)
VCHFILTER	IQUANT	2	Vch Filter
ACHRANGE	IQUANT	2	Ach Range
ACHOFFSETENABLE	TOGGLE	F	Ach Offset Enable
ACHOFFSET	QUANT	0	Ach Offset (V)
ACHFILTER	IQUANT	1	Ach Filter
IERANGELOWERLIMIT	IQUANT	1	I/E Range Lower Limit
IERANGEMODE	TOGGLE	F	I/E AutoRange
IERANGE	IQUANT	4	I/E Range
POSFEEDENABLE	TOGGLE	F	Positive Feedback IR Comp
POSFEEDRESISTANCE	QUANT	0	Positive Feedback Resistance (ohm)
ACHSELECT	IQUANT	4	Ach Select
SENSECABLEID	IQUANT	7	Sense Cable ID
PWRCABLEID	IQUANT	7	Power Cable ID
DCCALDATE	LABEL	12/18/2023	DC Calibration Date
ACCALDATE	LABEL	12/18/2023	AC Calibration Date
THERMOSELECT	IQUANT	1	Thermo Select
FRAMEWORKVERSION	LABEL	7.8.4	Framework Version
INSTRUMENTVERSION	LABEL	4.42	Instrument Version
CURVE1	TABLE
	Pt	T	Vf	Im	Vu	Sig	Ach	IERange	Over	Temp
	#	s	V vs. Ref.	A	V	V	V	#	bits	deg C
	0	0.2	3.93186E-001	1.18653E-011	0.00000E+000	3.93200E-001	9.98022E-004	4	..........a	-327.66
	1	0.4	3.83217E-001	-8.20552E-012	0.00000E+000	3.83200E-001	9.88922E-004	4	..........a	-327.66
	2	0.6	3.72669E-001	-2.16920E-011	0.00000E+000	3.73200E-001	9.84822E-004	4	..........a	-327.66
	3	0.8	3.63194E-001	-3.01934E-011	0.00000E+000	3.63200E-001	9.89522E-004	4	..........a	-327.66
	4	1	3.53179E-001	-3.60126E-011	0.00000E+000	3.53200E-001	9.77022E-004	4	..........a	-327.66
	5	1.2	3.43251E-001	-3.86657E-011	0.00000E+000	3.43200E-001	9.97222E-004	4	..........a	-327.66
	6	1.4	3.33161E-001	-4.25858E-011	0.00000E+000	3.33200E-001	9.79222E-004	4	..........a	-327.66
	7	1.6	3.23254E-001	-4.68780E-011	0.00000E+000	3.23200E-001	9.83222E-004	4	..........a	-327.66
	8	1.8	3.13174E-001	-5.06861E-011	0.00000E+000	3.13200E-001	9.93922E-004	4	..........a	-327.66
	9	2	3.03224E-001	-5.35053E-011	0.00000E+000	3.03200E-001	1.01062E-003	4	..........a	-327.66
	10	2.2	2.93202E-001	-5.59543E-011	0.00000E+000	2.93200E-001	9.72122E-004	4	..........a	-327.66
	11	2.4	2.83174E-001	-5.82444E-011	0.00000E+000	2.83200E-001	1.01972E-003	4	..........a	-327.66
	12	2.6	2.73123E-001	-6.20246E-011	0.00000E+000	2.73200E-001	1.00232E-003	4	..........a	-327.66
	13	2.8	2.63216E-001	-6.55357E-011	0.00000E+000	2.63200E-001	9.88222E-004	4	..........a	-327.66
	14	3	2.53198E-001	-6.73868E-011	0.00000E+000	2.53200E-001	1.01182E-003	4	..........a	-327.66
	15	3.2	2.43224E-001	-6.93929E-011	0.00000E+000	2.43200E-001	9.98122E-004	4	..........a	-327.66
	16	3.4	2.33195E-001	-7.04409E-011	0.00000E+000	2.33200E-001	1.00362E-003	4	..........a	-327.66
	17	3.6	2.23216E-001	-7.08479E-011	0.00000E+000	2.23200E-001	1.00022E-003	4	..........a	-327.66
	18	3.8	2.13223E-001	-7.27590E-011	0.00000E+000	2.13200E-001	1.00622E-003	4	..........a	-327.66
	19	4	2.03197E-001	-7.43911E-011	0.00000E+000	2.03200E-001	1.00102E-003	4	..........a	-327.66
	20	4.2	1.93207E-001	-7.48771E-011	0.00000E+000	1.93200E-001	9.59922E-004	4	..........a	-327.66
	21	4.4	1.83255E-001	-7.69972E-011	0.00000E+000	1.83200E-001	9.87822E-004	4	..........a	-327.66
	22	4.6	1.73154E-001	-7.86682E-011	0.00000E+000	1.73200E-001	9.81622E-004	4	..........a	-327.66
	23	4.8	1.63251E-001	-7.95412E-011	0.00000E+000	1.63200E-001	9.86322E-004	4	..........a	-327.66
	24	5	1.53163E-001	-8.01353E-011	0.00000E+000	1.53200E-001	1.00062E-003	4	..........a	-327.66
	25	5.2	1.43250E-001	-8.10243E-011	0.00000E+000	1.43200E-001	1.00062E-003	4	..........a	-327.66
	26	5.4	1.33216E-001	-8.18163E-011	0.00000E+000	1.33200E-001	9.83122E-004	4	..........a	-327.66
	27	5.6	1.23229E-001	-8.22144E-011	0.00000E+000	1.23200E-001	1.00522E-003	4	..........a	-327.66
	28	5.8	1.13227E-001	-8.31184E-011	0.00000E+000	1.13200E-001	9.78722E-004	4	..........a	-327.66
	29	6	1.03260E-001	-8.44044E-011	0.00000E+000	1.03200E-001	9.90422E-004	4	..........a	-327.66
	30	6.2	9.32960E-002	-8.43915E-011	0.00000E+000	9.32000E-002	9.61322E-004	4	..........a	-327.66
	31	6.4	8.31882E-002	-8.55615E-011	0.00000E+000	8.32000E-002	1.00742E-003	4	..........a	-327.66
	32	6.6	7.32162E-002	-8.59585E-011	0.00000E+000	7.32000E-002	1.02012E-003	4	..........a	-327.66
	33	6.8	6.32644E-002	-8.63885E-011	0.00000E+000	6.32000E-002	9.94022E-004	4	..........a	-327.66
	34	7	5.32782E-002	-8.75026E-011	0.00000E+000	5.32000E-002	9.90622E-004	4	..........a	-327.66
	35	7.2	4.31948E-002	-8.84196E-011	0.00000E+000	4.32000E-002	1.01122E-003	4	..........a	-327.66
	36	7.4	3.32531E-002	-8.85356E-011	0.00000E+000	3.32000E-002	1.00132E-003	4	..........a	-327.66
	37	7.6	2.32181E-002	-8.99117E-011	0.00000E+000	2.32000E-002	1.01692E-003	4	..........a	-327.66
	38	7.8	1.32378E-002	-9.17567E-011	0.00000E+000	1.32000E-002	9.58322E-004	4	..........a	-327.66
	39	8	3.22869E-003	-9.38078E-011	0.00000E+000	3.20000E-003	9.94422E-004	4	..........a	-327.66
	40	8.2	-6.84781E-003	-9.58129E-011	0.00000E+000	-6.80000E-003	9.84422E-004	4	..........a	-327.66
	41	8.4	-1.67376E-002	-9.55509E-011	0.00000E+000	-1.68000E-002	9.97122E-004	4	..........a	-327.66
	42	8.6	-2.68246E-002	-9.75389E-011	0.00000E+000	-2.68000E-002	9.72522E-004	4	..........a	-327.66
	43	8.8	-3.67266E-002	-1.00320E-010	0.00000E+000	-3.68000E-002	1.00582E-003	4	..........a	-327.66
	44	9	-4.67701E-002	-1.02028E-010	0.00000E+000	-4.68000E-002	9.95522E-004	4	..........a	-327.66
	45	9.2	-5.67330E-002	-1.03054E-010	0.00000E+000	-5.68000E-002	9.98522E-004	4	..........a	-327.66
	46	9.4	-6.67576E-002	-1.06450E-010	0.00000E+000	-6.68000E-002	9.78822E-004	4	..........a	-327.66
	47	9.6	-7.67842E-002	-1.09746E-010	0.00000E+000	-7.68000E-002	1.00292E-003	4	..........a	-327.66
	48	9.8	-8.68631E-002	-1.12682E-010	0.00000E+000	-8.68000E-002	1.00342E-003	4	..........a	-327.66
	49	10	-9.67402E-002	-1.16470E-010	0.00000E+000	-9.68000E-002	9.77722E-004	4	..........a	-327.66
	50	10.2	-1.06741E-001	-1.20009E-010	0.00000E+000	-1.06800E-001	9.74322E-004	4	..........a	-327.66
	51	10.4	-1.16786E-001	-1.23788E-010	0.00000E+000	-1.16800E-001	9.94422E-004	4	..........a	-327.66
	52	10.6	-1.26854E-001	-1.29084E-010	0.00000E+000	-1.26800E-001	1.00752E-003	4	..........a	-327.66
	53	10.8	-1.36787E-001	-1.33542E-010	0.00000E+000	-1.36800E-001	9.98422E-004	4	..........a	-327.66
	54	11	-1.46791E-001	-1.37904E-010	0.00000E+000	-1.46800E-001	9.64422E-004	4	..........a	-327.66
	55	11.2	-1.56853E-001	-1.43654E-010	0.00000E+000	-1.56800E-001	1.00212E-003	4	..........a	-327.66
	56	11.4	-1.66782E-001	-1.49194E-010	0.00000E+000	-1.66800E-001	9.89722E-004	4	..........a	-327.66
	57	11.6	-1.76772E-001	-1.56432E-010	0.00000E+000	-1.76800E-001	1.00302E-003	4	..........a	-327.66
	58	11.8	-1.86776E-001	-1.64148E-010	0.00000E+000	-1.86800E-001	1.01382E-003	4	..........a	-327.66
	59	12	-1.96760E-001	-1.70014E-010	0.00000E+000	-1.96800E-001	9.88422E-004	4	..........a	-327.66
	60	12.2	-2.06805E-001	-1.78923E-010	0.00000E+000	-2.06800E-001	9.92822E-004	4	..........a	-327.66
	61	12.4	-2.16751E-001	-1.87613E-010	0.00000E+000	-2.16800E-001	1.01572E-003	4	..........a	-327.66
	62	12.6	-2.26738E-001	-1.98253E-010	0.00000E+000	-2.26800E-001	9.99622E-004	4	..........a	-327.66
	63	12.8	-2.36821E-001	-2.09401E-010	0.00000E+000	-2.36800E-001	1.00532E-003	4	..........a	-327.66
	64	13	-2.46745E-001	-2.20506E-010	0.00000E+000	-2.46800E-001	9.98422E-004	4	..........a	-327.66
	65	13.2	-2.56703E-001	-2.32896E-010	0.00000E+000	-2.56800E-001	9.95522E-004	4	..........a	-327.66
	66	13.4	-2.66693E-001	-2.46986E-010	0.00000E+000	-2.66800E-001	9.87522E-004	4	..........a	-327.66
	67	13.6	-2.76786E-001	-2.62299E-010	0.00000E+000	-2.76800E-001	9.93622E-004	4	..........a	-327.66
	68	13.8	-2.86736E-001	-2.80503E-010	0.00000E+000	-2.86800E-001	1.00622E-003	4	..........a	-327.66
	69	14	-2.96733E-001	-2.93101E-010	0.00000E+000	-2.96800E-001	9.84622E-004	4	..........a	-327.66
	70	14.2	-3.06700E-001	-3.11661E-010	0.00000E+000	-3.06800E-001	9.84322E-004	4	..........a	-327.66
	71	14.4	-3.16680E-001	-3.27282E-010	0.00000E+000	-3.16800E-001	9.81022E-004	4	..........a	-327.66
	72	14.6	-3.26698E-001	-3.45522E-010	0.00000E+000	-3.26800E-001	1.00942E-003	4	..........a	-327.66
	73	14.8	-3.36652E-001	-3.56230E-010	0.00000E+000	-3.36800E-001	1.02912E-003	4	..........a	-327.66
	74	15	-3.46747E-001	-3.88762E-010	0.00000E+000	-3.46800E-001	9.94422E-004	4	..........a	-327.66
	75	15.2	-3.56776E-001	-4.10180E-010	0.00000E+000	-3.56800E-001	1.00702E-003	4	..........a	-327.66
	76	15.4	-3.66774E-001	-4.30509E-010	0.00000E+000	-3.66800E-001	1.00722E-003	4	..........a	-327.66
	77	15.6	-3.76680E-001	-4.54200E-010	0.00000E+000	-3.76800E-001	1.02072E-003	4	..........a	-327.66
	78	15.8	-3.86752E-001	-4.77700E-010	0.00000E+000	-3.86800E-001	9.88722E-004	4	..........a	-327.66
	79	16	-3.96707E-001	-5.03311E-010	0.00000E+000	-3.96800E-001	9.91322E-004	4	..........a	-327.66
	80	16.2	-4.06765E-001	-5.28338E-010	0.00000E+000	-4.06800E-001	9.87122E-004	4	..........a	-327.66
	81	16.4	-4.16638E-001	-5.54816E-010	0.00000E+000	-4.16800E-001	1.00782E-003	4	..........a	-327.66
	82	16.6	-4.26674E-001	-5.83292E-010	0.00000E+000	-4.26800E-001	1.00862E-003	4	..........a	-327.66
	83	16.8	-4.36668E-001	-6.11207E-010	0.00000E+000	-4.36800E-001	1.01142E-003	4	..........a	-327.66
	84	17	-4.46726E-001	-6.42630E-010	0.00000E+000	-4.46800E-001	1.01072E-003	4	..........a	-327.66
	85	17.2	-4.56683E-001	-6.75592E-010	0.00000E+000	-4.56800E-001	1.02132E-003	4	..........a	-327.66
	86	17.4	-4.66650E-001	-7.08236E-010	0.00000E+000	-4.66800E-001	9.83822E-004	4	..........a	-327.66
	87	17.6	-4.76686E-001	-7.43518E-010	0.00000E+000	-4.76800E-001	9.95922E-004	4	..........a	-327.66
	88	17.8	-4.86730E-001	-7.79217E-010	0.00000E+000	-4.86800E-001	9.98522E-004	4	..........a	-327.66
	89	18	-4.96629E-001	-8.19160E-010	0.00000E+000	-4.96800E-001	1.00302E-003	4	..........a	-327.66
	90	18.2	-5.06663E-001	-8.62998E-010	0.00000E+000	-5.06800E-001	1.00672E-003	4	..........a	-327.66
	91	18.4	-5.16720E-001	-9.06885E-010	0.00000E+000	-5.16800E-001	1.00382E-003	4	..........a	-327.66
	92	18.6	-5.26685E-001	-9.58220E-010	0.00000E+000	-5.26800E-001	9.88422E-004	4	..........a	-327.66
	93	18.8	-5.36654E-001	-1.00524E-009	0.00000E+000	-5.36800E-001	1.00942E-003	4	..........a	-327.66
	94	19	-5.46678E-001	-1.06256E-009	0.00000E+000	-5.46800E-001	9.93322E-004	4	..........a	-327.66
	95	19.2	-5.56699E-001	-1.12248E-009	0.00000E+000	-5.56800E-001	1.02932E-003	4	..........a	-327.66
	96	19.4	-5.66697E-001	-1.18679E-009	0.00000E+000	-5.66800E-001	1.00012E-003	4	..........a	-327.66
	97	19.6	-5.76660E-001	-1.25547E-009	0.00000E+000	-5.76800E-001	9.97522E-004	4	..........a	-327.66
	98	19.8	-5.86659E-001	-1.33230E-009	0.00000E+000	-5.86800E-001	1.00942E-003	4	..........a	-327.66
	99	20	-5.96727E-001	-1.41279E-009	0.00000E+000	-5.96800E-001	1.00292E-003	4	..........a	-327.66
	100	20.2	-5.86665E-001	-1.21169E-009	0.00000E+000	-5.86800E-001	9.90722E-004	4	..........a	-327.66
	101	20.4	-5.76708E-001	-1.06179E-009	0.00000E+000	-5.76800E-001	9.87722E-004	4	..........a	-327.66
	102	20.6	-5.66664E-001	-9.39438E-010	0.00000E+000	-5.66800E-001	1.00492E-003	4	..........a	-327.66
	103	20.8	-5.56682E-001	-8.36964E-010	0.00000E+000	-5.56800E-001	1.00592E-003	4	..........a	-327.66
	104	21	-5.46699E-001	-7.44373E-010	0.00000E+000	-5.46800E-001	9.82622E-004	4	..........a	-327.66
	105	21.2	-5.36674E-001	-6.63252E-010	0.00000E+000	-5.36800E-001	1.00932E-003	4	..........a	-327.66
	106	21.4	-5.26701E-001	-5.92931E-010	0.00000E+000	-5.26800E-001	9.99922E-004	4	..........a	-327.66
	107	21.6	-5.16716E-001	-5.28721E-010	0.00000E+000	-5.16800E-001	9.90822E-004	4	..........a	-327.66
	108	21.8	-5.06647E-001	-4.72621E-010	0.00000E+000	-5.06800E-001	1.00862E-003	4	..........a	-327.66
	109	22	-4.96689E-001	-4.17217E-010	0.00000E+000	-4.96800E-001	1.00702E-003	4	..........a	-327.66
	110	22.2	-4.86688E-001	-3.72554E-010	0.00000E+000	-4.86800E-001	9.83822E-004	4	..........a	-327.66
	111	22.4	-4.76649E-001	-3.31096E-010	0.00000E+000	-4.76800E-001	1.00212E-003	4	..........a	-327.66
	112	22.6	-4.66648E-001	-2.94191E-010	0.00000E+000	-4.66800E-001	9.76622E-004	4	..........a	-327.66
	113	22.8	-4.56692E-001	-2.58264E-010	0.00000E+000	-4.56800E-001	1.02422E-003	4	..........a	-327.66
	114	23	-4.46682E-001	-2.24592E-010	0.00000E+000	-4.46800E-001	9.79222E-004	4	..........a	-327.66
	115	23.2	-4.36774E-001	-1.94570E-010	0.00000E+000	-4.36800E-001	1.01562E-003	4	..........a	-327.66
	116	23.4	-4.26678E-001	-1.65990E-010	0.00000E+000	-4.26800E-001	1.00802E-003	4	..........a	-327.66
	117	23.6	-4.16763E-001	-1.39807E-010	0.00000E+000	-4.16800E-001	1.01922E-003	4	..........a	-327.66
	118	23.8	-4.06766E-001	-1.15187E-010	0.00000E+000	-4.06800E-001	9.97322E-004	4	..........a	-327.66
	119	24	-3.96685E-001	-9.22267E-011	0.00000E+000	-3.96800E-001	1.00372E-003	4	..........a	-327.66
	120	24.2	-3.86704E-001	-7.13589E-011	0.00000E+000	-3.86800E-001	1.01372E-003	4	..........a	-327.66
	121	24.4	-3.76695E-001	-5.14662E-011	0.00000E+000	-3.76800E-001	9.86022E-004	4	..........a	-327.66
	122	24.6	-3.66770E-001	-3.47695E-011	0.00000E+000	-3.66800E-001	9.91522E-004	4	..........a	-327.66
	123	24.8	-3.56893E-001	-1.53258E-011	0.00000E+000	-3.56800E-001	9.92122E-004	4	..........a	-327.66
	124	25	-3.46739E-001	1.77187E-012	0.00000E+000	-3.46800E-001	9.87722E-004	4	..........a	-327.66
	125	25.2	-3.36746E-001	1.81185E-011	0.00000E+000	-3.36800E-001	1.01982E-003	4	..........a	-327.66
	126	25.4	-3.26761E-001	2.97499E-011	0.00000E+000	-3.26800E-001	1.01192E-003	4	..........a	-327.66
	127	25.6	-3.16698E-001	4.47415E-011	0.00000E+000	-3.16800E-001	1.00652E-003	4	..........a	-327.66
	128	25.8	-3.06713E-001	5.75210E-011	0.00000E+000	-3.06800E-001	9.97922E-004	4	..........a	-327.66
	129	26	-2.96696E-001	6.83234E-011	0.00000E+000	-2.96800E-001	1.02022E-003	4	..........a	-327.66
	130	26.2	-2.86786E-001	7.97329E-011	0.00000E+000	-2.86800E-001	9.95922E-004	4	..........a	-327.66
	131	26.4	-2.76693E-001	8.90932E-011	0.00000E+000	-2.76800E-001	1.00652E-003	4	..........a	-327.66
	132	26.6	-2.66762E-001	9.75685E-011	0.00000E+000	-2.66800E-001	9.72822E-004	4	..........a	-327.66
	133	26.8	-2.56747E-001	1.05986E-010	0.00000E+000	-2.56800E-001	9.94922E-004	4	..........a	-327.66
	134	27	-2.46745E-001	1.13363E-010	0.00000E+000	-2.46800E-001	1.02482E-003	4	..........a	-327.66
	135	27.2	-2.36862E-001	1.19619E-010	0.00000E+000	-2.36800E-001	1.01192E-003	4	..........a	-327.66
	136	27.4	-2.26713E-001	1.24602E-010	0.00000E+000	-2.26800E-001	9.78022E-004	4	..........a	-327.66
	137	27.6	-2.16738E-001	1.28675E-010	0.00000E+000	-2.16800E-001	1.00652E-003	4	..........a	-327.66
	138	27.8	-2.06771E-001	1.33886E-010	0.00000E+000	-2.06800E-001	1.00722E-003	4	..........a	-327.66
	139	28	-1.96755E-001	1.36254E-010	0.00000E+000	-1.96800E-001	1.01382E-003	4	..........a	-327.66
	140	28.2	-1.86732E-001	1.38649E-010	0.00000E+000	-1.86800E-001	1.00472E-003	4	..........a	-327.66
	141	28.4	-1.76739E-001	1.40105E-010	0.00000E+000	-1.76800E-001	1.01502E-003	4	..........a	-327.66
	142	28.6	-1.66777E-001	1.42212E-010	0.00000E+000	-1.66800E-001	1.02422E-003	4	..........a	-327.66
	143	28.8	-1.56778E-001	1.42198E-010	0.00000E+000	-1.56800E-001	1.00652E-003	4	..........a	-327.66
	144	29	-1.46801E-001	1.43552E-010	0.00000E+000	-1.46800E-001	9.87322E-004	4	..........a	-327.66
	145	29.2	-1.36765E-001	1.44502E-010	0.00000E+000	-1.36800E-001	1.01652E-003	4	..........a	-327.66
	146	29.4	-1.26839E-001	1.43922E-010	0.00000E+000	-1.26800E-001	9.92822E-004	4	..........a	-327.66
	147	29.6	-1.16775E-001	1.45939E-010	0.00000E+000	-1.16800E-001	1.01322E-003	4	..........a	-327.66
	148	29.8	-1.06820E-001	1.44292E-010	0.00000E+000	-1.06800E-001	9.68822E-004	4	..........a	-327.66
	149	30	-9.67237E-002	1.43717E-010	0.00000E+000	-9.68000E-002	1.01162E-003	4	..........a	-327.66
	150	30.2	-8.67949E-002	1.42614E-010	0.00000E+000	-8.68000E-002	9.85722E-004	4	..........a	-327.66
	151	30.4	-7.67906E-002	1.42312E-010	0.00000E+000	-7.68000E-002	9.98522E-004	4	..........a	-327.66
	152	30.6	-6.67542E-002	1.41580E-010	0.00000E+000	-6.68000E-002	1.01252E-003	4	..........a	-327.66
	153	30.8	-5.67588E-002	1.40700E-010	0.00000E+000	-5.68000E-002	1.02852E-003	4	..........a	-327.66
	154	31	-4.67972E-002	1.39921E-010	0.00000E+000	-4.68000E-002	9.99722E-004	4	..........a	-327.66
	155	31.2	-3.67980E-002	1.39510E-010	0.00000E+000	-3.68000E-002	1.00642E-003	4	..........a	-327.66
	156	31.4	-2.67526E-002	1.38683E-010	0.00000E+000	-2.68000E-002	1.00782E-003	4	..........a	-327.66
	157	31.6	-1.67272E-002	1.38104E-010	0.00000E+000	-1.68000E-002	1.01542E-003	4	..........a	-327.66
	158	31.8	-6.75746E-003	1.37778E-010	0.00000E+000	-6.80000E-003	1.01802E-003	4	..........a	-327.66
	159	32	3.28094E-003	1.36988E-010	0.00000E+000	3.20000E-003	1.01082E-003	4	..........a	-327.66
	160	32.2	1.34427E-002	1.36040E-010	0.00000E+000	1.32000E-002	9.96722E-004	4	..........a	-327.66
	161	32.4	2.32235E-002	1.36604E-010	0.00000E+000	2.32000E-002	1.01332E-003	4	..........a	-327.66
	162	32.6	3.32551E-002	1.35914E-010	0.00000E+000	3.32000E-002	1.00652E-003	4	..........a	-327.66
	163	32.8	4.32613E-002	1.35553E-010	0.00000E+000	4.32000E-002	1.02042E-003	4	..........a	-327.66
	164	33	5.32907E-002	1.35365E-010	0.00000E+000	5.32000E-002	9.88422E-004	4	..........a	-327.66
	165	33.2	6.32926E-002	1.35901E-010	0.00000E+000	6.32000E-002	9.74722E-004	4	..........a	-327.66
	166	33.4	7.32136E-002	1.35540E-010	0.00000E+000	7.32000E-002	9.93022E-004	4	..........a	-327.66
	167	33.6	8.32676E-002	1.35184E-010	0.00000E+000	8.32000E-002	1.00412E-003	4	..........a	-327.66
	168	33.8	9.33754E-002	1.35807E-010	0.00000E+000	9.32000E-002	9.88522E-004	4	..........a	-327.66
	169	34	1.03279E-001	1.36272E-010	0.00000E+000	1.03200E-001	9.98022E-004	4	..........a	-327.66
	170	34.2	1.13265E-001	1.36737E-010	0.00000E+000	1.13200E-001	9.97022E-004	4	..........a	-327.66
	171	34.4	1.23257E-001	1.37624E-010	0.00000E+000	1.23200E-001	1.00132E-003	4	..........a	-327.66
	172	34.6	1.33285E-001	1.38610E-010	0.00000E+000	1.33200E-001	1.00222E-003	4	..........a	-327.66
	173	34.8	1.43300E-001	1.40273E-010	0.00000E+000	1.43200E-001	1.00572E-003	4	..........a	-327.66
	174	35	1.53190E-001	1.41306E-010	0.00000E+000	1.53200E-001	9.97522E-004	4	..........a	-327.66
	175	35.2	1.63246E-001	1.43647E-010	0.00000E+000	1.63200E-001	9.88322E-004	4	..........a	-327.66
	176	35.4	1.73219E-001	1.46563E-010	0.00000E+000	1.73200E-001	1.01562E-003	4	..........a	-327.66
	177	35.6	1.83263E-001	1.49403E-010	0.00000E+000	1.83200E-001	1.00102E-003	4	..........a	-327.66
	178	35.8	1.93073E-001	1.57566E-010	0.00000E+000	1.93200E-001	9.92622E-004	4	..........a	-327.66
	179	36	2.03241E-001	1.57278E-010	0.00000E+000	2.03200E-001	1.01802E-003	4	..........a	-327.66
	180	36.2	2.13197E-001	1.59488E-010	0.00000E+000	2.13200E-001	1.00832E-003	4	..........a	-327.66
	181	36.4	2.23214E-001	1.56356E-010	0.00000E+000	2.23200E-001	1.02092E-003	4	..........a	-327.66
	182	36.6	2.33187E-001	1.59162E-010	0.00000E+000	2.33200E-001	1.00682E-003	4	..........a	-327.66
	183	36.8	2.43299E-001	1.65316E-010	0.00000E+000	2.43200E-001	1.01062E-003	4	..........a	-327.66
	184	37	2.53228E-001	1.67896E-010	0.00000E+000	2.53200E-001	9.63822E-004	4	..........a	-327.66
	185	37.2	2.63253E-001	1.71620E-010	0.00000E+000	2.63200E-001	9.92122E-004	4	..........a	-327.66
	186	37.4	2.73146E-001	1.73644E-010	0.00000E+000	2.73200E-001	1.01102E-003	4	..........a	-327.66
	187	37.6	2.83171E-001	1.76122E-010	0.00000E+000	2.83200E-001	1.00712E-003	4	..........a	-327.66
	188	37.8	2.93200E-001	1.78537E-010	0.00000E+000	2.93200E-001	1.00372E-003	4	..........a	-327.66
	189	38	3.03234E-001	1.81769E-010	0.00000E+000	3.03200E-001	1.00732E-003	4	..........a	-327.66
	190	38.2	3.13139E-001	1.86811E-010	0.00000E+000	3.13200E-001	1.00072E-003	4	..........a	-327.66
	191	38.4	3.23220E-001	1.84798E-010	0.00000E+000	3.23200E-001	1.01702E-003	4	..........a	-327.66
	192	38.6	3.33154E-001	1.89161E-010	0.00000E+000	3.33200E-001	9.84422E-004	4	..........a	-327.66
	193	38.8	3.43261E-001	1.87821E-010	0.00000E+000	3.43200E-001	1.01652E-003	4	..........a	-327.66
	194	39	3.53172E-001	1.90031E-010	0.00000E+000	3.53200E-001	9.85722E-004	4	..........a	-327.66
	195	39.2	3.63223E-001	1.93601E-010	0.00000E+000	3.63200E-001	9.88922E-004	4	..........a	-327.66
	196	39.4	3.72635E-001	1.92086E-010	0.00000E+000	3.73200E-001	9.86922E-004	4	..........a	-327.66
	197	39.6	3.83246E-001	1.96948E-010	0.00000E+000	3.83200E-001	1.00212E-003	4	..........a	-327.66
	198	39.8	3.93199E-001	1.97937E-010	0.00000E+000	3.93200E-001	1.01692E-003	4	..........a	-327.66
	199	40	4.03215E-001	1.99029E-010	0.00000E+000	4.03200E-001	1.03292E-003	4	..........a	-327.66
	200	40.2	4.13195E-001	2.00551E-010	0.00000E+000	4.13200E-001	9.90922E-004	4	..........a	-327.66
	201	40.4	4.23216E-001	2.02590E-010	0.00000E+000	4.23200E-001	1.00432E-003	4	..........a	-327.66
	202	40.6	4.33156E-001	2.04514E-010	0.00000E+000	4.33200E-001	1.01672E-003	4	..........a	-327.66
	203	40.8	4.43196E-001	2.06444E-010	0.00000E+000	4.43200E-001	9.94222E-004	4	..........a	-327.66
	204	41	4.53171E-001	2.08850E-010	0.00000E+000	4.53200E-001	9.78922E-004	4	..........a	-327.66
	205	41.2	4.63224E-001	2.13222E-010	0.00000E+000	4.63200E-001	9.84622E-004	4	..........a	-327.66
	206	41.4	4.73178E-001	2.15992E-010	0.00000E+000	4.73200E-001	9.98422E-004	4	..........a	-327.66
	207	41.6	4.83191E-001	2.17488E-010	0.00000E+000	4.83200E-001	1.00782E-003	4	..........a	-327.66
	208	41.8	4.93194E-001	2.19029E-010	0.00000E+000	4.93200E-001	1.00352E-003	4	..........a	-327.66
	209	42	5.03205E-001	2.21482E-010	0.00000E+000	5.03200E-001	1.01232E-003	4	..........a	-327.66
	210	42.2	5.13176E-001	2.25913E-010	0.00000E+000	5.13200E-001	1.01652E-003	4	..........a	-327.66
	211	42.4	5.23132E-001	2.31759E-010	0.00000E+000	5.23200E-001	1.02802E-003	4	..........a	-327.66
	212	42.6	5.33191E-001	2.36050E-010	0.00000E+000	5.33200E-001	9.84822E-004	4	..........a	-327.66
	213	42.8	5.43193E-001	2.41241E-010	0.00000E+000	5.43200E-001	9.99422E-004	4	..........a	-327.66
	214	43	5.53150E-001	2.46848E-010	0.00000E+000	5.53200E-001	9.89322E-004	4	..........a	-327.66
	215	43.2	5.63113E-001	2.51195E-010	0.00000E+000	5.63200E-001	1.01502E-003	4	..........a	-327.66
	216	43.4	5.73124E-001	2.56472E-010	0.00000E+000	5.73200E-001	1.00062E-003	4	..........a	-327.66
	217	43.6	5.83126E-001	2.61597E-010	0.00000E+000	5.83200E-001	9.91622E-004	4	..........a	-327.66
	218	43.8	5.93114E-001	2.67399E-010	0.00000E+000	5.93200E-001	1.01612E-003	4	..........a	-327.66
	219	44	6.03171E-001	2.73896E-010	0.00000E+000	6.03200E-001	9.92722E-004	4	..........a	-327.66
	220	44.2	6.13146E-001	2.80188E-010	0.00000E+000	6.13200E-001	1.00942E-003	4	..........a	-327.66
	221	44.4	6.23192E-001	2.86817E-010	0.00000E+000	6.23200E-001	1.00272E-003	4	..........a	-327.66
	222	44.6	6.33066E-001	2.92844E-010	0.00000E+000	6.33200E-001	1.00932E-003	4	..........a	-327.66
	223	44.8	6.43057E-001	2.99989E-010	0.00000E+000	6.43200E-001	1.00132E-003	4	..........a	-327.66
	224	45	6.53080E-001	3.07218E-010	0.00000E+000	6.53200E-001	9.84322E-004	4	..........a	-327.66
	225	45.2	6.63203E-001	3.15147E-010	0.00000E+000	6.63200E-001	1.02082E-003	4	..........a	-327.66
	226	45.4	6.73084E-001	3.22747E-010	0.00000E+000	6.73200E-001	9.88122E-004	4	..........a	-327.66
	227	45.6	6.83107E-001	3.31946E-010	0.00000E+000	6.83200E-001	1.00672E-003	4	..........a	-327.66
	228	45.8	6.93086E-001	3.41234E-010	0.00000E+000	6.93200E-001	9.96722E-004	4	..........a	-327.66
	229	46	7.03154E-001	3.50516E-010	0.00000E+000	7.03200E-001	1.00152E-003	4	..........a	-327.66
	230	46.2	7.13119E-001	3.61474E-010	0.00000E+000	7.13200E-001	9.90022E-004	4	..........a	-327.66
	231	46.4	7.23027E-001	3.72284E-010	0.00000E+000	7.23200E-001	9.91522E-004	4	..........a	-327.66
	232	46.6	7.33131E-001	3.85588E-010	0.00000E+000	7.33200E-001	9.90522E-004	4	..........a	-327.66
	233	46.8	7.43203E-001	3.99580E-010	0.00000E+000	7.43200E-001	9.88822E-004	4	..........a	-327.66
	234	47	7.53102E-001	4.14110E-010	0.00000E+000	7.53200E-001	9.69522E-004	4	..........a	-327.66
	235	47.2	7.63158E-001	4.31235E-010	0.00000E+000	7.63200E-001	9.95022E-004	4	..........a	-327.66
	236	47.4	7.73107E-001	4.49404E-010	0.00000E+000	7.73200E-001	9.99222E-004	4	..........a	-327.66
	237	47.6	7.83244E-001	4.70169E-010	0.00000E+000	7.83200E-001	9.99222E-004	4	..........a	-327.66
	238	47.8	7.93095E-001	4.92286E-010	0.00000E+000	7.93200E-001	9.91822E-004	4	..........a	-327.66
	239	48	8.03113E-001	5.16803E-010	0.00000E+000	8.03200E-001	9.77222E-004	4	..........a	-327.66
CURVE2	TABLE
	Pt	T	Vf	Im	Vu	Sig	Ach	IERange	Over	Temp
	#	s	V vs. Ref.	A	V	V	V	#	bits	deg C
	240	48.2	7.89922E-001	3.47081E-010	0.00000E+000	7.90000E-001	1.00752E-003	4	..........a	-327.66
	241	48.4	7.79977E-001	2.66045E-010	0.00000E+000	7.80000E-001	9.89722E-004	4	..........a	-327.66
	242	48.6	7.69887E-001	2.06755E-010	0.00000E+000	7.70000E-001	9.77922E-004	4	..........a	-327.66
	243	48.8	7.59905E-001	1.61989E-010	0.00000E+000	7.60000E-001	9.81822E-004	4	..........a	-327.66
	244	49	7.49873E-001	1.29078E-010	0.00000E+000	7.50000E-001	9.99822E-004	4	..........a	-327.66
	245	49.2	7.40003E-001	9.88636E-011	0.00000E+000	7.40000E-001	9.88222E-004	4	..........a	-327.66
	246	49.4	7.29942E-001	7.62347E-011	0.00000E+000	7.30000E-001	1.00002E-003	4	..........a	-327.66
	247	49.6	7.19914E-001	5.69140E-011	0.00000E+000	7.20000E-001	1.00402E-003	4	..........a	-327.66
	248	49.8	7.09913E-001	3.93993E-011	0.00000E+000	7.10000E-001	1.02632E-003	4	..........a	-327.66
	249	50	6.99972E-001	2.79539E-011	0.00000E+000	7.00000E-001	1.00672E-003	4	..........a	-327.66
	250	50.2	6.89910E-001	1.15362E-011	0.00000E+000	6.90000E-001	9.84522E-004	4	..........a	-327.66
	251	50.4	6.79792E-001	-4.89220E-013	0.00000E+000	6.80000E-001	9.98322E-004	4	..........a	-327.66
	252	50.6	6.69919E-001	-9.30156E-012	0.00000E+000	6.70000E-001	9.88622E-004	4	..........a	-327.66
	253	50.8	6.60008E-001	-1.95930E-011	0.00000E+000	6.60000E-001	1.02502E-003	4	..........a	-327.66
	254	51	6.49935E-001	-2.85033E-011	0.00000E+000	6.50000E-001	9.93522E-004	4	..........a	-327.66
	255	51.2	6.39930E-001	-3.71526E-011	0.00000E+000	6.40000E-001	9.93222E-004	4	..........a	-327.66
	256	51.4	6.29911E-001	-4.16178E-011	0.00000E+000	6.30000E-001	9.83122E-004	4	..........a	-327.66
	257	51.6	6.19984E-001	-4.82901E-011	0.00000E+000	6.20000E-001	9.94522E-004	4	..........a	-327.66
	258	51.8	6.09983E-001	-5.40443E-011	0.00000E+000	6.10000E-001	1.00212E-003	4	..........a	-327.66
	259	52	5.99954E-001	-5.87255E-011	0.00000E+000	6.00000E-001	9.97422E-004	4	..........a	-327.66
	260	52.2	5.89919E-001	-6.49167E-011	0.00000E+000	5.90000E-001	9.90122E-004	4	..........a	-327.66
	261	52.4	5.80020E-001	-6.88198E-011	0.00000E+000	5.80000E-001	9.79322E-004	4	..........a	-327.66
	262	52.6	5.69964E-001	-7.19030E-011	0.00000E+000	5.70000E-001	9.71322E-004	4	..........a	-327.66
	263	52.8	5.59965E-001	-7.51731E-011	0.00000E+000	5.60000E-001	9.91322E-004	4	..........a	-327.66
	264	53	5.49930E-001	-7.88152E-011	0.00000E+000	5.50000E-001	9.72522E-004	4	..........a	-327.66
	265	53.2	5.40012E-001	-8.24384E-011	0.00000E+000	5.40000E-001	1.01932E-003	4	..........a	-327.66
	266	53.4	5.29988E-001	-8.48455E-011	0.00000E+000	5.30000E-001	1.00422E-003	4	..........a	-327.66
	267	53.6	5.19965E-001	-8.76656E-011	0.00000E+000	5.20000E-001	1.00992E-003	4	..........a	-327.66
	268	53.8	5.09924E-001	-9.06357E-011	0.00000E+000	5.10000E-001	9.90622E-004	4	..........a	-327.66
	269	54	5.00049E-001	-9.24218E-011	0.00000E+000	5.00000E-001	9.79422E-004	4	..........a	-327.66
	270	54.2	4.89941E-001	-9.67929E-011	0.00000E+000	4.90000E-001	1.00212E-003	4	..........a	-327.66
	271	54.4	4.79964E-001	-9.92780E-011	0.00000E+000	4.80000E-001	1.01152E-003	4	..........a	-327.66
	272	54.6	4.69968E-001	-1.00901E-010	0.00000E+000	4.70000E-001	1.00282E-003	4	..........a	-327.66
	273	54.8	4.60020E-001	-1.02363E-010	0.00000E+000	4.60000E-001	1.00482E-003	4	..........a	-327.66
	274	55	4.49977E-001	-1.04287E-010	0.00000E+000	4.50000E-001	1.00232E-003	4	..........a	-327.66
	275	55.2	4.39983E-001	-1.06134E-010	0.00000E+000	4.40000E-001	9.84822E-004	4	..........a	-327.66
	276	55.4	4.29918E-001	-1.09122E-010	0.00000E+000	4.30000E-001	9.86422E-004	4	..........a	-327.66
	277	55.6	4.20013E-001	-1.10924E-010	0.00000E+000	4.20000E-001	1.00442E-003	4	..........a	-327.66
	278	55.8	4.09911E-001	-1.13503E-010	0.00000E+000	4.10000E-001	9.68422E-004	4	..........a	-327.66
	279	56	4.00065E-001	-1.14773E-010	0.00000E+000	4.00000E-001	1.00622E-003	4	..........a	-327.66
	280	56.2	3.89975E-001	-1.16936E-010	0.00000E+000	3.90000E-001	9.98522E-004	4	..........a	-327.66
	281	56.4	3.80024E-001	-1.18569E-010	0.00000E+000	3.80000E-001	1.00212E-003	4	..........a	-327.66
	282	56.6	3.70009E-001	-1.20632E-010	0.00000E+000	3.70000E-001	1.02212E-003	4	..........a	-327.66
	283	56.8	3.59988E-001	-1.22519E-010	0.00000E+000	3.60000E-001	9.94922E-004	4	..........a	-327.66
	284	57	3.49937E-001	-1.24086E-010	0.00000E+000	3.50000E-001	1.01442E-003	4	..........a	-327.66
	285	57.2	3.40029E-001	-1.26560E-010	0.00000E+000	3.40000E-001	1.00422E-003	4	..........a	-327.66
	286	57.4	3.30009E-001	-1.27561E-010	0.00000E+000	3.30000E-001	1.00062E-003	4	..........a	-327.66
	287	57.6	3.19956E-001	-1.29007E-010	0.00000E+000	3.20000E-001	9.76122E-004	4	..........a	-327.66
	288	57.8	3.09968E-001	-1.30767E-010	0.00000E+000	3.10000E-001	9.84022E-004	4	..........a	-327.66
	289	58	3.00018E-001	-1.30851E-010	0.00000E+000	3.00000E-001	1.00402E-003	4	..........a	-327.66
	290	58.2	2.90000E-001	-1.32737E-010	0.00000E+000	2.90000E-001	1.00812E-003	4	..........a	-327.66
	291	58.4	2.79959E-001	-1.31825E-010	0.00000E+000	2.80000E-001	1.01492E-003	4	..........a	-327.66
	292	58.6	2.69999E-001	-1.33437E-010	0.00000E+000	2.70000E-001	9.89222E-004	4	..........a	-327.66
	293	58.8	2.60013E-001	-1.33009E-010	0.00000E+000	2.60000E-001	1.02472E-003	4	..........a	-327.66
	294	59	2.50016E-001	-1.33458E-010	0.00000E+000	2.50000E-001	9.93422E-004	4	..........a	-327.66
	295	59.2	2.39924E-001	-1.33827E-010	0.00000E+000	2.40000E-001	1.01642E-003	4	..........a	-327.66
	296	59.4	2.29929E-001	-1.31437E-010	0.00000E+000	2.30000E-001	9.93422E-004	4	..........a	-327.66
	297	59.6	2.20012E-001	-1.32712E-010	0.00000E+000	2.20000E-001	1.01942E-003	4	..........a	-327.66
	298	59.8	2.09981E-001	-1.30512E-010	0.00000E+000	2.10000E-001	9.87222E-004	4	..........a	-327.66
	299	60	1.99965E-001	-1.31899E-010	0.00000E+000	2.00000E-001	9.83822E-004	4	..........a	-327.66
	300	60.2	1.90013E-001	-1.30918E-010	0.00000E+000	1.90000E-001	9.97722E-004	4	..........a	-327.66
	301	60.4	1.80024E-001	-1.30100E-010	0.00000E+000	1.80000E-001	1.00532E-003	4	..........a	-327.66
	302	60.6	1.70101E-001	-1.29137E-010	0.00000E+000	1.70000E-001	9.97622E-004	4	..........a	-327.66
	303	60.8	1.60024E-001	-1.27964E-010	0.00000E+000	1.60000E-001	1.01422E-003	4	..........a	-327.66
	304	61	1.49996E-001	-1.27559E-010	0.00000E+000	1.50000E-001	1.03272E-003	4	..........a	-327.66
	305	61.2	1.40080E-001	-1.26790E-010	0.00000E+000	1.40000E-001	1.00122E-003	4	..........a	-327.66
	306	61.4	1.30047E-001	-1.27287E-010	0.00000E+000	1.30000E-001	9.81122E-004	4	..........a	-327.66
	307	61.6	1.20030E-001	-1.26139E-010	0.00000E+000	1.20000E-001	1.00362E-003	4	..........a	-327.66
	308	61.8	1.10010E-001	-1.26868E-010	0.00000E+000	1.10000E-001	9.91722E-004	4	..........a	-327.66
	309	62	1.00008E-001	-1.26565E-010	0.00000E+000	1.00000E-001	1.00942E-003	4	..........a	-327.66
	310	62.2	9.01539E-002	-1.27120E-010	0.00000E+000	9.00000E-002	9.87922E-004	4	..........a	-327.66
	311	62.4	7.99835E-002	-1.28326E-010	0.00000E+000	8.00000E-002	1.00142E-003	4	..........a	-327.66
	312	62.6	6.99321E-002	-1.27202E-010	0.00000E+000	7.00000E-002	1.00452E-003	4	..........a	-327.66
	313	62.8	6.00437E-002	-1.28917E-010	0.00000E+000	6.00000E-002	1.00872E-003	4	..........a	-327.66
	314	63	5.00523E-002	-1.28300E-010	0.00000E+000	5.00000E-002	9.93222E-004	4	..........a	-327.66
	315	63.2	3.99413E-002	-1.31854E-010	0.00000E+000	4.00000E-002	9.86422E-004	4	..........a	-327.66
	316	63.4	3.00042E-002	-1.30408E-010	0.00000E+000	3.00000E-002	1.02552E-003	4	..........a	-327.66
	317	63.6	2.00478E-002	-1.34418E-010	0.00000E+000	2.00000E-002	9.99422E-004	4	..........a	-327.66
	318	63.8	1.00757E-002	-1.36231E-010	0.00000E+000	1.00000E-002	1.00572E-003	4	..........a	-327.66
	319	64	-8.00592E-005	-1.38542E-010	0.00000E+000	7.45058E-009	9.94622E-004	4	..........a	-327.66
	320	64.2	-1.00578E-002	-1.41354E-010	0.00000E+000	-1.00000E-002	9.96922E-004	4	..........a	-327.66
	321	64.4	-1.99682E-002	-1.44288E-010	0.00000E+000	-2.00000E-002	1.00302E-003	4	..........a	-327.66
	322	64.6	-2.99720E-002	-1.47448E-010	0.00000E+000	-3.00000E-002	9.84922E-004	4	..........a	-327.66
	323	64.8	-3.99697E-002	-1.50835E-010	0.00000E+000	-4.00000E-002	1.01482E-003	4	..........a	-327.66
	324	65	-4.99957E-002	-1.53508E-010	0.00000E+000	-5.00000E-002	1.00982E-003	4	..........a	-327.66
	325	65.2	-5.99594E-002	-1.58781E-010	0.00000E+000	-6.00000E-002	1.00682E-003	4	..........a	-327.66
	326	65.4	-6.99685E-002	-1.63152E-010	0.00000E+000	-7.00000E-002	9.92022E-004	4	..........a	-327.66
	327	65.6	-7.99584E-002	-1.66499E-010	0.00000E+000	-8.00000E-002	9.91822E-004	4	..........a	-327.66
	328	65.8	-8.99752E-002	-1.71285E-010	0.00000E+000	-9.00000E-002	1.00042E-003	4	..........a	-327.66
	329	66	-9.99571E-002	-1.76496E-010	0.00000E+000	-1.00000E-001	1.02572E-003	4	..........a	-327.66
	330	66.2	-1.09922E-001	-1.81781E-010	0.00000E+000	-1.10000E-001	9.92322E-004	4	..........a	-327.66
	331	66.4	-1.19999E-001	-1.87352E-010	0.00000E+000	-1.20000E-001	1.01792E-003	4	..........a	-327.66
	332	66.6	-1.30032E-001	-1.93755E-010	0.00000E+000	-1.30000E-001	1.00812E-003	4	..........a	-327.66
	333	66.8	-1.39978E-001	-1.99876E-010	0.00000E+000	-1.40000E-001	1.00662E-003	4	..........a	-327.66
	334	67	-1.50021E-001	-2.06577E-010	0.00000E+000	-1.50000E-001	9.89322E-004	4	..........a	-327.66
	335	67.2	-1.60030E-001	-2.14286E-010	0.00000E+000	-1.60000E-001	1.00392E-003	4	..........a	-327.66
	336	67.4	-1.69986E-001	-2.21847E-010	0.00000E+000	-1.70000E-001	1.01972E-003	4	..........a	-327.66
	337	67.6	-1.79951E-001	-2.29936E-010	0.00000E+000	-1.80000E-001	1.01812E-003	4	..........a	-327.66
	338	67.8	-1.90004E-001	-2.38321E-010	0.00000E+000	-1.90000E-001	9.80722E-004	4	..........a	-327.66
	339	68	-1.99951E-001	-2.47875E-010	0.00000E+000	-2.00000E-001	1.00852E-003	4	..........a	-327.66
	340	68.2	-2.09965E-001	-2.59694E-010	0.00000E+000	-2.10000E-001	9.86622E-004	4	..........a	-327.66
	341	68.4	-2.19913E-001	-2.68158E-010	0.00000E+000	-2.20000E-001	1.02592E-003	4	..........a	-327.66
	342	68.6	-2.29933E-001	-2.85889E-010	0.00000E+000	-2.30000E-001	1.01252E-003	4	..........a	-327.66
	343	68.8	-2.39878E-001	-2.94672E-010	0.00000E+000	-2.40000E-001	1.00682E-003	4	..........a	-327.66
	344	69	-2.49906E-001	-3.08474E-010	0.00000E+000	-2.50000E-001	9.89122E-004	4	..........a	-327.66
	345	69.2	-2.59859E-001	-3.20636E-010	0.00000E+000	-2.60000E-001	9.89622E-004	4	..........a	-327.66
	346	69.4	-2.69916E-001	-3.38276E-010	0.00000E+000	-2.70000E-001	1.00702E-003	4	..........a	-327.66
	347	69.6	-2.79874E-001	-3.53452E-010	0.00000E+000	-2.80000E-001	9.93122E-004	4	..........a	-327.66
	348	69.8	-2.89926E-001	-3.71404E-010	0.00000E+000	-2.90000E-001	1.00112E-003	4	..........a	-327.66
	349	70	-2.99859E-001	-3.86916E-010	0.00000E+000	-3.00000E-001	1.00862E-003	4	..........a	-327.66
	350	70.2	-3.09891E-001	-4.08647E-010	0.00000E+000	-3.10000E-001	9.79022E-004	4	..........a	-327.66
	351	70.4	-3.19874E-001	-4.27653E-010	0.00000E+000	-3.20000E-001	9.96322E-004	4	..........a	-327.66
	352	70.6	-3.29937E-001	-4.48594E-010	0.00000E+000	-3.30000E-001	9.98622E-004	4	..........a	-327.66
	353	70.8	-3.39877E-001	-4.68632E-010	0.00000E+000	-3.40000E-001	1.00942E-003	4	..........a	-327.66
[...]
	921	184.4	-4.19822E-001	-8.11487E-010	0.00000E+000	-4.20000E-001	9.91122E-004	4	..........a	-327.66
	922	184.6	-4.29851E-001	-8.45295E-010	0.00000E+000	-4.30000E-001	1.00042E-003	4	..........a	-327.66
	923	184.8	-4.39830E-001	-8.70486E-010	0.00000E+000	-4.40000E-001	1.00112E-003	4	..........a	-327.66
	924	185	-4.49856E-001	-9.10966E-010	0.00000E+000	-4.50000E-001	9.98622E-004	4	..........a	-327.66
	925	185.2	-4.59846E-001	-9.47363E-010	0.00000E+000	-4.60000E-001	1.00022E-003	4	..........a	-327.66
	926	185.4	-4.69874E-001	-9.83739E-010	0.00000E+000	-4.70000E-001	9.77722E-004	4	..........a	-327.66
	927	185.6	-4.79870E-001	-1.02338E-009	0.00000E+000	-4.80000E-001	1.00882E-003	4	..........a	-327.66
	928	185.8	-4.89862E-001	-1.06331E-009	0.00000E+000	-4.90000E-001	1.00352E-003	4	..........a	-327.66
	929	186	-4.99883E-001	-1.10463E-009	0.00000E+000	-5.00000E-001	9.87322E-004	4	..........a	-327.66
	930	186.2	-5.09856E-001	-1.15009E-009	0.00000E+000	-5.10000E-001	1.00772E-003	4	..........a	-327.66
	931	186.4	-5.19869E-001	-1.19780E-009	0.00000E+000	-5.20000E-001	1.03212E-003	4	..........a	-327.66
	932	186.6	-5.29899E-001	-1.24828E-009	0.00000E+000	-5.30000E-001	1.00472E-003	4	..........a	-327.66
	933	186.8	-5.39917E-001	-1.30603E-009	0.00000E+000	-5.40000E-001	9.87422E-004	4	..........a	-327.66
	934	187	-5.49929E-001	-1.36304E-009	0.00000E+000	-5.50000E-001	9.81422E-004	4	..........a	-327.66
	935	187.2	-5.59912E-001	-1.42739E-009	0.00000E+000	-5.60000E-001	1.01242E-003	4	..........a	-327.66
	936	187.4	-5.69908E-001	-1.49593E-009	0.00000E+000	-5.70000E-001	1.00212E-003	4	..........a	-327.66
	937	187.6	-5.79865E-001	-1.57023E-009	0.00000E+000	-5.80000E-001	9.82722E-004	4	..........a	-327.66
	938	187.8	-5.89872E-001	-1.65073E-009	0.00000E+000	-5.90000E-001	9.82122E-004	4	..........a	-327.66
	939	188	-5.99845E-001	-1.73899E-009	0.00000E+000	-6.00000E-001	1.00502E-003	4	..........a	-327.66
	940	188.2	-5.89896E-001	-1.45649E-009	0.00000E+000	-5.90000E-001	9.80822E-004	4	..........a	-327.66
	941	188.4	-5.79871E-001	-1.26704E-009	0.00000E+000	-5.80000E-001	9.95522E-004	4	..........a	-327.66
	942	188.6	-5.69854E-001	-1.12663E-009	0.00000E+000	-5.70000E-001	1.00402E-003	4	..........a	-327.66
	943	188.8	-5.59867E-001	-1.01598E-009	0.00000E+000	-5.60000E-001	1.00142E-003	4	..........a	-327.66
	944	189	-5.49897E-001	-9.23121E-010	0.00000E+000	-5.50000E-001	9.84522E-004	4	..........a	-327.66
	945	189.2	-5.39850E-001	-8.42170E-010	0.00000E+000	-5.40000E-001	9.78422E-004	4	..........a	-327.66
	946	189.4	-5.29877E-001	-7.71956E-010	0.00000E+000	-5.30000E-001	1.01612E-003	4	..........a	-327.66
	947	189.6	-5.19898E-001	-7.08834E-010	0.00000E+000	-5.20000E-001	9.84022E-004	4	..........a	-327.66
	948	189.8	-5.09863E-001	-6.51395E-010	0.00000E+000	-5.10000E-001	9.75322E-004	4	..........a	-327.66
	949	190	-4.99905E-001	-5.97697E-010	0.00000E+000	-5.00000E-001	9.88222E-004	4	..........a	-327.66
	950	190.2	-4.89845E-001	-5.50232E-010	0.00000E+000	-4.90000E-001	1.00642E-003	4	..........a	-327.66
	951	190.4	-4.79869E-001	-5.04723E-010	0.00000E+000	-4.80000E-001	9.79822E-004	4	..........a	-327.66
	952	190.6	-4.69863E-001	-4.61417E-010	0.00000E+000	-4.70000E-001	9.83222E-004	4	..........a	-327.66
	953	190.8	-4.59853E-001	-4.20270E-010	0.00000E+000	-4.60000E-001	1.01562E-003	4	..........a	-327.66
	954	191	-4.49889E-001	-3.84514E-010	0.00000E+000	-4.50000E-001	9.85222E-004	4	..........a	-327.66
	955	191.2	-4.39847E-001	-3.46747E-010	0.00000E+000	-4.40000E-001	1.00932E-003	4	..........a	-327.66
	956	191.4	-4.29864E-001	-3.14772E-010	0.00000E+000	-4.30000E-001	9.97022E-004	4	..........a	-327.66
	957	191.6	-4.19845E-001	-2.83566E-010	0.00000E+000	-4.20000E-001	9.99522E-004	4	..........a	-327.66
	958	191.8	-4.09947E-001	-2.49184E-010	0.00000E+000	-4.10000E-001	9.95022E-004	4	..........a	-327.66
	959	192	-3.99909E-001	-2.19722E-010	0.00000E+000	-4.00000E-001	1.00262E-003	4	..........a	-327.66
	960	192.2	-3.89907E-001	-1.91266E-010	0.00000E+000	-3.90000E-001	1.01002E-003	4	..........a	-327.66
	961	192.4	-3.79927E-001	-1.64371E-010	0.00000E+000	-3.80000E-001	1.00402E-003	4	..........a	-327.66
	962	192.6	-3.69963E-001	-1.38026E-010	0.00000E+000	-3.70000E-001	9.82522E-004	4	..........a	-327.66
	963	192.8	-3.59935E-001	-1.13265E-010	0.00000E+000	-3.60000E-001	1.00022E-003	4	..........a	-327.66
	964	193	-3.49907E-001	-8.91946E-011	0.00000E+000	-3.50000E-001	9.89022E-004	4	..........a	-327.66
	965	193.2	-3.39946E-001	-6.68738E-011	0.00000E+000	-3.40000E-001	1.02562E-003	4	..........a	-327.66
	966	193.4	-3.29950E-001	-4.49159E-011	0.00000E+000	-3.30000E-001	9.84022E-004	4	..........a	-327.66
	967	193.6	-3.19962E-001	-2.61092E-011	0.00000E+000	-3.20000E-001	9.98822E-004	4	..........a	-327.66
	968	193.8	-3.09916E-001	-5.93743E-012	0.00000E+000	-3.10000E-001	9.83922E-004	4	..........a	-327.66
	969	194	-2.99908E-001	1.37753E-011	0.00000E+000	-3.00000E-001	9.96522E-004	4	..........a	-327.66
	970	194.2	-2.89967E-001	3.06470E-011	0.00000E+000	-2.90000E-001	9.92522E-004	4	..........a	-327.66
	971	194.4	-2.79903E-001	4.74186E-011	0.00000E+000	-2.80000E-001	1.00062E-003	4	..........a	-327.66
	972	194.6	-2.69910E-001	6.21782E-011	0.00000E+000	-2.70000E-001	9.87822E-004	4	..........a	-327.66
	973	194.8	-2.59900E-001	7.70928E-011	0.00000E+000	-2.60000E-001	9.90122E-004	4	..........a	-327.66
	974	195	-2.49929E-001	8.93972E-011	0.00000E+000	-2.50000E-001	9.87922E-004	4	..........a	-327.66
	975	195.2	-2.39944E-001	1.01587E-010	0.00000E+000	-2.40000E-001	9.95122E-004	4	..........a	-327.66
	976	195.4	-2.29978E-001	1.12968E-010	0.00000E+000	-2.30000E-001	9.95922E-004	4	..........a	-327.66
	977	195.6	-2.19894E-001	1.22390E-010	0.00000E+000	-2.20000E-001	1.00962E-003	4	..........a	-327.66
	978	195.8	-2.09987E-001	1.31255E-010	0.00000E+000	-2.10000E-001	1.00022E-003	4	..........a	-327.66
	979	196	-1.99949E-001	1.37029E-010	0.00000E+000	-2.00000E-001	9.93422E-004	4	..........a	-327.66
	980	196.2	-1.90102E-001	1.43694E-010	0.00000E+000	-1.90000E-001	9.84022E-004	4	..........a	-327.66
	981	196.4	-1.79964E-001	1.48989E-010	0.00000E+000	-1.80000E-001	1.00012E-003	4	..........a	-327.66
	982	196.6	-1.69998E-001	1.55767E-010	0.00000E+000	-1.70000E-001	1.01592E-003	4	..........a	-327.66
	983	196.8	-1.59966E-001	1.53949E-010	0.00000E+000	-1.60000E-001	1.00172E-003	4	..........a	-327.66
	984	197	-1.49961E-001	1.55842E-010	0.00000E+000	-1.50000E-001	9.79422E-004	4	..........a	-327.66
	985	197.2	-1.39854E-001	1.60949E-010	0.00000E+000	-1.40000E-001	9.98122E-004	4	..........a	-327.66
	986	197.4	-1.30062E-001	1.61529E-010	0.00000E+000	-1.30000E-001	9.84022E-004	4	..........a	-327.66
	987	197.6	-1.19929E-001	1.61244E-010	0.00000E+000	-1.20000E-001	1.01292E-003	4	..........a	-327.66
	988	197.8	-1.09976E-001	1.58638E-010	0.00000E+000	-1.10000E-001	9.82422E-004	4	..........a	-327.66
	989	198	-9.99649E-002	1.59264E-010	0.00000E+000	-1.00000E-001	1.00522E-003	4	..........a	-327.66
	990	198.2	-8.99551E-002	1.62403E-010	0.00000E+000	-9.00000E-002	1.01082E-003	4	..........a	-327.66
	991	198.4	-7.99236E-002	1.61252E-010	0.00000E+000	-8.00000E-002	9.95922E-004	4	..........a	-327.66
	992	198.6	-6.99494E-002	1.58412E-010	0.00000E+000	-7.00000E-002	9.78122E-004	4	..........a	-327.66
	993	198.8	-5.99529E-002	1.56876E-010	0.00000E+000	-6.00000E-002	9.92122E-004	4	..........a	-327.66
	994	199	-4.99784E-002	1.56145E-010	0.00000E+000	-5.00000E-002	9.75622E-004	4	..........a	-327.66
	995	199.2	-3.99275E-002	1.59857E-010	0.00000E+000	-4.00000E-002	9.99222E-004	4	..........a	-327.66
	996	199.4	-3.00206E-002	1.59792E-010	0.00000E+000	-3.00000E-002	9.81622E-004	4	..........a	-327.66
	997	199.6	-1.99284E-002	1.54364E-010	0.00000E+000	-2.00000E-002	9.96422E-004	4	..........a	-327.66
	998	199.8	-9.96326E-003	1.54199E-010	0.00000E+000	-1.00000E-002	9.69922E-004	4	..........a	-327.66
	999	200	8.27409E-005	1.58523E-010	0.00000E+000	7.45058E-009	1.00162E-003	4	..........a	-327.66
	1000	200.2	1.00714E-002	1.58353E-010	0.00000E+000	1.00000E-002	9.90322E-004	4	..........a	-327.66
	1001	200.4	2.00980E-002	1.56322E-010	0.00000E+000	2.00000E-002	9.81922E-004	4	..........a	-327.66
	1002	200.6	3.00424E-002	1.51707E-010	0.00000E+000	3.00000E-002	1.00272E-003	4	..........a	-327.66
	1003	200.8	3.97901E-002	1.57525E-010	0.00000E+000	4.00000E-002	9.96322E-004	4	..........a	-327.66
	1004	201	5.00204E-002	1.52882E-010	0.00000E+000	5.00000E-002	1.00202E-003	4	..........a	-327.66
	1005	201.2	6.00854E-002	1.54389E-010	0.00000E+000	6.00000E-002	9.92622E-004	4	..........a	-327.66
	1006	201.4	7.00224E-002	1.51713E-010	0.00000E+000	7.00000E-002	1.00432E-003	4	..........a	-327.66
	1007	201.6	8.00647E-002	1.51389E-010	0.00000E+000	8.00000E-002	1.01812E-003	4	..........a	-327.66
	1008	201.8	9.00213E-002	1.58637E-010	0.00000E+000	9.00000E-002	1.00342E-003	4	..........a	-327.66
	1009	202	1.00050E-001	1.55834E-010	0.00000E+000	1.00000E-001	1.00402E-003	4	..........a	-327.66
	1010	202.2	1.10028E-001	1.58273E-010	0.00000E+000	1.10000E-001	9.84322E-004	4	..........a	-327.66
	1011	202.4	1.20060E-001	1.54140E-010	0.00000E+000	1.20000E-001	9.93922E-004	4	..........a	-327.66
	1012	202.6	1.30083E-001	1.55527E-010	0.00000E+000	1.30000E-001	1.00292E-003	4	..........a	-327.66
	1013	202.8	1.40089E-001	1.61556E-010	0.00000E+000	1.40000E-001	1.01462E-003	4	..........a	-327.66
	1014	203	1.49979E-001	1.62387E-010	0.00000E+000	1.50000E-001	9.99222E-004	4	..........a	-327.66
	1015	203.2	1.60010E-001	1.61769E-010	0.00000E+000	1.60000E-001	1.01932E-003	4	..........a	-327.66
	1016	203.4	1.70119E-001	1.65338E-010	0.00000E+000	1.70000E-001	9.88422E-004	4	..........a	-327.66
	1017	203.6	1.80084E-001	1.69690E-010	0.00000E+000	1.80000E-001	9.88522E-004	4	..........a	-327.66
	1018	203.8	1.90063E-001	1.73154E-010	0.00000E+000	1.90000E-001	9.99922E-004	4	..........a	-327.66
	1019	204	2.00051E-001	1.76111E-010	0.00000E+000	2.00000E-001	9.96922E-004	4	..........a	-327.66
	1020	204.2	2.09965E-001	1.83246E-010	0.00000E+000	2.10000E-001	9.90222E-004	4	..........a	-327.66
	1021	204.4	2.19725E-001	1.84000E-010	0.00000E+000	2.20000E-001	1.01202E-003	4	..........a	-327.66
	1022	204.6	2.29902E-001	1.91178E-010	0.00000E+000	2.30000E-001	1.00332E-003	4	..........a	-327.66
	1023	204.8	2.40005E-001	1.90662E-010	0.00000E+000	2.40000E-001	9.99722E-004	4	..........a	-327.66
	1024	205	2.50029E-001	1.94396E-010	0.00000E+000	2.50000E-001	1.00512E-003	4	..........a	-327.66
	1025	205.2	2.60038E-001	1.98293E-010	0.00000E+000	2.60000E-001	1.02092E-003	4	..........a	-327.66
	1026	205.4	2.69957E-001	2.01517E-010	0.00000E+000	2.70000E-001	9.74722E-004	4	..........a	-327.66
	1027	205.6	2.80005E-001	2.04422E-010	0.00000E+000	2.80000E-001	1.01942E-003	4	..........a	-327.66
	1028	205.8	2.90008E-001	2.07664E-010	0.00000E+000	2.90000E-001	9.82322E-004	4	..........a	-327.66
	1029	206	3.00043E-001	2.10584E-010	0.00000E+000	3.00000E-001	9.93622E-004	4	..........a	-327.66
	1030	206.2	3.09989E-001	2.12191E-010	0.00000E+000	3.10000E-001	1.01672E-003	4	..........a	-327.66
	1031	206.4	3.20014E-001	2.13527E-010	0.00000E+000	3.20000E-001	9.97822E-004	4	..........a	-327.66
	1032	206.6	3.30025E-001	2.14890E-010	0.00000E+000	3.30000E-001	9.76322E-004	4	..........a	-327.66
	1033	206.8	3.40057E-001	2.16345E-010	0.00000E+000	3.40000E-001	9.86422E-004	4	..........a	-327.66
	1034	207	3.50001E-001	2.16735E-010	0.00000E+000	3.50000E-001	9.72122E-004	4	..........a	-327.66
	1035	207.2	3.60011E-001	2.17090E-010	0.00000E+000	3.60000E-001	1.00802E-003	4	..........a	-327.66
	1036	207.4	3.70008E-001	2.17647E-010	0.00000E+000	3.70000E-001	9.82122E-004	4	..........a	-327.66
	1037	207.6	3.80037E-001	2.17956E-010	0.00000E+000	3.80000E-001	9.98022E-004	4	..........a	-327.66
	1038	207.8	3.90002E-001	2.17367E-010	0.00000E+000	3.90000E-001	9.95822E-004	4	..........a	-327.66
	1039	208	4.00039E-001	2.17014E-010	0.00000E+000	4.00000E-001	1.00322E-003	4	..........a	-327.66
	1040	208.2	4.09967E-001	2.16486E-010	0.00000E+000	4.10000E-001	9.91822E-004	4	..........a	-327.66
	1041	208.4	4.20022E-001	2.16664E-010	0.00000E+000	4.20000E-001	9.84722E-004	4	..........a	-327.66
	1042	208.6	4.29973E-001	2.16713E-010	0.00000E+000	4.30000E-001	9.79222E-004	4	..........a	-327.66
	1043	208.8	4.39984E-001	2.16276E-010	0.00000E+000	4.40000E-001	1.00732E-003	4	..........a	-327.66
	1044	209	4.49405E-001	2.15622E-010	0.00000E+000	4.50000E-001	9.75822E-004	4	..........a	-327.66
	1045	209.2	4.60026E-001	2.16450E-010	0.00000E+000	4.60000E-001	1.01342E-003	4	..........a	-327.66
	1046	209.4	4.69985E-001	2.16342E-010	0.00000E+000	4.70000E-001	1.00722E-003	4	..........a	-327.66
	1047	209.6	4.79991E-001	2.15828E-010	0.00000E+000	4.80000E-001	1.00602E-003	4	..........a	-327.66
	1048	209.8	4.89976E-001	2.15729E-010	0.00000E+000	4.90000E-001	9.92622E-004	4	..........a	-327.66
	1049	210	5.00050E-001	2.16998E-010	0.00000E+000	5.00000E-001	9.99522E-004	4	..........a	-327.66
	1050	210.2	5.09965E-001	2.17370E-010	0.00000E+000	5.10000E-001	1.00552E-003	4	..........a	-327.66
	1051	210.4	5.19988E-001	2.17420E-010	0.00000E+000	5.20000E-001	9.94422E-004	4	..........a	-327.66
	1052	210.6	5.30011E-001	2.18095E-010	0.00000E+000	5.30000E-001	9.80022E-004	4	..........a	-327.66
	1053	210.8	5.40027E-001	2.19380E-010	0.00000E+000	5.40000E-001	9.90222E-004	4	..........a	-327.66
	1054	211	5.49983E-001	2.20437E-010	0.00000E+000	5.50000E-001	9.79622E-004	4	..........a	-327.66
	1055	211.2	5.59983E-001	2.22007E-010	0.00000E+000	5.60000E-001	1.01492E-003	4	..........a	-327.66
	1056	211.4	5.69981E-001	2.24510E-010	0.00000E+000	5.70000E-001	9.94122E-004	4	..........a	-327.66
	1057	211.6	5.79976E-001	2.26978E-010	0.00000E+000	5.80000E-001	1.00302E-003	4	..........a	-327.66
	1058	211.8	5.89964E-001	2.31231E-010	0.00000E+000	5.90000E-001	1.02772E-003	4	..........a	-327.66
	1059	212	5.99894E-001	2.35499E-010	0.00000E+000	6.00000E-001	1.00112E-003	4	..........a	-327.66
	1060	212.2	6.09967E-001	2.39596E-010	0.00000E+000	6.10000E-001	9.85822E-004	4	..........a	-327.66
	1061	212.4	6.19981E-001	2.44105E-010	0.00000E+000	6.20000E-001	9.84622E-004	4	..........a	-327.66
	1062	212.6	6.29932E-001	2.49414E-010	0.00000E+000	6.30000E-001	1.00972E-003	4	..........a	-327.66
	1063	212.8	6.39902E-001	2.52904E-010	0.00000E+000	6.40000E-001	9.93022E-004	4	..........a	-327.66
	1064	213	6.49908E-001	2.59029E-010	0.00000E+000	6.50000E-001	9.99922E-004	4	..........a	-327.66
	1065	213.2	6.59944E-001	2.65241E-010	0.00000E+000	6.60000E-001	9.96622E-004	4	..........a	-327.66
	1066	213.4	6.69874E-001	2.71763E-010	0.00000E+000	6.70000E-001	9.93222E-004	4	..........a	-327.66
	1067	213.6	6.79970E-001	2.79869E-010	0.00000E+000	6.80000E-001	9.97522E-004	4	..........a	-327.66
	1068	213.8	6.89893E-001	2.87800E-010	0.00000E+000	6.90000E-001	9.97322E-004	4	..........a	-327.66
	1069	214	6.99987E-001	2.96938E-010	0.00000E+000	7.00000E-001	1.00972E-003	4	..........a	-327.66
	1070	214.2	7.09866E-001	3.06964E-010	0.00000E+000	7.10000E-001	9.79822E-004	4	..........a	-327.66
	1071	214.4	7.19902E-001	3.18284E-010	0.00000E+000	7.20000E-001	1.02282E-003	4	..........a	-327.66
	1072	214.6	7.29978E-001	3.31183E-010	0.00000E+000	7.30000E-001	9.87922E-004	4	..........a	-327.66
	1073	214.8	7.40004E-001	3.45222E-010	0.00000E+000	7.40000E-001	9.89522E-004	4	..........a	-327.66
	1074	215	7.49937E-001	3.60853E-010	0.00000E+000	7.50000E-001	1.02222E-003	4	..........a	-327.66
	1075	215.2	7.59860E-001	3.77406E-010	0.00000E+000	7.60000E-001	9.92622E-004	4	..........a	-327.66
	1076	215.4	7.69895E-001	3.96585E-010	0.00000E+000	7.70000E-001	9.96822E-004	4	..........a	-327.66
	1077	215.6	7.79946E-001	4.18731E-010	0.00000E+000	7.80000E-001	9.86422E-004	4	..........a	-327.66
	1078	215.8	7.89925E-001	4.42509E-010	0.00000E+000	7.90000E-001	1.00552E-003	4	..........a	-327.66
	1079	216	7.99960E-001	4.70204E-010	0.00000E+000	8.00000E-001	1.00612E-003	4	..........a	-327.66
CURVE5	TABLE
	Pt	T	Vf	Im	Vu	Sig	Ach	IERange	Over	Temp
	#	s	V vs. Ref.	A	V	V	V	#	bits	deg C
	1080	216.2	7.89833E-001	3.21327E-010	0.00000E+000	7.90000E-001	9.90522E-004	4	..........a	-327.66
	1081	216.4	7.79991E-001	2.33224E-010	0.00000E+000	7.80000E-001	1.01692E-003	4	..........a	-327.66
	1082	216.6	7.69919E-001	1.72165E-010	0.00000E+000	7.70000E-001	9.92022E-004	4	..........a	-327.66
	1083	216.8	7.59961E-001	1.28684E-010	0.00000E+000	7.60000E-001	9.88922E-004	4	..........a	-327.66
	1084	217	7.49930E-001	9.19603E-011	0.00000E+000	7.50000E-001	9.87522E-004	4	..........a	-327.66
	1085	217.2	7.39990E-001	6.52783E-011	0.00000E+000	7.40000E-001	1.00522E-003	4	..........a	-327.66
	1086	217.4	7.29954E-001	4.37375E-011	0.00000E+000	7.30000E-001	9.70122E-004	4	..........a	-327.66
	1087	217.6	7.19963E-001	2.60628E-011	0.00000E+000	7.20000E-001	1.00062E-003	4	..........a	-327.66
	1088	217.8	7.09903E-001	1.10802E-011	0.00000E+000	7.10000E-001	9.89722E-004	4	..........a	-327.66
	1089	218	6.99958E-001	-2.14728E-012	0.00000E+000	7.00000E-001	9.81922E-004	4	..........a	-327.66
	1090	218.2	6.89902E-001	-1.06116E-011	0.00000E+000	6.90000E-001	1.00082E-003	4	..........a	-327.66
	1091	218.4	6.79802E-001	-2.08080E-011	0.00000E+000	6.80000E-001	9.98522E-004	4	..........a	-327.66
	1092	218.6	6.69911E-001	-2.94633E-011	0.00000E+000	6.70000E-001	1.00292E-003	4	..........a	-327.66
	1093	218.8	6.60007E-001	-3.60336E-011	0.00000E+000	6.60000E-001	1.00532E-003	4	..........a	-327.66
	1094	219	6.49925E-001	-4.03588E-011	0.00000E+000	6.50000E-001	9.86022E-004	4	..........a	-327.66
	1095	219.2	6.39942E-001	-4.56110E-011	0.00000E+000	6.40000E-001	9.95922E-004	4	..........a	-327.66
	1096	219.4	6.29886E-001	-5.05581E-011	0.00000E+000	6.30000E-001	1.00212E-003	4	..........a	-327.66
	1097	219.6	6.19996E-001	-5.45043E-011	0.00000E+000	6.20000E-001	1.01472E-003	4	..........a	-327.66
	1098	219.8	6.09964E-001	-5.92095E-011	0.00000E+000	6.10000E-001	9.97822E-004	4	..........a	-327.66
	1099	220	5.99944E-001	-6.33396E-011	0.00000E+000	6.00000E-001	9.94622E-004	4	..........a	-327.66
	1100	220.2	5.89943E-001	-6.70948E-011	0.00000E+000	5.90000E-001	1.00072E-003	4	..........a	-327.66
	1101	220.4	5.80028E-001	-6.95769E-011	0.00000E+000	5.80000E-001	9.97022E-004	4	..........a	-327.66
	1102	220.6	5.69964E-001	-7.25620E-011	0.00000E+000	5.70000E-001	1.00382E-003	4	..........a	-327.66
	1103	220.8	5.59967E-001	-7.45521E-011	0.00000E+000	5.60000E-001	1.00122E-003	4	..........a	-327.66
	1104	221	5.49952E-001	-7.77812E-011	0.00000E+000	5.50000E-001	9.85522E-004	4	..........a	-327.66
	1105	221.2	5.40015E-001	-8.09753E-011	0.00000E+000	5.40000E-001	1.00892E-003	4	..........a	-327.66
	1106	221.4	5.29967E-001	-8.39524E-011	0.00000E+000	5.30000E-001	1.00492E-003	4	..........a	-327.66
	1107	221.6	5.19971E-001	-8.64575E-011	0.00000E+000	5.20000E-001	9.88122E-004	4	..........a	-327.66
	1108	221.8	5.09930E-001	-8.92726E-011	0.00000E+000	5.10000E-001	9.95622E-004	4	..........a	-327.66
	1109	222	5.00063E-001	-9.14527E-011	0.00000E+000	5.00000E-001	1.00812E-003	4	..........a	-327.66
	1110	222.2	4.89942E-001	-9.48048E-011	0.00000E+000	4.90000E-001	9.94122E-004	4	..........a	-327.66
	1111	222.4	4.79975E-001	-9.81470E-011	0.00000E+000	4.80000E-001	1.01452E-003	4	..........a	-327.66
	1112	222.6	4.69953E-001	-9.95890E-011	0.00000E+000	4.70000E-001	1.00952E-003	4	..........a	-327.66
	1113	222.8	4.60016E-001	-1.02334E-010	0.00000E+000	4.60000E-001	9.81522E-004	4	..........a	-327.66
	1114	223	4.49959E-001	-1.04793E-010	0.00000E+000	4.50000E-001	9.95222E-004	4	..........a	-327.66
	1115	223.2	4.39977E-001	-1.07392E-010	0.00000E+000	4.40000E-001	1.01232E-003	4	..........a	-327.66
	1116	223.4	4.29940E-001	-1.10488E-010	0.00000E+000	4.30000E-001	9.88022E-004	4	..........a	-327.66
	1117	223.6	4.20013E-001	-1.13138E-010	0.00000E+000	4.20000E-001	9.68322E-004	4	..........a	-327.66
	1118	223.8	4.09950E-001	-1.16279E-010	0.00000E+000	4.10000E-001	9.97222E-004	4	..........a	-327.66
	1119	224	4.00050E-001	-1.18483E-010	0.00000E+000	4.00000E-001	9.99322E-004	4	..........a	-327.66
	1120	224.2	3.89976E-001	-1.20733E-010	0.00000E+000	3.90000E-001	1.00082E-003	4	..........a	-327.66