File: data/raw/batch_data/20240321_ZA_GM0016_HL03_E07_CV50.DTA
EXPLAIN
TAG	CV
TITLE	LABEL	Cyclic Voltammetry	Test &Identifier
DATE	LABEL	3/21/2024	Date
TIME	LABEL	17:59:49	Time
NOTES	NOTES	1	&Notes...

PSTAT	PSTAT	REF600P-43058	Potentiostat
VINIT	POTEN	0.00000E+000	T	Initial &E (V)
VLIMIT1	POTEN	-6.00000E-001	F	Scan Limit &1 (V)
VLIMIT2	POTEN	8.00000E-001	F	Scan Limit &2 (V)
VFINAL	POTEN	0.00000E+000	T	Final &E (V)
SCANRATE	QUANT	4.99999E+001	&Scan Rate (mV/s)
STEPSIZE	QUANT	1.00000E+001	St&ep Size (mV)
CYCLES	IQUANT	4	C&ycles (#)
IMODE	SELECTOR	1	I/E Range &Mode
IRANGE	QUANT	1.00000E-005	&Max Current (mA)
AREA	QUANT	1.00000E+000	Electrode &Area (cm^2)
ELECTRODETYPE	SELECTOR	0	Electrode Type
STRIPPING	TOGGLE	F	Used for Stripping
POLARITY	TOGGLE	F	Signal Polarity
CONDIT	TWOPARAM	F	1.50000E+001	0.00000E+000	Conditionin&g	Time(s)	E(V)
DELAY	TWOPARAM	T	1.00000E+001	0.00000E+000	Init. De&lay	Time(s)	Stab.(mV/s)
EQDELAY	QUANT	1.00000E+001	Equil. &Time (s)
IRCOMP	SELECTOR	0	IRCom&p
PFCOR	QUANT	5.00000E+001	PF Corr. (ohm)
SAMPLINGMODE	SELECTOR	1	Sampling &Mode
OCVCURVE	TABLE	39
	Pt	T	Vf	Vm	Ach	Over	Temp
	#	s	V vs. Ref.	V	V	bits	deg C
	0	0.258333	2.93081E-001	2.93081E-001	2.36022E-004	..........a	-327.66
	1	0.516667	2.93085E-001	2.93257E-001	2.32889E-004	..........a	-327.66
	2	0.775	2.93108E-001	2.93578E-001	2.40556E-004	..........a	-327.66
	3	1.03333	2.93185E-001	2.93878E-001	2.27556E-004	..........a	-327.66
	4	1.29167	2.93342E-001	2.94281E-001	2.27222E-004	..........a	-327.66
	5	1.55	2.93584E-001	2.94687E-001	2.45756E-004	..........a	-327.66
	6	1.80833	2.93899E-001	2.95187E-001	2.44356E-004	..........a	-327.66
	7	2.06667	2.94269E-001	2.95446E-001	2.34422E-004	..........a	-327.66
	8	2.325	2.94667E-001	2.95862E-001	2.25356E-004	..........a	-327.66
	9	2.58333	2.95063E-001	2.96064E-001	2.18689E-004	..........a	-327.66
	10	2.84167	2.95441E-001	2.96922E-001	2.39422E-004	..........a	-327.66
	11	3.1	2.95829E-001	2.97276E-001	2.37556E-004	..........a	-327.66
	12	3.35833	2.96264E-001	2.97771E-001	2.43222E-004	..........a	-327.66
	13	3.61667	2.96746E-001	2.98380E-001	2.38689E-004	..........a	-327.66
	14	3.875	2.97249E-001	2.98597E-001	2.28156E-004	..........a	-327.66
	15	4.13333	2.97743E-001	2.99096E-001	2.39822E-004	..........a	-327.66
	16	4.39167	2.98205E-001	2.99498E-001	2.35956E-004	..........a	-327.66
	17	4.65	2.98639E-001	3.00036E-001	2.49489E-004	..........a	-327.66
	18	4.90833	2.99066E-001	3.00352E-001	2.33356E-004	..........a	-327.66
	19	5.16667	2.99499E-001	3.00858E-001	2.43022E-004	..........a	-327.66
	20	5.425	2.99937E-001	3.01426E-001	2.35756E-004	..........a	-327.66
	21	5.68333	3.00385E-001	3.01720E-001	2.42489E-004	..........a	-327.66
	22	5.94167	3.00840E-001	3.02144E-001	2.36689E-004	..........a	-327.66
	23	6.2	3.01286E-001	3.02603E-001	2.35822E-004	..........a	-327.66
	24	6.45833	3.01718E-001	3.03177E-001	2.36022E-004	..........a	-327.66
	25	6.71667	3.02153E-001	3.03432E-001	2.35756E-004	..........a	-327.66
	26	6.975	3.02594E-001	3.03871E-001	2.39222E-004	..........a	-327.66
	27	7.23333	3.03026E-001	3.04279E-001	2.44222E-004	..........a	-327.66
	28	7.49167	3.03443E-001	3.04811E-001	2.50289E-004	..........a	-327.66
	29	7.75	3.03858E-001	3.05106E-001	2.43022E-004	..........a	-327.66
	30	8.00833	3.04279E-001	3.05576E-001	2.51889E-004	..........a	-327.66
	31	8.26667	3.04700E-001	3.05955E-001	2.32156E-004	..........a	-327.66
	32	8.525	3.05117E-001	3.06444E-001	2.47089E-004	..........a	-327.66
	33	8.78333	3.05532E-001	3.06755E-001	2.35556E-004	..........a	-327.66
	34	9.04167	3.05946E-001	3.07214E-001	2.44489E-004	..........a	-327.66
	35	9.3	3.06358E-001	3.07622E-001	2.36222E-004	..........a	-327.66
	36	9.5583	3.06767E-001	3.08069E-001	2.43156E-004	..........a	-327.66
	37	9.8167	3.07178E-001	3.08402E-001	2.34622E-004	..........a	-327.66
	38	10.075	3.07591E-001	3.08826E-001	2.46622E-004	..........a	-327.66
EOC	QUANT	0.3075907	Open Circuit (V)
PSTATMODEL	IQUANT	7	Pstat Model
PSTATSECTION	LABEL	REF600P-43058	Pstat Section
PSTATSERIALNO	LABEL	43058	Pstat Serial Number
CTRLMODE	IQUANT	1	Control Mode
ELECTROMETER	IQUANT	0	RE=0 or CS=1
IESTAB	IQUANT	2	I/E Stability
CASPEED	IQUANT	4	Control Amp Speed
CONVENTION	IQUANT	1	Current Convention
ICHRANGE	IQUANT	2	Ich Range
ICHRANGEMODE	TOGGLE	F	Ich Auto Range
ICHOFFSETENABLE	TOGGLE	F	Ich Offset Enable
ICHOFFSET	QUANT	0	Ich Offset (V)
ICHFILTER	IQUANT	2	Ich Filter
VCHRANGE	IQUANT	2	Vch Range
VCHRANGEMODE	TOGGLE	F	Vch Auto Range
VCHOFFSETENABLE	TOGGLE	F	Vch Offset Enable
VCHOFFSET	QUANT	0	Vch Offset (V)
VCHFILTER	IQUANT	2	Vch Filter
ACHRANGE	IQUANT	2	Ach Range
ACHOFFSETENABLE	TOGGLE	F	Ach Offset Enable
ACHOFFSET	QUANT	0	Ach Offset (V)
ACHFILTER	IQUANT	1	Ach Filter
IERANGELOWERLIMIT	IQUANT	1	I/E Range Lower Limit
IERANGEMODE	TOGGLE	F	I/E AutoRange
IERANGE	IQUANT	4	I/E Range
POSFEEDENABLE	TOGGLE	F	Positive Feedback IR Comp
POSFEEDRESISTANCE	QUANT	0	Positive Feedback Resistance (ohm)
ACHSELECT	IQUANT	4	Ach Select
SENSECABLEID	IQUANT	7	Sense Cable ID
PWRCABLEID	IQUANT	7	Power Cable ID
DCCALDATE	LABEL	12/18/2023	DC Calibration Date
ACCALDATE	LABEL	12/18/2023	AC Calibration Date
THERMOSELECT	IQUANT	1	Thermo Select
FRAMEWORKVERSION	LABEL	7.8.4	Framework Version
INSTRUMENTVERSION	LABEL	4.42	Instrument Version
CURVE1	TABLE
	Pt	T	Vf	Im	Vu	Sig	Ach	IERange	Over	Temp
	#	s	V vs. Ref.	A	V	V	V	#	bits	deg C
	0	0.2	3.07502E-001	1.62684E-011	0.00000E+000	3.07600E-001	9.75122E-004	4	..........a	-327.66
	1	0.4	2.97599E-001	3.90814E-013	0.00000E+000	2.97600E-001	9.90422E-004	4	..........a	-327.66
	2	0.6	2.87561E-001	-4.67538E-012	0.00000E+000	2.87600E-001	9.92922E-004	4	..........a	-327.66
	3	0.8	2.77625E-001	-1.12056E-011	0.00000E+000	2.77600E-001	9.88922E-004	4	..........a	-327.66
	4	1	2.67576E-001	-1.71729E-011	0.00000E+000	2.67600E-001	9.64422E-004	4	..........a	-327.66
	5	1.2	2.57451E-001	-2.15770E-011	0.00000E+000	2.57600E-001	9.86922E-004	4	..........a	-327.66
	6	1.4	2.47597E-001	-2.38401E-011	0.00000E+000	2.47600E-001	9.99122E-004	4	..........a	-327.66
	7	1.6	2.37636E-001	-2.68432E-011	0.00000E+000	2.37600E-001	1.00542E-003	4	..........a	-327.66
	8	1.8	2.27612E-001	-3.18884E-011	0.00000E+000	2.27600E-001	9.77622E-004	4	..........a	-327.66
	9	2	2.17584E-001	-3.48655E-011	0.00000E+000	2.17600E-001	1.00372E-003	4	..........a	-327.66
	10	2.2	2.07603E-001	-3.70606E-011	0.00000E+000	2.07600E-001	9.98422E-004	4	..........a	-327.66
	11	2.4	1.97666E-001	-3.83057E-011	0.00000E+000	1.97600E-001	1.00822E-003	4	..........a	-327.66
	12	2.6	1.87684E-001	-4.01687E-011	0.00000E+000	1.87600E-001	9.88522E-004	4	..........a	-327.66
	13	2.8	1.77643E-001	-4.22968E-011	0.00000E+000	1.77600E-001	1.00792E-003	4	..........a	-327.66
	14	3	1.67678E-001	-4.46819E-011	0.00000E+000	1.67600E-001	1.00202E-003	4	..........a	-327.66
	15	3.2	1.57662E-001	-4.67150E-011	0.00000E+000	1.57600E-001	1.00062E-003	4	..........a	-327.66
	16	3.4	1.47625E-001	-4.92051E-011	0.00000E+000	1.47600E-001	9.79522E-004	4	..........a	-327.66
	17	3.6	1.37660E-001	-5.09892E-011	0.00000E+000	1.37600E-001	9.85722E-004	4	..........a	-327.66
	18	3.8	1.27611E-001	-5.27432E-011	0.00000E+000	1.27600E-001	1.00282E-003	4	..........a	-327.66
	19	4	1.17703E-001	-5.38243E-011	0.00000E+000	1.17600E-001	9.72222E-004	4	..........a	-327.66
	20	4.2	1.07695E-001	-5.52963E-011	0.00000E+000	1.07600E-001	9.78322E-004	4	..........a	-327.66
	21	4.4	9.76483E-002	-5.65894E-011	0.00000E+000	9.76000E-002	9.89322E-004	4	..........a	-327.66
	22	4.6	8.76460E-002	-5.81744E-011	0.00000E+000	8.76000E-002	1.01052E-003	4	..........a	-327.66
	23	4.8	7.76309E-002	-6.08115E-011	0.00000E+000	7.76000E-002	9.74522E-004	4	..........a	-327.66
	24	5	6.76920E-002	-6.38266E-011	0.00000E+000	6.76000E-002	9.64522E-004	4	..........a	-327.66
	25	5.2	5.76377E-002	-6.41337E-011	0.00000E+000	5.76000E-002	1.01632E-003	4	..........a	-327.66
	26	5.4	4.76052E-002	-6.66068E-011	0.00000E+000	4.76000E-002	9.93722E-004	4	..........a	-327.66
	27	5.6	3.76760E-002	-6.81538E-011	0.00000E+000	3.76000E-002	9.86522E-004	4	..........a	-327.66
	28	5.8	2.76882E-002	-6.98119E-011	0.00000E+000	2.76000E-002	9.92722E-004	4	..........a	-327.66
	29	6	1.76186E-002	-7.05939E-011	0.00000E+000	1.76000E-002	1.01332E-003	4	..........a	-327.66
	30	6.2	7.68834E-003	-7.23990E-011	0.00000E+000	7.60000E-003	1.00282E-003	4	..........a	-327.66
	31	6.4	-2.30536E-003	-7.44860E-011	0.00000E+000	-2.40000E-003	9.94322E-004	4	..........a	-327.66
	32	6.6	-1.24955E-002	-7.84302E-011	0.00000E+000	-1.24000E-002	9.82422E-004	4	..........a	-327.66
	33	6.8	-2.23804E-002	-7.99753E-011	0.00000E+000	-2.24000E-002	9.93522E-004	4	..........a	-327.66
	34	7	-3.24252E-002	-8.33824E-011	0.00000E+000	-3.24000E-002	9.95622E-004	4	..........a	-327.66
	35	7.2	-4.23339E-002	-8.57535E-011	0.00000E+000	-4.24000E-002	9.91222E-004	4	..........a	-327.66
	36	7.4	-5.23030E-002	-8.81426E-011	0.00000E+000	-5.24000E-002	9.97522E-004	4	..........a	-327.66
	37	7.6	-6.23008E-002	-9.13337E-011	0.00000E+000	-6.24000E-002	9.90522E-004	4	..........a	-327.66
	38	7.8	-7.24114E-002	-9.49378E-011	0.00000E+000	-7.24000E-002	1.01232E-003	4	..........a	-327.66
	39	8	-8.23130E-002	-9.66869E-011	0.00000E+000	-8.24000E-002	9.88422E-004	4	..........a	-327.66
	40	8.2	-9.23423E-002	-1.01542E-010	0.00000E+000	-9.24000E-002	9.66622E-004	4	..........a	-327.66
	41	8.4	-1.02374E-001	-1.04806E-010	0.00000E+000	-1.02400E-001	9.94122E-004	4	..........a	-327.66
	42	8.6	-1.12421E-001	-1.08078E-010	0.00000E+000	-1.12400E-001	9.87122E-004	4	..........a	-327.66
	43	8.8	-1.22335E-001	-1.12318E-010	0.00000E+000	-1.22400E-001	1.00782E-003	4	..........a	-327.66
	44	9	-1.32340E-001	-1.17070E-010	0.00000E+000	-1.32400E-001	9.91122E-004	4	..........a	-327.66
	45	9.2	-1.42366E-001	-1.20989E-010	0.00000E+000	-1.42400E-001	9.99322E-004	4	..........a	-327.66
	46	9.4	-1.52453E-001	-1.26521E-010	0.00000E+000	-1.52400E-001	1.00282E-003	4	..........a	-327.66
	47	9.6	-1.62395E-001	-1.31215E-010	0.00000E+000	-1.62400E-001	1.00672E-003	4	..........a	-327.66
	48	9.8	-1.72351E-001	-1.36006E-010	0.00000E+000	-1.72400E-001	9.88722E-004	4	..........a	-327.66
	49	10	-1.82459E-001	-1.41845E-010	0.00000E+000	-1.82400E-001	9.96522E-004	4	..........a	-327.66
	50	10.2	-1.92387E-001	-1.47696E-010	0.00000E+000	-1.92400E-001	1.00582E-003	4	..........a	-327.66
	51	10.4	-2.02357E-001	-1.52937E-010	0.00000E+000	-2.02400E-001	9.93722E-004	4	..........a	-327.66
	52	10.6	-2.12346E-001	-1.59825E-010	0.00000E+000	-2.12400E-001	9.84522E-004	4	..........a	-327.66
	53	10.8	-2.22315E-001	-1.66442E-010	0.00000E+000	-2.22400E-001	9.96322E-004	4	..........a	-327.66
	54	11	-2.32411E-001	-1.73148E-010	0.00000E+000	-2.32400E-001	1.00742E-003	4	..........a	-327.66
	55	11.2	-2.42350E-001	-1.80830E-010	0.00000E+000	-2.42400E-001	1.00582E-003	4	..........a	-327.66
	56	11.4	-2.52332E-001	-1.87575E-010	0.00000E+000	-2.52400E-001	1.00772E-003	4	..........a	-327.66
	57	11.6	-2.62412E-001	-1.96047E-010	0.00000E+000	-2.62400E-001	1.02372E-003	4	..........a	-327.66
	58	11.8	-2.72346E-001	-2.04424E-010	0.00000E+000	-2.72400E-001	1.00562E-003	4	..........a	-327.66
	59	12	-2.82348E-001	-2.13364E-010	0.00000E+000	-2.82400E-001	1.00312E-003	4	..........a	-327.66
	60	12.2	-2.92345E-001	-2.22833E-010	0.00000E+000	-2.92400E-001	9.96122E-004	4	..........a	-327.66
	61	12.4	-3.02299E-001	-2.31331E-010	0.00000E+000	-3.02400E-001	9.99322E-004	4	..........a	-327.66
	62	12.6	-3.12396E-001	-2.41393E-010	0.00000E+000	-3.12400E-001	1.00452E-003	4	..........a	-327.66
	63	12.8	-3.22285E-001	-2.51893E-010	0.00000E+000	-3.22400E-001	1.00422E-003	4	..........a	-327.66
	64	13	-3.32287E-001	-2.63202E-010	0.00000E+000	-3.32400E-001	9.83722E-004	4	..........a	-327.66
	65	13.2	-3.42368E-001	-2.74701E-010	0.00000E+000	-3.42400E-001	1.00902E-003	4	..........a	-327.66
	66	13.4	-3.52321E-001	-2.91173E-010	0.00000E+000	-3.52400E-001	9.99722E-004	4	..........a	-327.66
	67	13.6	-3.62236E-001	-2.96115E-010	0.00000E+000	-3.62400E-001	9.83422E-004	4	..........a	-327.66
	68	13.8	-3.72281E-001	-3.10199E-010	0.00000E+000	-3.72400E-001	9.82722E-004	4	..........a	-327.66
	69	14	-3.82265E-001	-3.22288E-010	0.00000E+000	-3.82400E-001	9.88822E-004	4	..........a	-327.66
	70	14.2	-3.92350E-001	-3.36309E-010	0.00000E+000	-3.92400E-001	9.84722E-004	4	..........a	-327.66
	71	14.4	-4.02256E-001	-3.49421E-010	0.00000E+000	-4.02400E-001	9.96322E-004	4	..........a	-327.66
	72	14.6	-4.12259E-001	-3.54259E-010	0.00000E+000	-4.12400E-001	9.89522E-004	4	..........a	-327.66
	73	14.8	-4.22277E-001	-3.81893E-010	0.00000E+000	-4.22400E-001	1.01412E-003	4	..........a	-327.66
	74	15	-4.32265E-001	-3.94662E-010	0.00000E+000	-4.32400E-001	1.01162E-003	4	..........a	-327.66
	75	15.2	-4.42296E-001	-4.15403E-010	0.00000E+000	-4.42400E-001	1.01642E-003	4	..........a	-327.66
	76	15.4	-4.52239E-001	-4.32239E-010	0.00000E+000	-4.52400E-001	1.00032E-003	4	..........a	-327.66
	77	15.6	-4.62275E-001	-4.51909E-010	0.00000E+000	-4.62400E-001	1.01072E-003	4	..........a	-327.66
	78	15.8	-4.72081E-001	-4.70090E-010	0.00000E+000	-4.72400E-001	1.00062E-003	4	..........a	-327.66
	79	16	-4.82226E-001	-4.90362E-010	0.00000E+000	-4.82400E-001	1.00872E-003	4	..........a	-327.66
	80	16.2	-4.92233E-001	-5.14126E-010	0.00000E+000	-4.92400E-001	9.83222E-004	4	..........a	-327.66
	81	16.4	-5.02258E-001	-5.37518E-010	0.00000E+000	-5.02400E-001	1.00832E-003	4	..........a	-327.66
	82	16.6	-5.12290E-001	-5.62525E-010	0.00000E+000	-5.12400E-001	9.94722E-004	4	..........a	-327.66
	83	16.8	-5.22222E-001	-5.88652E-010	0.00000E+000	-5.22400E-001	1.01992E-003	4	..........a	-327.66
	84	17	-5.32250E-001	-6.18123E-010	0.00000E+000	-5.32400E-001	9.96922E-004	4	..........a	-327.66
	85	17.2	-5.42321E-001	-6.48763E-010	0.00000E+000	-5.42400E-001	9.82822E-004	4	..........a	-327.66
	86	17.4	-5.52252E-001	-6.81879E-010	0.00000E+000	-5.52400E-001	9.81222E-004	4	..........a	-327.66
	87	17.6	-5.62253E-001	-7.17441E-010	0.00000E+000	-5.62400E-001	1.00542E-003	4	..........a	-327.66
	88	17.8	-5.72198E-001	-7.56098E-010	0.00000E+000	-5.72400E-001	9.95922E-004	4	..........a	-327.66
	89	18	-5.82282E-001	-8.01581E-010	0.00000E+000	-5.82400E-001	9.80622E-004	4	..........a	-327.66
	90	18.2	-5.92272E-001	-8.41116E-010	0.00000E+000	-5.92400E-001	9.79822E-004	4	..........a	-327.66
	91	18.4	-6.02246E-001	-8.90360E-010	0.00000E+000	-6.02400E-001	9.95822E-004	4	..........a	-327.66
	92	18.6	-5.92355E-001	-7.39140E-010	0.00000E+000	-5.92400E-001	1.01412E-003	4	..........a	-327.66
	93	18.8	-5.82286E-001	-6.39318E-010	0.00000E+000	-5.82400E-001	9.81522E-004	4	..........a	-327.66
	94	19	-5.72292E-001	-5.58823E-010	0.00000E+000	-5.72400E-001	9.89122E-004	4	..........a	-327.66
	95	19.2	-5.62234E-001	-4.90496E-010	0.00000E+000	-5.62400E-001	9.89222E-004	4	..........a	-327.66
	96	19.4	-5.52262E-001	-4.32475E-010	0.00000E+000	-5.52400E-001	9.97822E-004	4	..........a	-327.66
	97	19.6	-5.42253E-001	-3.80146E-010	0.00000E+000	-5.42400E-001	1.00952E-003	4	..........a	-327.66
	98	19.8	-5.32251E-001	-3.33733E-010	0.00000E+000	-5.32400E-001	9.75722E-004	4	..........a	-327.66
	99	20	-5.22223E-001	-2.91888E-010	0.00000E+000	-5.22400E-001	9.86822E-004	4	..........a	-327.66
	100	20.2	-5.12351E-001	-2.53597E-010	0.00000E+000	-5.12400E-001	1.00952E-003	4	..........a	-327.66
	101	20.4	-5.02261E-001	-2.19090E-010	0.00000E+000	-5.02400E-001	1.01182E-003	4	..........a	-327.66
	102	20.6	-4.92151E-001	-1.87406E-010	0.00000E+000	-4.92400E-001	1.00132E-003	4	..........a	-327.66
	103	20.8	-4.82294E-001	-1.59577E-010	0.00000E+000	-4.82400E-001	1.00562E-003	4	..........a	-327.66
	104	21	-4.72278E-001	-1.33313E-010	0.00000E+000	-4.72400E-001	9.97822E-004	4	..........a	-327.66
	105	21.2	-4.62291E-001	-1.10175E-010	0.00000E+000	-4.62400E-001	9.86922E-004	4	..........a	-327.66
	106	21.4	-4.52243E-001	-8.86756E-011	0.00000E+000	-4.52400E-001	9.97822E-004	4	..........a	-327.66
	107	21.6	-4.42298E-001	-6.92039E-011	0.00000E+000	-4.42400E-001	1.01702E-003	4	..........a	-327.66
	108	21.8	-4.32314E-001	-5.13662E-011	0.00000E+000	-4.32400E-001	1.00632E-003	4	..........a	-327.66
	109	22	-4.22297E-001	-3.59046E-011	0.00000E+000	-4.22400E-001	9.76622E-004	4	..........a	-327.66
	110	22.2	-4.12223E-001	-1.96680E-011	0.00000E+000	-4.12400E-001	9.77022E-004	4	..........a	-327.66
	111	22.4	-4.02299E-001	-5.29140E-012	0.00000E+000	-4.02400E-001	9.90022E-004	4	..........a	-327.66
	112	22.6	-3.92350E-001	8.28312E-012	0.00000E+000	-3.92400E-001	9.83622E-004	4	..........a	-327.66
	113	22.8	-3.82305E-001	2.03586E-011	0.00000E+000	-3.82400E-001	1.01212E-003	4	..........a	-327.66
	114	23	-3.72277E-001	3.30561E-011	0.00000E+000	-3.72400E-001	9.86322E-004	4	..........a	-327.66
	115	23.2	-3.62287E-001	4.23094E-011	0.00000E+000	-3.62400E-001	1.01902E-003	4	..........a	-327.66
	116	23.4	-3.52327E-001	5.16368E-011	0.00000E+000	-3.52400E-001	1.00482E-003	4	..........a	-327.66
	117	23.6	-3.42340E-001	5.98051E-011	0.00000E+000	-3.42400E-001	9.89622E-004	4	..........a	-327.66
	118	23.8	-3.32308E-001	6.90195E-011	0.00000E+000	-3.32400E-001	9.89322E-004	4	..........a	-327.66
	119	24	-3.22277E-001	7.68937E-011	0.00000E+000	-3.22400E-001	1.00142E-003	4	..........a	-327.66
	120	24.2	-3.12326E-001	8.47081E-011	0.00000E+000	-3.12400E-001	1.01062E-003	4	..........a	-327.66
	121	24.4	-3.02290E-001	9.00553E-011	0.00000E+000	-3.02400E-001	1.00642E-003	4	..........a	-327.66
	122	24.6	-2.92368E-001	9.69455E-011	0.00000E+000	-2.92400E-001	9.96322E-004	4	..........a	-327.66
	123	24.8	-2.82335E-001	1.02187E-010	0.00000E+000	-2.82400E-001	9.88722E-004	4	..........a	-327.66
	124	25	-2.72321E-001	1.07557E-010	0.00000E+000	-2.72400E-001	9.92022E-004	4	..........a	-327.66
	125	25.2	-2.62457E-001	1.12529E-010	0.00000E+000	-2.62400E-001	1.00762E-003	4	..........a	-327.66
	126	25.4	-2.52285E-001	1.16694E-010	0.00000E+000	-2.52400E-001	9.92422E-004	4	..........a	-327.66
	127	25.6	-2.42271E-001	1.20976E-010	0.00000E+000	-2.42400E-001	1.01772E-003	4	..........a	-327.66
	128	25.8	-2.32401E-001	1.26914E-010	0.00000E+000	-2.32400E-001	1.01012E-003	4	..........a	-327.66
	129	26	-2.22315E-001	1.26976E-010	0.00000E+000	-2.22400E-001	9.83922E-004	4	..........a	-327.66
	130	26.2	-2.12366E-001	1.29817E-010	0.00000E+000	-2.12400E-001	9.92522E-004	4	..........a	-327.66
	131	26.4	-2.02322E-001	1.32026E-010	0.00000E+000	-2.02400E-001	1.01112E-003	4	..........a	-327.66
	132	26.6	-1.92351E-001	1.33697E-010	0.00000E+000	-1.92400E-001	1.00402E-003	4	..........a	-327.66
	133	26.8	-1.82347E-001	1.34525E-010	0.00000E+000	-1.82400E-001	9.93122E-004	4	..........a	-327.66
	134	27	-1.72325E-001	1.35429E-010	0.00000E+000	-1.72400E-001	9.90122E-004	4	..........a	-327.66
	135	27.2	-1.62341E-001	1.36280E-010	0.00000E+000	-1.62400E-001	1.00022E-003	4	..........a	-327.66
	136	27.4	-1.52355E-001	1.37194E-010	0.00000E+000	-1.52400E-001	9.88122E-004	4	..........a	-327.66
	137	27.6	-1.42348E-001	1.36755E-010	0.00000E+000	-1.42400E-001	9.94722E-004	4	..........a	-327.66
	138	27.8	-1.32305E-001	1.36966E-010	0.00000E+000	-1.32400E-001	1.00902E-003	4	..........a	-327.66
	139	28	-1.22312E-001	1.37227E-010	0.00000E+000	-1.22400E-001	1.01332E-003	4	..........a	-327.66
	140	28.2	-1.12302E-001	1.36963E-010	0.00000E+000	-1.12400E-001	9.72122E-004	4	..........a	-327.66
	141	28.4	-1.02351E-001	1.36539E-010	0.00000E+000	-1.02400E-001	9.91222E-004	4	..........a	-327.66
	142	28.6	-9.23187E-002	1.36139E-010	0.00000E+000	-9.24000E-002	9.70322E-004	4	..........a	-327.66
	143	28.8	-8.23266E-002	1.36232E-010	0.00000E+000	-8.24000E-002	9.85622E-004	4	..........a	-327.66
	144	29	-7.23306E-002	1.35861E-010	0.00000E+000	-7.24000E-002	1.01162E-003	4	..........a	-327.66
	145	29.2	-6.24410E-002	1.34501E-010	0.00000E+000	-6.24000E-002	9.93522E-004	4	..........a	-327.66
	146	29.4	-5.23156E-002	1.34396E-010	0.00000E+000	-5.24000E-002	9.89422E-004	4	..........a	-327.66
	147	29.6	-4.23037E-002	1.34707E-010	0.00000E+000	-4.24000E-002	1.00192E-003	4	..........a	-327.66
	148	29.8	-3.23595E-002	1.34884E-010	0.00000E+000	-3.24000E-002	9.99222E-004	4	..........a	-327.66
	149	30	-2.23237E-002	1.33213E-010	0.00000E+000	-2.24000E-002	1.00562E-003	4	..........a	-327.66
	150	30.2	-1.22352E-002	1.33187E-010	0.00000E+000	-1.24000E-002	9.80422E-004	4	..........a	-327.66
	151	30.4	-2.35556E-003	1.32755E-010	0.00000E+000	-2.40000E-003	1.00292E-003	4	..........a	-327.66
	152	30.6	7.66224E-003	1.32172E-010	0.00000E+000	7.60000E-003	1.00302E-003	4	..........a	-327.66
	153	30.8	1.76464E-002	1.31432E-010	0.00000E+000	1.76000E-002	1.02772E-003	4	..........a	-327.66
	154	31	2.76823E-002	1.30937E-010	0.00000E+000	2.76000E-002	9.89022E-004	4	..........a	-327.66
	155	31.2	3.77130E-002	1.30895E-010	0.00000E+000	3.76000E-002	9.87022E-004	4	..........a	-327.66
	156	31.4	4.75906E-002	1.29894E-010	0.00000E+000	4.76000E-002	9.92222E-004	4	..........a	-327.66
	157	31.6	5.76678E-002	1.30061E-010	0.00000E+000	5.76000E-002	1.00562E-003	4	..........a	-327.66
	158	31.8	6.77732E-002	1.29910E-010	0.00000E+000	6.76000E-002	1.00502E-003	4	..........a	-327.66
	159	32	7.76539E-002	1.29424E-010	0.00000E+000	7.76000E-002	1.00632E-003	4	..........a	-327.66
	160	32.2	8.76487E-002	1.29152E-010	0.00000E+000	8.76000E-002	9.89622E-004	4	..........a	-327.66
	161	32.4	9.76259E-002	1.28516E-010	0.00000E+000	9.76000E-002	1.00092E-003	4	..........a	-327.66
	162	32.6	1.07659E-001	1.29496E-010	0.00000E+000	1.07600E-001	9.93522E-004	4	..........a	-327.66
	163	32.8	1.17757E-001	1.29444E-010	0.00000E+000	1.17600E-001	9.88022E-004	4	..........a	-327.66
	164	33	1.27573E-001	1.29539E-010	0.00000E+000	1.27600E-001	9.78422E-004	4	..........a	-327.66
	165	33.2	1.37673E-001	1.29920E-010	0.00000E+000	1.37600E-001	1.00952E-003	4	..........a	-327.66
	166	33.4	1.47707E-001	1.31165E-010	0.00000E+000	1.47600E-001	9.70822E-004	4	..........a	-327.66
	167	33.6	1.57662E-001	1.32939E-010	0.00000E+000	1.57600E-001	1.00822E-003	4	..........a	-327.66
	168	33.8	1.67625E-001	1.33314E-010	0.00000E+000	1.67600E-001	9.94322E-004	4	..........a	-327.66
	169	34	1.77649E-001	1.34714E-010	0.00000E+000	1.77600E-001	1.01042E-003	4	..........a	-327.66
	170	34.2	1.87684E-001	1.36001E-010	0.00000E+000	1.87600E-001	9.93022E-004	4	..........a	-327.66
	171	34.4	1.97670E-001	1.37814E-010	0.00000E+000	1.97600E-001	1.00102E-003	4	..........a	-327.66
	172	34.6	2.07610E-001	1.38849E-010	0.00000E+000	2.07600E-001	1.00552E-003	4	..........a	-327.66
	173	34.8	2.17609E-001	1.40308E-010	0.00000E+000	2.17600E-001	9.88522E-004	4	..........a	-327.66
	174	35	2.27618E-001	1.41811E-010	0.00000E+000	2.27600E-001	9.98922E-004	4	..........a	-327.66
	175	35.2	2.37638E-001	1.46194E-010	0.00000E+000	2.37600E-001	9.85822E-004	4	..........a	-327.66
	176	35.4	2.47560E-001	1.46993E-010	0.00000E+000	2.47600E-001	9.84122E-004	4	..........a	-327.66
	177	35.6	2.57632E-001	1.49227E-010	0.00000E+000	2.57600E-001	9.85022E-004	4	..........a	-327.66
	178	35.8	2.67603E-001	1.57060E-010	0.00000E+000	2.67600E-001	9.95322E-004	4	..........a	-327.66
	179	36	2.77642E-001	1.56919E-010	0.00000E+000	2.77600E-001	9.98722E-004	4	..........a	-327.66
	180	36.2	2.87617E-001	1.54562E-010	0.00000E+000	2.87600E-001	9.97322E-004	4	..........a	-327.66
	181	36.4	2.97620E-001	1.56778E-010	0.00000E+000	2.97600E-001	1.01672E-003	4	..........a	-327.66
	182	36.6	3.07527E-001	1.61292E-010	0.00000E+000	3.07600E-001	9.95222E-004	4	..........a	-327.66
	183	36.8	3.17677E-001	1.63930E-010	0.00000E+000	3.17600E-001	9.98922E-004	4	..........a	-327.66
	184	37	3.27621E-001	1.66345E-010	0.00000E+000	3.27600E-001	1.00912E-003	4	..........a	-327.66
	185	37.2	3.37564E-001	1.67893E-010	0.00000E+000	3.37600E-001	1.00182E-003	4	..........a	-327.66
	186	37.4	3.47061E-001	1.70439E-010	0.00000E+000	3.47600E-001	9.89222E-004	4	..........a	-327.66
	187	37.6	3.57629E-001	1.72919E-010	0.00000E+000	3.57600E-001	1.01952E-003	4	..........a	-327.66
	188	37.8	3.67606E-001	1.76184E-010	0.00000E+000	3.67600E-001	1.00272E-003	4	..........a	-327.66
	189	38	3.77566E-001	1.79861E-010	0.00000E+000	3.77600E-001	9.99422E-004	4	..........a	-327.66
	190	38.2	3.87643E-001	1.82805E-010	0.00000E+000	3.87600E-001	9.88522E-004	4	..........a	-327.66
	191	38.4	3.97694E-001	1.85684E-010	0.00000E+000	3.97600E-001	1.01222E-003	4	..........a	-327.66
	192	38.6	4.07549E-001	1.89945E-010	0.00000E+000	4.07600E-001	9.98322E-004	4	..........a	-327.66
	193	38.8	4.17582E-001	1.90957E-010	0.00000E+000	4.17600E-001	9.97522E-004	4	..........a	-327.66
	194	39	4.27608E-001	1.95629E-010	0.00000E+000	4.27600E-001	9.79922E-004	4	..........a	-327.66
	195	39.2	4.37625E-001	1.99408E-010	0.00000E+000	4.37600E-001	1.01632E-003	4	..........a	-327.66
	196	39.4	4.47600E-001	2.02153E-010	0.00000E+000	4.47600E-001	9.88922E-004	4	..........a	-327.66
	197	39.6	4.57589E-001	2.05608E-010	0.00000E+000	4.57600E-001	1.01422E-003	4	..........a	-327.66
	198	39.8	4.67580E-001	2.09832E-010	0.00000E+000	4.67600E-001	9.82922E-004	4	..........a	-327.66
	199	40	4.77632E-001	2.15221E-010	0.00000E+000	4.77600E-001	1.01112E-003	4	..........a	-327.66
	200	40.2	4.87606E-001	2.17877E-010	0.00000E+000	4.87600E-001	9.89922E-004	4	..........a	-327.66
	201	40.4	4.97579E-001	2.21643E-010	0.00000E+000	4.97600E-001	9.96722E-004	4	..........a	-327.66
	202	40.6	5.07632E-001	2.27818E-010	0.00000E+000	5.07600E-001	9.96322E-004	4	..........a	-327.66
	203	40.8	5.17608E-001	2.32557E-010	0.00000E+000	5.17600E-001	1.00852E-003	4	..........a	-327.66
	204	41	5.27546E-001	2.38034E-010	0.00000E+000	5.27600E-001	1.00902E-003	4	..........a	-327.66
	205	41.2	5.37495E-001	2.44145E-010	0.00000E+000	5.37600E-001	1.02382E-003	4	..........a	-327.66
	206	41.4	5.47598E-001	2.50667E-010	0.00000E+000	5.47600E-001	9.93222E-004	4	..........a	-327.66
	207	41.6	5.57527E-001	2.56232E-010	0.00000E+000	5.57600E-001	9.93122E-004	4	..........a	-327.66
	208	41.8	5.67523E-001	2.63008E-010	0.00000E+000	5.67600E-001	1.00662E-003	4	..........a	-327.66
	209	42	5.77604E-001	2.70299E-010	0.00000E+000	5.77600E-001	1.00742E-003	4	..........a	-327.66
	210	42.2	5.87537E-001	2.76817E-010	0.00000E+000	5.87600E-001	1.00222E-003	4	..........a	-327.66
	211	42.4	5.97619E-001	2.84921E-010	0.00000E+000	5.97600E-001	9.92922E-004	4	..........a	-327.66
	212	42.6	6.07493E-001	2.92364E-010	0.00000E+000	6.07600E-001	1.00952E-003	4	..........a	-327.66
	213	42.8	6.17464E-001	3.00273E-010	0.00000E+000	6.17600E-001	1.02072E-003	4	..........a	-327.66
	214	43	6.27489E-001	3.09035E-010	0.00000E+000	6.27600E-001	1.00362E-003	4	..........a	-327.66
	215	43.2	6.37589E-001	3.17898E-010	0.00000E+000	6.37600E-001	1.00402E-003	4	..........a	-327.66
	216	43.4	6.47515E-001	3.25775E-010	0.00000E+000	6.47600E-001	9.92222E-004	4	..........a	-327.66
	217	43.6	6.57539E-001	3.34598E-010	0.00000E+000	6.57600E-001	9.98322E-004	4	..........a	-327.66
	218	43.8	6.67532E-001	3.43246E-010	0.00000E+000	6.67600E-001	9.83822E-004	4	..........a	-327.66
	219	44	6.77567E-001	3.51239E-010	0.00000E+000	6.77600E-001	1.00842E-003	4	..........a	-327.66
	220	44.2	6.87534E-001	3.59426E-010	0.00000E+000	6.87600E-001	1.00892E-003	4	..........a	-327.66
	221	44.4	6.97480E-001	3.67368E-010	0.00000E+000	6.97600E-001	1.01352E-003	4	..........a	-327.66
	222	44.6	7.07543E-001	3.76390E-010	0.00000E+000	7.07600E-001	9.83222E-004	4	..........a	-327.66
	223	44.8	7.17604E-001	3.85569E-010	0.00000E+000	7.17600E-001	9.93422E-004	4	..........a	-327.66
	224	45	7.27528E-001	3.95928E-010	0.00000E+000	7.27600E-001	1.01272E-003	4	..........a	-327.66
	225	45.2	7.37563E-001	4.07149E-010	0.00000E+000	7.37600E-001	9.96722E-004	4	..........a	-327.66
	226	45.4	7.47530E-001	4.19650E-010	0.00000E+000	7.47600E-001	9.91922E-004	4	..........a	-327.66
	227	45.6	7.57649E-001	4.34180E-010	0.00000E+000	7.57600E-001	9.76822E-004	4	..........a	-327.66
	228	45.8	7.67515E-001	4.49003E-010	0.00000E+000	7.67600E-001	1.00232E-003	4	..........a	-327.66
	229	46	7.77560E-001	4.66064E-010	0.00000E+000	7.77600E-001	1.00842E-003	4	..........a	-327.66
	230	46.2	7.87540E-001	4.83099E-010	0.00000E+000	7.87600E-001	9.89722E-004	4	..........a	-327.66
	231	46.4	7.97604E-001	5.04332E-010	0.00000E+000	7.97600E-001	1.01902E-003	4	..........a	-327.66
CURVE2	TABLE
	Pt	T	Vf	Im	Vu	Sig	Ach	IERange	Over	Temp
	#	s	V vs. Ref.	A	V	V	V	#	bits	deg C
	232	46.6	7.89911E-001	3.89181E-010	0.00000E+000	7.90000E-001	9.84622E-004	4	..........a	-327.66
	233	46.8	7.79979E-001	3.03074E-010	0.00000E+000	7.80000E-001	9.94922E-004	4	..........a	-327.66
	234	47	7.69917E-001	2.43031E-010	0.00000E+000	7.70000E-001	9.85722E-004	4	..........a	-327.66
	235	47.2	7.59971E-001	1.98958E-010	0.00000E+000	7.60000E-001	1.00912E-003	4	..........a	-327.66
	236	47.4	7.49951E-001	1.65322E-010	0.00000E+000	7.50000E-001	1.00442E-003	4	..........a	-327.66
	237	47.6	7.40012E-001	1.36965E-010	0.00000E+000	7.40000E-001	1.01492E-003	4	..........a	-327.66
	238	47.8	7.29872E-001	1.13645E-010	0.00000E+000	7.30000E-001	9.94322E-004	4	..........a	-327.66
	239	48	7.19951E-001	9.24433E-011	0.00000E+000	7.20000E-001	1.00932E-003	4	..........a	-327.66
	240	48.2	7.09886E-001	7.81108E-011	0.00000E+000	7.10000E-001	9.87522E-004	4	..........a	-327.66
	241	48.4	6.99987E-001	6.38363E-011	0.00000E+000	7.00000E-001	9.97622E-004	4	..........a	-327.66
	242	48.6	6.89895E-001	5.24368E-011	0.00000E+000	6.90000E-001	1.00832E-003	4	..........a	-327.66
	243	48.8	6.79820E-001	4.14194E-011	0.00000E+000	6.80000E-001	9.96622E-004	4	..........a	-327.66
	244	49	6.69915E-001	2.98049E-011	0.00000E+000	6.70000E-001	9.90322E-004	4	..........a	-327.66
	245	49.2	6.60038E-001	2.78329E-011	0.00000E+000	6.60000E-001	1.01992E-003	4	..........a	-327.66
	246	49.4	6.49916E-001	1.45834E-011	0.00000E+000	6.50000E-001	9.85922E-004	4	..........a	-327.66
	247	49.6	6.39946E-001	7.77910E-012	0.00000E+000	6.40000E-001	9.89922E-004	4	..........a	-327.66
	248	49.8	6.29865E-001	9.76837E-013	0.00000E+000	6.30000E-001	9.98922E-004	4	..........a	-327.66
	249	50	6.20005E-001	-2.84431E-012	0.00000E+000	6.20000E-001	9.94722E-004	4	..........a	-327.66
	250	50.2	6.09969E-001	-1.02046E-011	0.00000E+000	6.10000E-001	9.93722E-004	4	..........a	-327.66
	251	50.4	5.99889E-001	-1.66188E-011	0.00000E+000	6.00000E-001	9.87422E-004	4	..........a	-327.66
	252	50.6	5.89963E-001	-2.16410E-011	0.00000E+000	5.90000E-001	9.78822E-004	4	..........a	-327.66
	253	50.8	5.80000E-001	-2.66882E-011	0.00000E+000	5.80000E-001	9.99022E-004	4	..........a	-327.66
	254	51	5.69959E-001	-3.20194E-011	0.00000E+000	5.70000E-001	9.75022E-004	4	..........a	-327.66
	255	51.2	5.59987E-001	-3.66686E-011	0.00000E+000	5.60000E-001	9.88222E-004	4	..........a	-327.66
	256	51.4	5.49983E-001	-3.89437E-011	0.00000E+000	5.50000E-001	9.87722E-004	4	..........a	-327.66
	257	51.6	5.40033E-001	-4.24558E-011	0.00000E+000	5.40000E-001	9.77322E-004	4	..........a	-327.66
	258	51.8	5.29910E-001	-4.71200E-011	0.00000E+000	5.30000E-001	9.71022E-004	4	..........a	-327.66
	259	52	5.19980E-001	-5.08172E-011	0.00000E+000	5.20000E-001	9.86322E-004	4	..........a	-327.66
	260	52.2	5.09963E-001	-5.38003E-011	0.00000E+000	5.10000E-001	9.72322E-004	4	..........a	-327.66
	261	52.4	5.00037E-001	-5.63024E-011	0.00000E+000	5.00000E-001	9.98222E-004	4	..........a	-327.66
	262	52.6	4.89961E-001	-6.02555E-011	0.00000E+000	4.90000E-001	9.83122E-004	4	..........a	-327.66
	263	52.8	4.79957E-001	-6.34026E-011	0.00000E+000	4.80000E-001	9.88222E-004	4	..........a	-327.66
	264	53	4.69971E-001	-6.77098E-011	0.00000E+000	4.70000E-001	1.00342E-003	4	..........a	-327.66
	265	53.2	4.60021E-001	-6.88578E-011	0.00000E+000	4.60000E-001	9.97422E-004	4	..........a	-327.66
	266	53.4	4.50027E-001	-7.15429E-011	0.00000E+000	4.50000E-001	9.72722E-004	4	..........a	-327.66
	267	53.6	4.39919E-001	-7.45471E-011	0.00000E+000	4.40000E-001	9.96722E-004	4	..........a	-327.66
	268	53.8	4.29913E-001	-7.75752E-011	0.00000E+000	4.30000E-001	9.93622E-004	4	..........a	-327.66
	269	54	4.20024E-001	-8.00483E-011	0.00000E+000	4.20000E-001	1.00072E-003	4	..........a	-327.66
	270	54.2	4.09943E-001	-8.33394E-011	0.00000E+000	4.10000E-001	9.89622E-004	4	..........a	-327.66
	271	54.4	3.99965E-001	-8.53945E-011	0.00000E+000	4.00000E-001	1.00862E-003	4	..........a	-327.66
	272	54.6	3.89996E-001	-8.73196E-011	0.00000E+000	3.90000E-001	1.00082E-003	4	..........a	-327.66
	273	54.8	3.80033E-001	-8.99507E-011	0.00000E+000	3.80000E-001	1.01332E-003	4	..........a	-327.66
	274	55	3.70002E-001	-9.29028E-011	0.00000E+000	3.70000E-001	9.84922E-004	4	..........a	-327.66
	275	55.2	3.60008E-001	-9.69309E-011	0.00000E+000	3.60000E-001	9.87722E-004	4	..........a	-327.66
	276	55.4	3.49989E-001	-9.94090E-011	0.00000E+000	3.50000E-001	9.90922E-004	4	..........a	-327.66
	277	55.6	3.40058E-001	-1.00041E-010	0.00000E+000	3.40000E-001	1.00772E-003	4	..........a	-327.66
	278	55.8	3.30044E-001	-1.03060E-010	0.00000E+000	3.30000E-001	1.00222E-003	4	..........a	-327.66
	279	56	3.20005E-001	-1.04842E-010	0.00000E+000	3.20000E-001	1.00512E-003	4	..........a	-327.66
	280	56.2	3.09987E-001	-1.06591E-010	0.00000E+000	3.10000E-001	1.00022E-003	4	..........a	-327.66
	281	56.4	3.00038E-001	-1.09018E-010	0.00000E+000	3.00000E-001	9.96422E-004	4	..........a	-327.66
	282	56.6	2.89984E-001	-1.11362E-010	0.00000E+000	2.90000E-001	9.82922E-004	4	..........a	-327.66
	283	56.8	2.80002E-001	-1.13974E-010	0.00000E+000	2.80000E-001	9.75822E-004	4	..........a	-327.66
	284	57	2.70029E-001	-1.15778E-010	0.00000E+000	2.70000E-001	9.96322E-004	4	..........a	-327.66
	285	57.2	2.60030E-001	-1.17534E-010	0.00000E+000	2.60000E-001	9.91222E-004	4	..........a	-327.66
	286	57.4	2.50088E-001	-1.19067E-010	0.00000E+000	2.50000E-001	1.00692E-003	4	..........a	-327.66
	287	57.6	2.40017E-001	-1.20925E-010	0.00000E+000	2.40000E-001	9.89222E-004	4	..........a	-327.66
	288	57.8	2.29977E-001	-1.21836E-010	0.00000E+000	2.30000E-001	1.00352E-003	4	..........a	-327.66
	289	58	2.20008E-001	-1.23932E-010	0.00000E+000	2.20000E-001	9.96522E-004	4	..........a	-327.66
	290	58.2	2.09998E-001	-1.24306E-010	0.00000E+000	2.10000E-001	9.75822E-004	4	..........a	-327.66
	291	58.4	2.00002E-001	-1.25891E-010	0.00000E+000	2.00000E-001	1.02032E-003	4	..........a	-327.66
	292	58.6	1.90024E-001	-1.26919E-010	0.00000E+000	1.90000E-001	1.00902E-003	4	..........a	-327.66
	293	58.8	1.80030E-001	-1.27646E-010	0.00000E+000	1.80000E-001	9.98322E-004	4	..........a	-327.66
	294	59	1.70160E-001	-1.27978E-010	0.00000E+000	1.70000E-001	9.90122E-004	4	..........a	-327.66
	295	59.2	1.60038E-001	-1.27878E-010	0.00000E+000	1.60000E-001	1.00632E-003	4	..........a	-327.66
	296	59.4	1.49993E-001	-1.28572E-010	0.00000E+000	1.50000E-001	1.00462E-003	4	..........a	-327.66
	297	59.6	1.40093E-001	-1.28633E-010	0.00000E+000	1.40000E-001	1.00472E-003	4	..........a	-327.66
	298	59.8	1.30056E-001	-1.29525E-010	0.00000E+000	1.30000E-001	9.75622E-004	4	..........a	-327.66
	299	60	1.20029E-001	-1.28800E-010	0.00000E+000	1.20000E-001	1.00942E-003	4	..........a	-327.66
	300	60.2	1.10020E-001	-1.29593E-010	0.00000E+000	1.10000E-001	1.00732E-003	4	..........a	-327.66
	301	60.4	1.00005E-001	-1.29652E-010	0.00000E+000	1.00000E-001	1.00622E-003	4	..........a	-327.66
	302	60.6	9.01139E-002	-1.30781E-010	0.00000E+000	9.00000E-002	9.81122E-004	4	..........a	-327.66
	303	60.8	7.99553E-002	-1.31739E-010	0.00000E+000	8.00000E-002	1.00062E-003	4	..........a	-327.66
	304	61	6.99627E-002	-1.30354E-010	0.00000E+000	7.00000E-002	1.00662E-003	4	..........a	-327.66
	305	61.2	6.00670E-002	-1.34167E-010	0.00000E+000	6.00000E-002	1.01832E-003	4	..........a	-327.66
	306	61.4	5.00594E-002	-1.32264E-010	0.00000E+000	5.00000E-002	9.86322E-004	4	..........a	-327.66
	307	61.6	3.99300E-002	-1.36304E-010	0.00000E+000	4.00000E-002	9.79822E-004	4	..........a	-327.66
	308	61.8	3.00008E-002	-1.37489E-010	0.00000E+000	3.00000E-002	9.91322E-004	4	..........a	-327.66
	309	62	2.00107E-002	-1.40085E-010	0.00000E+000	2.00000E-002	1.01142E-003	4	..........a	-327.66
	310	62.2	1.00664E-002	-1.42171E-010	0.00000E+000	1.00000E-002	9.84222E-004	4	..........a	-327.66
	311	62.4	-1.90092E-005	-1.44896E-010	0.00000E+000	7.45058E-009	1.01602E-003	4	..........a	-327.66
	312	62.6	-9.97841E-003	-1.47614E-010	0.00000E+000	-1.00000E-002	1.00152E-003	4	..........a	-327.66
	313	62.8	-1.99333E-002	-1.50483E-010	0.00000E+000	-2.00000E-002	9.81522E-004	4	..........a	-327.66
	314	63	-2.99236E-002	-1.53969E-010	0.00000E+000	-3.00000E-002	9.74522E-004	4	..........a	-327.66
	315	63.2	-3.99477E-002	-1.57478E-010	0.00000E+000	-4.00000E-002	9.98222E-004	4	..........a	-327.66
	316	63.4	-5.00357E-002	-1.61105E-010	0.00000E+000	-5.00000E-002	9.73022E-004	4	..........a	-327.66
	317	63.6	-5.99241E-002	-1.65731E-010	0.00000E+000	-6.00000E-002	1.00062E-003	4	..........a	-327.66
	318	63.8	-6.99315E-002	-1.68588E-010	0.00000E+000	-7.00000E-002	9.95622E-004	4	..........a	-327.66
	319	64	-7.99666E-002	-1.73645E-010	0.00000E+000	-8.00000E-002	9.78922E-004	4	..........a	-327.66
	320	64.2	-8.99794E-002	-1.78065E-010	0.00000E+000	-9.00000E-002	9.79522E-004	4	..........a	-327.66
	321	64.4	-9.99600E-002	-1.83174E-010	0.00000E+000	-1.00000E-001	9.83722E-004	4	..........a	-327.66
	322	64.6	-1.09940E-001	-1.87781E-010	0.00000E+000	-1.10000E-001	9.82522E-004	4	..........a	-327.66
	323	64.8	-1.19997E-001	-1.92802E-010	0.00000E+000	-1.20000E-001	9.74822E-004	4	..........a	-327.66
	324	65	-1.30017E-001	-1.98352E-010	0.00000E+000	-1.30000E-001	9.99122E-004	4	..........a	-327.66
	325	65.2	-1.39980E-001	-2.04244E-010	0.00000E+000	-1.40000E-001	1.01962E-003	4	..........a	-327.66
	326	65.4	-1.49995E-001	-2.09335E-010	0.00000E+000	-1.50000E-001	9.85422E-004	4	..........a	-327.66
	327	65.6	-1.60038E-001	-2.15030E-010	0.00000E+000	-1.60000E-001	1.00482E-003	4	..........a	-327.66
	328	65.8	-1.69975E-001	-2.21226E-010	0.00000E+000	-1.70000E-001	9.99222E-004	4	..........a	-327.66
	329	66	-1.79960E-001	-2.27539E-010	0.00000E+000	-1.80000E-001	9.92422E-004	4	..........a	-327.66
	330	66.2	-1.89957E-001	-2.33298E-010	0.00000E+000	-1.90000E-001	9.87522E-004	4	..........a	-327.66
	331	66.4	-1.99944E-001	-2.40526E-010	0.00000E+000	-2.00000E-001	9.99722E-004	4	..........a	-327.66
	332	66.6	-2.09946E-001	-2.47648E-010	0.00000E+000	-2.10000E-001	9.99722E-004	4	..........a	-327.66
	333	66.8	-2.19902E-001	-2.55237E-010	0.00000E+000	-2.20000E-001	1.01532E-003	4	..........a	-327.66
	334	67	-2.29899E-001	-2.63389E-010	0.00000E+000	-2.30000E-001	9.93722E-004	4	..........a	-327.66
	335	67.2	-2.39948E-001	-2.71613E-010	0.00000E+000	-2.40000E-001	9.81422E-004	4	..........a	-327.66
	336	67.4	-2.49923E-001	-2.84719E-010	0.00000E+000	-2.50000E-001	9.80522E-004	4	..........a	-327.66
	337	67.6	-2.59875E-001	-2.91874E-010	0.00000E+000	-2.60000E-001	9.75722E-004	4	..........a	-327.66
	338	67.8	-2.69899E-001	-2.99428E-010	0.00000E+000	-2.70000E-001	9.96822E-004	4	..........a	-327.66
	339	68	-2.79873E-001	-3.09155E-010	0.00000E+000	-2.80000E-001	9.98522E-004	4	..........a	-327.66
	340	68.2	-2.89908E-001	-3.23109E-010	0.00000E+000	-2.90000E-001	1.00022E-003	4	..........a	-327.66
	341	68.4	-2.99855E-001	-3.27961E-010	0.00000E+000	-3.00000E-001	9.83422E-004	4	..........a	-327.66
	342	68.6	-3.09887E-001	-3.40924E-010	0.00000E+000	-3.10000E-001	9.87522E-004	4	..........a	-327.66
	343	68.8	-3.19831E-001	-3.49931E-010	0.00000E+000	-3.20000E-001	9.87722E-004	4	..........a	-327.66
	344	69	-3.29880E-001	-3.61571E-010	0.00000E+000	-3.30000E-001	9.79122E-004	4	..........a	-327.66
	345	69.2	-3.39867E-001	-3.73947E-010	0.00000E+000	-3.40000E-001	9.96922E-004	4	..........a	-327.66
	346	69.4	-3.49878E-001	-3.85401E-010	0.00000E+000	-3.50000E-001	9.80222E-004	4	..........a	-327.66
	347	69.6	-3.59898E-001	-3.98974E-010	0.00000E+000	-3.60000E-001	9.93722E-004	4	..........a	-327.66
	348	69.8	-3.69830E-001	-4.11005E-010	0.00000E+000	-3.70000E-001	9.83322E-004	4	..........a	-327.66
	349	70	-3.79854E-001	-4.24752E-010	0.00000E+000	-3.80000E-001	1.01062E-003	4	..........a	-327.66
	350	70.2	-3.89870E-001	-4.38793E-010	0.00000E+000	-3.90000E-001	9.78522E-004	4	..........a	-327.66
	351	70.4	-3.99885E-001	-4.53251E-010	0.00000E+000	-4.00000E-001	9.85322E-004	4	..........a	-327.66
	352	70.6	-4.09873E-001	-4.66977E-010	0.00000E+000	-4.10000E-001	9.97422E-004	4	..........a	-327.66
	353	70.8	-4.19837E-001	-4.80589E-010	0.00000E+000	-4.20000E-001	1.00292E-003	4	..........a	-327.66
[...]
	921	184.4	-4.99867E-001	-8.08814E-010	0.00000E+000	-5.00000E-001	9.90422E-004	4	..........a	-327.66
	922	184.6	-5.09831E-001	-8.36085E-010	0.00000E+000	-5.10000E-001	9.90822E-004	4	..........a	-327.66
	923	184.8	-5.19860E-001	-8.64119E-010	0.00000E+000	-5.20000E-001	1.01052E-003	4	..........a	-327.66
	924	185	-5.29854E-001	-8.92779E-010	0.00000E+000	-5.30000E-001	9.80522E-004	4	..........a	-327.66
	925	185.2	-5.39889E-001	-9.27340E-010	0.00000E+000	-5.40000E-001	1.00902E-003	4	..........a	-327.66
	926	185.4	-5.49870E-001	-9.62530E-010	0.00000E+000	-5.50000E-001	9.89022E-004	4	..........a	-327.66
	927	185.6	-5.59871E-001	-9.99288E-010	0.00000E+000	-5.60000E-001	9.89222E-004	4	..........a	-327.66
	928	185.8	-5.69909E-001	-1.03921E-009	0.00000E+000	-5.70000E-001	9.97522E-004	4	..........a	-327.66
	929	186	-5.79851E-001	-1.08411E-009	0.00000E+000	-5.80000E-001	9.93322E-004	4	..........a	-327.66
	930	186.2	-5.89876E-001	-1.13168E-009	0.00000E+000	-5.90000E-001	9.89622E-004	4	..........a	-327.66
	931	186.4	-5.99854E-001	-1.18431E-009	0.00000E+000	-6.00000E-001	9.88122E-004	4	..........a	-327.66
	932	186.6	-5.89812E-001	-9.50464E-010	0.00000E+000	-5.90000E-001	9.71622E-004	4	..........a	-327.66
	933	186.8	-5.79863E-001	-8.04457E-010	0.00000E+000	-5.80000E-001	9.89322E-004	4	..........a	-327.66
	934	187	-5.69935E-001	-6.98011E-010	0.00000E+000	-5.70000E-001	9.78422E-004	4	..........a	-327.66
	935	187.2	-5.59866E-001	-6.18163E-010	0.00000E+000	-5.60000E-001	9.65422E-004	4	..........a	-327.66
	936	187.4	-5.49942E-001	-5.54049E-010	0.00000E+000	-5.50000E-001	9.92822E-004	4	..........a	-327.66
	937	187.6	-5.39898E-001	-5.00809E-010	0.00000E+000	-5.40000E-001	1.00592E-003	4	..........a	-327.66
	938	187.8	-5.29854E-001	-4.55239E-010	0.00000E+000	-5.30000E-001	1.00082E-003	4	..........a	-327.66
	939	188	-5.19909E-001	-4.16417E-010	0.00000E+000	-5.20000E-001	1.00852E-003	4	..........a	-327.66
	940	188.2	-5.09848E-001	-3.79670E-010	0.00000E+000	-5.10000E-001	9.80622E-004	4	..........a	-327.66
	941	188.4	-4.99899E-001	-3.46149E-010	0.00000E+000	-5.00000E-001	9.84922E-004	4	..........a	-327.66
	942	188.6	-4.89854E-001	-3.16797E-010	0.00000E+000	-4.90000E-001	9.81422E-004	4	..........a	-327.66
	943	188.8	-4.79851E-001	-2.93495E-010	0.00000E+000	-4.80000E-001	1.00332E-003	4	..........a	-327.66
	944	189	-4.69868E-001	-2.66050E-010	0.00000E+000	-4.70000E-001	9.67422E-004	4	..........a	-327.66
	945	189.2	-4.59854E-001	-2.39968E-010	0.00000E+000	-4.60000E-001	9.92022E-004	4	..........a	-327.66
	946	189.4	-4.49877E-001	-2.16741E-010	0.00000E+000	-4.50000E-001	9.87622E-004	4	..........a	-327.66
	947	189.6	-4.39916E-001	-1.95019E-010	0.00000E+000	-4.40000E-001	9.80522E-004	4	..........a	-327.66
	948	189.8	-4.29872E-001	-1.74214E-010	0.00000E+000	-4.30000E-001	9.65322E-004	4	..........a	-327.66
	949	190	-4.19897E-001	-1.54615E-010	0.00000E+000	-4.20000E-001	1.00682E-003	4	..........a	-327.66
	950	190.2	-4.09967E-001	-1.34383E-010	0.00000E+000	-4.10000E-001	1.00212E-003	4	..........a	-327.66
	951	190.4	-3.99897E-001	-1.15996E-010	0.00000E+000	-4.00000E-001	9.98322E-004	4	..........a	-327.66
	952	190.6	-3.89880E-001	-9.85600E-011	0.00000E+000	-3.90000E-001	9.75722E-004	4	..........a	-327.66
	953	190.8	-3.79916E-001	-8.12533E-011	0.00000E+000	-3.80000E-001	9.93022E-004	4	..........a	-327.66
	954	191	-3.69905E-001	-6.47727E-011	0.00000E+000	-3.70000E-001	9.75822E-004	4	..........a	-327.66
	955	191.2	-3.59920E-001	-4.69250E-011	0.00000E+000	-3.60000E-001	9.88422E-004	4	..........a	-327.66
	956	191.4	-3.49923E-001	-3.20164E-011	0.00000E+000	-3.50000E-001	9.74922E-004	4	..........a	-327.66
	957	191.6	-3.39957E-001	-1.63208E-011	0.00000E+000	-3.40000E-001	1.00252E-003	4	..........a	-327.66
	958	191.8	-3.29976E-001	-2.18228E-012	0.00000E+000	-3.30000E-001	9.94722E-004	4	..........a	-327.66
	959	192	-3.19924E-001	1.17493E-011	0.00000E+000	-3.20000E-001	9.96422E-004	4	..........a	-327.66
	960	192.2	-3.09929E-001	2.70238E-011	0.00000E+000	-3.10000E-001	1.00152E-003	4	..........a	-327.66
	961	192.4	-2.99869E-001	3.92373E-011	0.00000E+000	-3.00000E-001	9.95922E-004	4	..........a	-327.66
	962	192.6	-2.89952E-001	5.12928E-011	0.00000E+000	-2.90000E-001	9.82722E-004	4	..........a	-327.66
	963	192.8	-2.79935E-001	6.14992E-011	0.00000E+000	-2.80000E-001	9.98022E-004	4	..........a	-327.66
	964	193	-2.69888E-001	7.38766E-011	0.00000E+000	-2.70000E-001	9.87022E-004	4	..........a	-327.66
	965	193.2	-2.59878E-001	8.48891E-011	0.00000E+000	-2.60000E-001	1.01222E-003	4	..........a	-327.66
	966	193.4	-2.49933E-001	9.30214E-011	0.00000E+000	-2.50000E-001	9.94922E-004	4	..........a	-327.66
	967	193.6	-2.39932E-001	1.02863E-010	0.00000E+000	-2.40000E-001	9.96022E-004	4	..........a	-327.66
	968	193.8	-2.29972E-001	1.11955E-010	0.00000E+000	-2.30000E-001	9.90622E-004	4	..........a	-327.66
	969	194	-2.19875E-001	1.19944E-010	0.00000E+000	-2.20000E-001	9.74222E-004	4	..........a	-327.66
	970	194.2	-2.09983E-001	1.26631E-010	0.00000E+000	-2.10000E-001	9.86122E-004	4	..........a	-327.66
	971	194.4	-1.99933E-001	1.31745E-010	0.00000E+000	-2.00000E-001	9.93222E-004	4	..........a	-327.66
	972	194.6	-1.90098E-001	1.35393E-010	0.00000E+000	-1.90000E-001	9.76422E-004	4	..........a	-327.66
	973	194.8	-1.79949E-001	1.40063E-010	0.00000E+000	-1.80000E-001	9.80422E-004	4	..........a	-327.66
	974	195	-1.69975E-001	1.43870E-010	0.00000E+000	-1.70000E-001	9.84022E-004	4	..........a	-327.66
	975	195.2	-1.59940E-001	1.46465E-010	0.00000E+000	-1.60000E-001	9.78922E-004	4	..........a	-327.66
	976	195.4	-1.49953E-001	1.48626E-010	0.00000E+000	-1.50000E-001	9.86322E-004	4	..........a	-327.66
	977	195.6	-1.39851E-001	1.56765E-010	0.00000E+000	-1.40000E-001	1.00132E-003	4	..........a	-327.66
	978	195.8	-1.30065E-001	1.54970E-010	0.00000E+000	-1.30000E-001	9.96122E-004	4	..........a	-327.66
	979	196	-1.19933E-001	1.57522E-010	0.00000E+000	-1.20000E-001	1.00602E-003	4	..........a	-327.66
	980	196.2	-1.09945E-001	1.52580E-010	0.00000E+000	-1.10000E-001	9.85322E-004	4	..........a	-327.66
	981	196.4	-9.99064E-002	1.52925E-010	0.00000E+000	-1.00000E-001	1.00872E-003	4	..........a	-327.66
	982	196.6	-8.99609E-002	1.58876E-010	0.00000E+000	-9.00000E-002	9.75822E-004	4	..........a	-327.66
	983	196.8	-7.99210E-002	1.57422E-010	0.00000E+000	-8.00000E-002	9.99422E-004	4	..........a	-327.66
	984	197	-6.99182E-002	1.52095E-010	0.00000E+000	-7.00000E-002	9.79022E-004	4	..........a	-327.66
	985	197.2	-5.99107E-002	1.52077E-010	0.00000E+000	-6.00000E-002	9.91922E-004	4	..........a	-327.66
	986	197.4	-4.99406E-002	1.52068E-010	0.00000E+000	-5.00000E-002	1.00022E-003	4	..........a	-327.66
	987	197.6	-3.99385E-002	1.56844E-010	0.00000E+000	-4.00000E-002	9.90922E-004	4	..........a	-327.66
	988	197.8	-3.00081E-002	1.54736E-010	0.00000E+000	-3.00000E-002	9.71022E-004	4	..........a	-327.66
	989	198	-1.99004E-002	1.49909E-010	0.00000E+000	-2.00000E-002	9.98322E-004	4	..........a	-327.66
	990	198.2	-9.94866E-003	1.49831E-010	0.00000E+000	-1.00000E-002	9.65922E-004	4	..........a	-327.66
	991	198.4	3.22908E-005	1.51220E-010	0.00000E+000	7.45058E-009	9.95122E-004	4	..........a	-327.66
	992	198.6	1.00726E-002	1.52317E-010	0.00000E+000	1.00000E-002	9.82822E-004	4	..........a	-327.66
	993	198.8	2.00435E-002	1.49114E-010	0.00000E+000	2.00000E-002	9.79722E-004	4	..........a	-327.66
	994	199	3.00194E-002	1.47184E-010	0.00000E+000	3.00000E-002	9.78922E-004	4	..........a	-327.66
	995	199.2	3.97751E-002	1.52354E-010	0.00000E+000	4.00000E-002	9.82322E-004	4	..........a	-327.66
	996	199.4	5.00276E-002	1.46691E-010	0.00000E+000	5.00000E-002	9.83122E-004	4	..........a	-327.66
	997	199.6	6.00733E-002	1.46890E-010	0.00000E+000	6.00000E-002	9.97422E-004	4	..........a	-327.66
	998	199.8	6.99867E-002	1.46687E-010	0.00000E+000	7.00000E-002	9.86322E-004	4	..........a	-327.66
	999	200	8.00678E-002	1.46526E-010	0.00000E+000	8.00000E-002	9.83422E-004	4	..........a	-327.66
	1000	200.2	9.00661E-002	1.53934E-010	0.00000E+000	9.00000E-002	9.75422E-004	4	..........a	-327.66
	1001	200.4	1.00011E-001	1.49478E-010	0.00000E+000	1.00000E-001	9.98022E-004	4	..........a	-327.66
	1002	200.6	1.10019E-001	1.51660E-010	0.00000E+000	1.10000E-001	1.01052E-003	4	..........a	-327.66
	1003	200.8	1.20071E-001	1.50688E-010	0.00000E+000	1.20000E-001	1.00272E-003	4	..........a	-327.66
	1004	201	1.30097E-001	1.51767E-010	0.00000E+000	1.30000E-001	9.89222E-004	4	..........a	-327.66
	1005	201.2	1.40097E-001	1.59109E-010	0.00000E+000	1.40000E-001	9.94322E-004	4	..........a	-327.66
	1006	201.4	1.49958E-001	1.58767E-010	0.00000E+000	1.50000E-001	1.02382E-003	4	..........a	-327.66
	1007	201.6	1.60034E-001	1.56382E-010	0.00000E+000	1.60000E-001	9.90122E-004	4	..........a	-327.66
	1008	201.8	1.70090E-001	1.59888E-010	0.00000E+000	1.70000E-001	9.78922E-004	4	..........a	-327.66
	1009	202	1.80086E-001	1.64571E-010	0.00000E+000	1.80000E-001	9.95422E-004	4	..........a	-327.66
	1010	202.2	1.90077E-001	1.67217E-010	0.00000E+000	1.90000E-001	9.79522E-004	4	..........a	-327.66
	1011	202.4	2.00063E-001	1.69814E-010	0.00000E+000	2.00000E-001	9.94322E-004	4	..........a	-327.66
	1012	202.6	2.10003E-001	1.72868E-010	0.00000E+000	2.10000E-001	9.94822E-004	4	..........a	-327.66
	1013	202.8	2.19682E-001	1.77325E-010	0.00000E+000	2.20000E-001	9.91422E-004	4	..........a	-327.66
	1014	203	2.29907E-001	1.84456E-010	0.00000E+000	2.30000E-001	9.89222E-004	4	..........a	-327.66
	1015	203.2	2.40016E-001	1.83914E-010	0.00000E+000	2.40000E-001	9.82922E-004	4	..........a	-327.66
	1016	203.4	2.50024E-001	1.88182E-010	0.00000E+000	2.50000E-001	9.80722E-004	4	..........a	-327.66
	1017	203.6	2.60028E-001	1.92180E-010	0.00000E+000	2.60000E-001	1.00222E-003	4	..........a	-327.66
	1018	203.8	2.69966E-001	1.94741E-010	0.00000E+000	2.70000E-001	9.85422E-004	4	..........a	-327.66
	1019	204	2.80013E-001	1.98224E-010	0.00000E+000	2.80000E-001	9.99122E-004	4	..........a	-327.66
	1020	204.2	2.90016E-001	2.01440E-010	0.00000E+000	2.90000E-001	9.83322E-004	4	..........a	-327.66
	1021	204.4	3.00035E-001	2.04666E-010	0.00000E+000	3.00000E-001	9.96722E-004	4	..........a	-327.66
	1022	204.6	3.09987E-001	2.07137E-010	0.00000E+000	3.10000E-001	9.82822E-004	4	..........a	-327.66
	1023	204.8	3.20018E-001	2.09509E-010	0.00000E+000	3.20000E-001	9.80922E-004	4	..........a	-327.66
	1024	205	3.30006E-001	2.12016E-010	0.00000E+000	3.30000E-001	9.84922E-004	4	..........a	-327.66
	1025	205.2	3.40076E-001	2.14972E-010	0.00000E+000	3.40000E-001	9.93522E-004	4	..........a	-327.66
	1026	205.4	3.50028E-001	2.16671E-010	0.00000E+000	3.50000E-001	9.94722E-004	4	..........a	-327.66
	1027	205.6	3.60024E-001	2.17593E-010	0.00000E+000	3.60000E-001	1.00062E-003	4	..........a	-327.66
	1028	205.8	3.70020E-001	2.18606E-010	0.00000E+000	3.70000E-001	9.80422E-004	4	..........a	-327.66
	1029	206	3.80035E-001	2.19538E-010	0.00000E+000	3.80000E-001	9.85622E-004	4	..........a	-327.66
	1030	206.2	3.90000E-001	2.20576E-010	0.00000E+000	3.90000E-001	1.00292E-003	4	..........a	-327.66
	1031	206.4	4.00017E-001	2.21843E-010	0.00000E+000	4.00000E-001	1.00472E-003	4	..........a	-327.66
	1032	206.6	4.09993E-001	2.22801E-010	0.00000E+000	4.10000E-001	9.85422E-004	4	..........a	-327.66
	1033	206.8	4.20024E-001	2.24945E-010	0.00000E+000	4.20000E-001	9.85922E-004	4	..........a	-327.66
	1034	207	4.29972E-001	2.25178E-010	0.00000E+000	4.30000E-001	1.00002E-003	4	..........a	-327.66
	1035	207.2	4.39962E-001	2.25418E-010	0.00000E+000	4.40000E-001	1.00522E-003	4	..........a	-327.66
	1036	207.4	4.49420E-001	2.26582E-010	0.00000E+000	4.50000E-001	9.63522E-004	4	..........a	-327.66
	1037	207.6	4.59991E-001	2.26964E-010	0.00000E+000	4.60000E-001	1.01452E-003	4	..........a	-327.66
	1038	207.8	4.69967E-001	2.28237E-010	0.00000E+000	4.70000E-001	9.87522E-004	4	..........a	-327.66
	1039	208	4.79940E-001	2.29262E-010	0.00000E+000	4.80000E-001	1.01242E-003	4	..........a	-327.66
	1040	208.2	4.89992E-001	2.31444E-010	0.00000E+000	4.90000E-001	9.93122E-004	4	..........a	-327.66
	1041	208.4	4.99992E-001	2.33270E-010	0.00000E+000	5.00000E-001	1.00192E-003	4	..........a	-327.66
	1042	208.6	5.09923E-001	2.34745E-010	0.00000E+000	5.10000E-001	9.78422E-004	4	..........a	-327.66
	1043	208.8	5.19892E-001	2.36335E-010	0.00000E+000	5.20000E-001	1.01492E-003	4	..........a	-327.66
	1044	209	5.29986E-001	2.37939E-010	0.00000E+000	5.30000E-001	9.84622E-004	4	..........a	-327.66
	1045	209.2	5.39971E-001	2.40378E-010	0.00000E+000	5.40000E-001	1.00452E-003	4	..........a	-327.66
	1046	209.4	5.49967E-001	2.42923E-010	0.00000E+000	5.50000E-001	9.88922E-004	4	..........a	-327.66
	1047	209.6	5.59879E-001	2.45704E-010	0.00000E+000	5.60000E-001	9.89122E-004	4	..........a	-327.66
	1048	209.8	5.69955E-001	2.48680E-010	0.00000E+000	5.70000E-001	9.91922E-004	4	..........a	-327.66
	1049	210	5.79952E-001	2.50934E-010	0.00000E+000	5.80000E-001	1.01182E-003	4	..........a	-327.66
	1050	210.2	5.89894E-001	2.54502E-010	0.00000E+000	5.90000E-001	9.83522E-004	4	..........a	-327.66
	1051	210.4	5.99900E-001	2.58226E-010	0.00000E+000	6.00000E-001	1.00062E-003	4	..........a	-327.66
	1052	210.6	6.09951E-001	2.62029E-010	0.00000E+000	6.10000E-001	9.88122E-004	4	..........a	-327.66
	1053	210.8	6.19983E-001	2.65917E-010	0.00000E+000	6.20000E-001	9.89022E-004	4	..........a	-327.66
	1054	211	6.29870E-001	2.69851E-010	0.00000E+000	6.30000E-001	9.89822E-004	4	..........a	-327.66
	1055	211.2	6.39897E-001	2.75540E-010	0.00000E+000	6.40000E-001	9.79422E-004	4	..........a	-327.66
	1056	211.4	6.49938E-001	2.81622E-010	0.00000E+000	6.50000E-001	9.80922E-004	4	..........a	-327.66
	1057	211.6	6.59991E-001	2.87000E-010	0.00000E+000	6.60000E-001	9.82422E-004	4	..........a	-327.66
	1058	211.8	6.69881E-001	2.93079E-010	0.00000E+000	6.70000E-001	1.00572E-003	4	..........a	-327.66
	1059	212	6.79970E-001	3.00732E-010	0.00000E+000	6.80000E-001	9.98722E-004	4	..........a	-327.66
	1060	212.2	6.89892E-001	3.07758E-010	0.00000E+000	6.90000E-001	9.74822E-004	4	..........a	-327.66
	1061	212.4	6.99968E-001	3.16583E-010	0.00000E+000	7.00000E-001	9.81022E-004	4	..........a	-327.66
	1062	212.6	7.09877E-001	3.25524E-010	0.00000E+000	7.10000E-001	9.71722E-004	4	..........a	-327.66
	1063	212.8	7.19923E-001	3.35499E-010	0.00000E+000	7.20000E-001	1.00712E-003	4	..........a	-327.66
	1064	213	7.29952E-001	3.47073E-010	0.00000E+000	7.30000E-001	9.92622E-004	4	..........a	-327.66
	1065	213.2	7.40010E-001	3.60403E-010	0.00000E+000	7.40000E-001	9.96622E-004	4	..........a	-327.66
	1066	213.4	7.49927E-001	3.74194E-010	0.00000E+000	7.50000E-001	9.95222E-004	4	..........a	-327.66
	1067	213.6	7.59941E-001	3.89783E-010	0.00000E+000	7.60000E-001	9.96222E-004	4	..........a	-327.66
	1068	213.8	7.69919E-001	4.07468E-010	0.00000E+000	7.70000E-001	9.83622E-004	4	..........a	-327.66
	1069	214	7.79945E-001	4.27659E-010	0.00000E+000	7.80000E-001	9.80822E-004	4	..........a	-327.66
	1070	214.2	7.89916E-001	4.48720E-010	0.00000E+000	7.90000E-001	1.00162E-003	4	..........a	-327.66
	1071	214.4	7.99953E-001	4.73620E-010	0.00000E+000	8.00000E-001	1.00472E-003	4	..........a	-327.66
CURVE5	TABLE
	Pt	T	Vf	Im	Vu	Sig	Ach	IERange	Over	Temp
	#	s	V vs. Ref.	A	V	V	V	#	bits	deg C
	1072	214.6	7.89864E-001	3.39288E-010	0.00000E+000	7.90000E-001	9.84522E-004	4	..........a	-327.66
	1073	214.8	7.79972E-001	2.58278E-010	0.00000E+000	7.80000E-001	9.75122E-004	4	..........a	-327.66
	1074	215	7.69963E-001	2.01532E-010	0.00000E+000	7.70000E-001	9.79822E-004	4	..........a	-327.66
	1075	215.2	7.59925E-001	1.58794E-010	0.00000E+000	7.60000E-001	9.91622E-004	4	..........a	-327.66
	1076	215.4	7.49879E-001	1.27826E-010	0.00000E+000	7.50000E-001	9.76422E-004	4	..........a	-327.66
	1077	215.6	7.40013E-001	1.01703E-010	0.00000E+000	7.40000E-001	1.00032E-003	4	..........a	-327.66
	1078	215.8	7.29858E-001	8.02499E-011	0.00000E+000	7.30000E-001	9.82522E-004	4	..........a	-327.66
	1079	216	7.19883E-001	6.10251E-011	0.00000E+000	7.20000E-001	9.96722E-004	4	..........a	-327.66
	1080	216.2	7.09859E-001	4.75996E-011	0.00000E+000	7.10000E-001	9.86122E-004	4	..........a	-327.66
	1081	216.4	6.99935E-001	3.53262E-011	0.00000E+000	7.00000E-001	9.60722E-004	4	..........a	-327.66
	1082	216.6	6.89901E-001	2.52058E-011	0.00000E+000	6.90000E-001	9.73422E-004	4	..........a	-327.66
	1083	216.8	6.79792E-001	1.39313E-011	0.00000E+000	6.80000E-001	9.65722E-004	4	..........a	-327.66
	1084	217	6.69895E-001	5.92503E-012	0.00000E+000	6.70000E-001	9.68922E-004	4	..........a	-327.66
	1085	217.2	6.59988E-001	-2.42929E-012	0.00000E+000	6.60000E-001	9.76322E-004	4	..........a	-327.66
	1086	217.4	6.49931E-001	-7.69750E-012	0.00000E+000	6.50000E-001	9.54522E-004	4	..........a	-327.66
	1087	217.6	6.39819E-001	-1.40807E-011	0.00000E+000	6.40000E-001	9.96922E-004	4	..........a	-327.66
	1088	217.8	6.29919E-001	-1.97990E-011	0.00000E+000	6.30000E-001	9.79622E-004	4	..........a	-327.66
	1089	218	6.20004E-001	-2.41371E-011	0.00000E+000	6.20000E-001	1.00132E-003	4	..........a	-327.66
	1090	218.2	6.09958E-001	-3.00524E-011	0.00000E+000	6.10000E-001	9.56022E-004	4	..........a	-327.66
	1091	218.4	5.99964E-001	-3.50455E-011	0.00000E+000	6.00000E-001	9.83522E-004	4	..........a	-327.66
	1092	218.6	5.89964E-001	-3.75826E-011	0.00000E+000	5.90000E-001	9.70622E-004	4	..........a	-327.66
	1093	218.8	5.80045E-001	-4.06498E-011	0.00000E+000	5.80000E-001	9.90322E-004	4	..........a	-327.66
	1094	219	5.69934E-001	-4.52019E-011	0.00000E+000	5.70000E-001	9.77122E-004	4	..........a	-327.66
	1095	219.2	5.59997E-001	-4.89541E-011	0.00000E+000	5.60000E-001	9.79022E-004	4	..........a	-327.66
	1096	219.4	5.49959E-001	-5.20452E-011	0.00000E+000	5.50000E-001	9.66722E-004	4	..........a	-327.66
	1097	219.6	5.40027E-001	-5.49003E-011	0.00000E+000	5.40000E-001	9.97322E-004	4	..........a	-327.66
	1098	219.8	5.29972E-001	-5.83224E-011	0.00000E+000	5.30000E-001	9.90622E-004	4	..........a	-327.66
	1099	220	5.19955E-001	-6.16116E-011	0.00000E+000	5.20000E-001	9.82822E-004	4	..........a	-327.66
	1100	220.2	5.09924E-001	-6.53417E-011	0.00000E+000	5.10000E-001	9.93922E-004	4	..........a	-327.66
	1101	220.4	5.00035E-001	-6.86118E-011	0.00000E+000	5.00000E-001	9.78522E-004	4	..........a	-327.66
	1102	220.6	4.89970E-001	-7.20190E-011	0.00000E+000	4.90000E-001	9.71922E-004	4	..........a	-327.66
	1103	220.8	4.79918E-001	-7.48981E-011	0.00000E+000	4.80000E-001	9.91022E-004	4	..........a	-327.66
	1104	221	4.69946E-001	-7.76002E-011	0.00000E+000	4.70000E-001	9.87222E-004	4	..........a	-327.66
	1105	221.2	4.60015E-001	-8.04543E-011	0.00000E+000	4.60000E-001	9.88522E-004	4	..........a	-327.66
	1106	221.4	4.49994E-001	-8.43854E-011	0.00000E+000	4.50000E-001	9.83822E-004	4	..........a	-327.66
	1107	221.6	4.39951E-001	-8.74066E-011	0.00000E+000	4.40000E-001	9.96122E-004	4	..........a	-327.66
	1108	221.8	4.29949E-001	-8.99037E-011	0.00000E+000	4.30000E-001	9.85322E-004	4	..........a	-327.66
	1109	222	4.20014E-001	-9.30908E-011	0.00000E+000	4.20000E-001	9.85422E-004	4	..........a	-327.66
	1110	222.2	4.09895E-001	-9.66089E-011	0.00000E+000	4.10000E-001	9.77822E-004	4	..........a	-327.66
	1111	222.4	4.00056E-001	-1.00342E-010	0.00000E+000	4.00000E-001	9.83022E-004	4	..........a	-327.66
	1112	222.6	3.89999E-001	-1.02875E-010	0.00000E+000	3.90000E-001	9.93422E-004	4	..........a	-327.66
	1113	222.8	3.80028E-001	-1.05100E-010	0.00000E+000	3.80000E-001	9.91522E-004	4	..........a	-327.66
	1114	223	3.69992E-001	-1.08450E-010	0.00000E+000	3.70000E-001	9.84622E-004	4	..........a	-327.66
	1115	223.2	3.60007E-001	-1.12213E-010	0.00000E+000	3.60000E-001	9.93022E-004	4	..........a	-327.66
	1116	223.4	3.49958E-001	-1.15186E-010	0.00000E+000	3.50000E-001	9.79522E-004	4	..........a	-327.66
	1117	223.6	3.40048E-001	-1.17906E-010	0.00000E+000	3.40000E-001	9.89722E-004	4	..........a	-327.66
	1118	223.8	3.30051E-001	-1.20934E-010	0.00000E+000	3.30000E-001	9.94822E-004	4	..........a	-327.66
	1119	224	3.19998E-001	-1.23206E-010	0.00000E+000	3.20000E-001	1.00082E-003	4	..........a	-327.66
	1120	224.2	3.09965E-001	-1.26177E-010	0.00000E+000	3.10000E-001	9.92722E-004	4	..........a	-327.66