File: data/raw/batch_data/20240424_T_GM0016_HL03_E05_CV50K.DTA
EXPLAIN
TAG	CV
TITLE	LABEL	Cyclic Voltammetry	Test &Identifier
DATE	LABEL	4/24/2024	Date
TIME	LABEL	17:54:25	Time
NOTES	NOTES	1	&Notes...

PSTAT	PSTAT	REF600P-43058	Potentiostat
VINIT	POTEN	0.00000E+000	T	Initial &E (V)
VLIMIT1	POTEN	-6.00000E-001	F	Scan Limit &1 (V)
VLIMIT2	POTEN	8.00000E-001	F	Scan Limit &2 (V)
VFINAL	POTEN	0.00000E+000	T	Final &E (V)
SCANRATE	QUANT	4.99999E+004	&Scan Rate (mV/s)
STEPSIZE	QUANT	1.00000E+001	St&ep Size (mV)
CYCLES	IQUANT	10	C&ycles (#)
IMODE	SELECTOR	0	I/E Range &Mode
IRANGE	QUANT	1.00000E-005	&Max Current (mA)
AREA	QUANT	1.00000E+000	Electrode &Area (cm^2)
ELECTRODETYPE	SELECTOR	0	Electrode Type
STRIPPING	TOGGLE	F	Used for Stripping
POLARITY	TOGGLE	F	Signal Polarity
CONDIT	TWOPARAM	F	1.50000E+001	0.00000E+000	Conditionin&g	Time(s)	E(V)
DELAY	TWOPARAM	T	1.00000E+001	0.00000E+000	Init. De&lay	Time(s)	Stab.(mV/s)
EQDELAY	QUANT	1.00000E+001	Equil. &Time (s)
IRCOMP	SELECTOR	0	IRCom&p
PFCOR	QUANT	5.00000E+001	PF Corr. (ohm)
SAMPLINGMODE	SELECTOR	1	Sampling &Mode
OCVCURVE	TABLE	39
	Pt	T	Vf	Vm	Ach	Over	Temp
	#	s	V vs. Ref.	V	V	bits	deg C
	0	0.258333	-4.23392E-002	-4.23392E-002	2.46459E-004	..........a	-327.66
	1	0.516667	-4.23424E-002	-4.25070E-002	2.43859E-004	..........a	-327.66
	2	0.775	-4.23623E-002	-4.26780E-002	2.23792E-004	..........a	-327.66
	3	1.03333	-4.24195E-002	-4.28482E-002	2.38126E-004	..........a	-327.66
	4	1.29167	-4.25240E-002	-4.30192E-002	2.30126E-004	..........a	-327.66
	5	1.55	-4.26667E-002	-4.31889E-002	2.47392E-004	..........a	-327.66
	6	1.80833	-4.28305E-002	-4.33593E-002	2.38526E-004	..........a	-327.66
	7	2.06667	-4.30017E-002	-4.35232E-002	2.34792E-004	..........a	-327.66
	8	2.325	-4.31734E-002	-4.36925E-002	2.52326E-004	..........a	-327.66
	9	2.58333	-4.33433E-002	-4.38599E-002	2.44326E-004	..........a	-327.66
	10	2.84167	-4.35117E-002	-4.40244E-002	2.36592E-004	..........a	-327.66
	11	3.1	-4.36790E-002	-4.41911E-002	2.37792E-004	..........a	-327.66
	12	3.35833	-4.38457E-002	-4.43536E-002	2.42126E-004	..........a	-327.66
	13	3.61667	-4.40117E-002	-4.45237E-002	2.26792E-004	..........a	-327.66
	14	3.875	-4.41776E-002	-4.46963E-002	2.27726E-004	..........a	-327.66
	15	4.13333	-4.43443E-002	-4.48666E-002	2.43459E-004	..........a	-327.66
	16	4.39167	-4.45124E-002	-4.50258E-002	2.39392E-004	..........a	-327.66
	17	4.65	-4.46811E-002	-4.51946E-002	2.29859E-004	..........a	-327.66
	18	4.90833	-4.48487E-002	-4.53538E-002	2.41926E-004	..........a	-327.66
	19	5.16667	-4.50147E-002	-4.55180E-002	2.37392E-004	..........a	-327.66
	20	5.425	-4.51790E-002	-4.56789E-002	2.30259E-004	..........a	-327.66
	21	5.68333	-4.53421E-002	-4.58380E-002	2.34259E-004	..........a	-327.66
	22	5.94167	-4.55042E-002	-4.60011E-002	2.41259E-004	..........a	-327.66
	23	6.2	-4.56657E-002	-4.61624E-002	2.36392E-004	..........a	-327.66
	24	6.45833	-4.58268E-002	-4.63163E-002	2.39926E-004	..........a	-327.66
	25	6.71667	-4.59873E-002	-4.64692E-002	2.40259E-004	..........a	-327.66
	26	6.975	-4.61461E-002	-4.66260E-002	2.35926E-004	..........a	-327.66
	27	7.23333	-4.63030E-002	-4.67809E-002	2.36526E-004	..........a	-327.66
	28	7.49167	-4.64587E-002	-4.69367E-002	2.43926E-004	..........a	-327.66
	29	7.75	-4.66137E-002	-4.70853E-002	2.47592E-004	..........a	-327.66
	30	8.00833	-4.67682E-002	-4.72353E-002	2.47926E-004	..........a	-327.66
	31	8.26667	-4.69216E-002	-4.73942E-002	2.43392E-004	..........a	-327.66
	32	8.525	-4.70743E-002	-4.75459E-002	2.27192E-004	..........a	-327.66
	33	8.78333	-4.72271E-002	-4.77001E-002	2.31526E-004	..........a	-327.66
	34	9.04167	-4.73804E-002	-4.78503E-002	2.48192E-004	..........a	-327.66
	35	9.3	-4.75338E-002	-4.80030E-002	2.40992E-004	..........a	-327.66
	36	9.5583	-4.76867E-002	-4.81522E-002	2.29592E-004	..........a	-327.66
	37	9.8167	-4.78387E-002	-4.82986E-002	2.39059E-004	..........a	-327.66
	38	10.075	-4.79894E-002	-4.84416E-002	2.51526E-004	..........a	-327.66
EOC	QUANT	-0.0479894	Open Circuit (V)
PSTATMODEL	IQUANT	7	Pstat Model
PSTATSECTION	LABEL	REF600P-43058	Pstat Section
PSTATSERIALNO	LABEL	43058	Pstat Serial Number
CTRLMODE	IQUANT	1	Control Mode
ELECTROMETER	IQUANT	0	RE=0 or CS=1
IESTAB	IQUANT	2	I/E Stability
CASPEED	IQUANT	4	Control Amp Speed
CONVENTION	IQUANT	1	Current Convention
ICHRANGE	IQUANT	2	Ich Range
ICHRANGEMODE	TOGGLE	F	Ich Auto Range
ICHOFFSETENABLE	TOGGLE	F	Ich Offset Enable
ICHOFFSET	QUANT	0	Ich Offset (V)
ICHFILTER	IQUANT	1	Ich Filter
VCHRANGE	IQUANT	2	Vch Range
VCHRANGEMODE	TOGGLE	F	Vch Auto Range
VCHOFFSETENABLE	TOGGLE	F	Vch Offset Enable
VCHOFFSET	QUANT	0	Vch Offset (V)
VCHFILTER	IQUANT	1	Vch Filter
ACHRANGE	IQUANT	2	Ach Range
ACHOFFSETENABLE	TOGGLE	F	Ach Offset Enable
ACHOFFSET	QUANT	0	Ach Offset (V)
ACHFILTER	IQUANT	1	Ach Filter
IERANGELOWERLIMIT	IQUANT	1	I/E Range Lower Limit
IERANGEMODE	TOGGLE	T	I/E AutoRange
IERANGE	IQUANT	4	I/E Range
POSFEEDENABLE	TOGGLE	F	Positive Feedback IR Comp
POSFEEDRESISTANCE	QUANT	0	Positive Feedback Resistance (ohm)
ACHSELECT	IQUANT	4	Ach Select
SENSECABLEID	IQUANT	7	Sense Cable ID
PWRCABLEID	IQUANT	7	Power Cable ID
DCCALDATE	LABEL	3/22/2024	DC Calibration Date
ACCALDATE	LABEL	3/22/2024	AC Calibration Date
THERMOSELECT	IQUANT	1	Thermo Select
FRAMEWORKVERSION	LABEL	7.8.4	Framework Version
INSTRUMENTVERSION	LABEL	4.42	Instrument Version
CURVE1	TABLE
	Pt	T	Vf	Im	Vu	Sig	Ach	IERange	Over	Temp
	#	s	V vs. Ref.	A	V	V	V	#	bits	deg C
	0	0.0002	-4.80029E-002	1.94999E-007	0.00000E+000	-4.80000E-002	8.15923E-005	8	..........a	-327.66
	1	0.0004	-5.78529E-002	-7.15035E-007	0.00000E+000	-5.80000E-002	8.15923E-005	8	..........a	-327.66
	2	0.0006	-6.78529E-002	-1.40506E-006	0.00000E+000	-6.80000E-002	8.15923E-005	8	..........a	-327.66
	3	0.0008	-7.79529E-002	-1.94508E-006	0.00000E+000	-7.80000E-002	8.15923E-005	8	..........a	-327.66
	4	0.001	-8.80529E-002	-2.40510E-006	0.00000E+000	-8.80000E-002	8.15923E-005	8	..........a	-327.66
	5	0.0012	-9.79529E-002	-2.85512E-006	0.00000E+000	-9.80000E-002	8.15923E-005	8	..........a	-327.66
	6	0.0014	-1.07753E-001	-3.12513E-006	0.00000E+000	-1.08000E-001	-2.18408E-004	8	..........a	-327.66
	7	0.0016	-1.17953E-001	-3.45514E-006	0.00000E+000	-1.18000E-001	8.15923E-005	8	..........a	-327.66
	8	0.0018	-1.27953E-001	-3.73515E-006	0.00000E+000	-1.28000E-001	8.15923E-005	8	..........a	-327.66
	9	0.002	-1.37953E-001	-4.03516E-006	0.00000E+000	-1.38000E-001	8.15923E-005	8	..........a	-327.66
	10	0.0022	-1.47953E-001	-4.21517E-006	0.00000E+000	-1.48000E-001	8.15923E-005	8	..........a	-327.66
	11	0.0024	-1.57953E-001	-4.40518E-006	0.00000E+000	-1.58000E-001	8.15923E-005	8	..........a	-327.66
	12	0.0026	-1.67953E-001	-4.57518E-006	0.00000E+000	-1.68000E-001	8.15923E-005	8	..........a	-327.66
	13	0.0028	-1.77953E-001	-4.74519E-006	0.00000E+000	-1.78000E-001	8.15923E-005	8	..........a	-327.66
	14	0.003	-1.87853E-001	-4.86519E-006	0.00000E+000	-1.88000E-001	8.15923E-005	8	..........a	-327.66
	15	0.0032	-1.97953E-001	-5.09520E-006	0.00000E+000	-1.98000E-001	8.15923E-005	8	..........a	-327.66
	16	0.0034	-2.07953E-001	-5.16521E-006	0.00000E+000	-2.08000E-001	8.15923E-005	8	..........a	-327.66
	17	0.0036	-2.18003E-001	-5.23521E-006	0.00000E+000	-2.18000E-001	8.15923E-005	8	..........a	-327.66
	18	0.0038	-2.27853E-001	-5.44522E-006	0.00000E+000	-2.28000E-001	8.15923E-005	8	..........a	-327.66
	19	0.004	-2.38053E-001	-5.56522E-006	0.00000E+000	-2.38000E-001	8.15923E-005	8	..........a	-327.66
	20	0.0042	-2.47753E-001	-5.65522E-006	0.00000E+000	-2.48000E-001	8.15923E-005	8	..........a	-327.66
	21	0.0044	-2.57753E-001	-5.76523E-006	0.00000E+000	-2.58000E-001	8.15923E-005	8	..........a	-327.66
	22	0.0046	-2.67953E-001	-5.87523E-006	0.00000E+000	-2.68000E-001	8.15923E-005	8	..........a	-327.66
	23	0.0048	-2.77953E-001	-6.01524E-006	0.00000E+000	-2.78000E-001	8.15923E-005	8	..........a	-327.66
	24	0.005	-2.87953E-001	-6.09524E-006	0.00000E+000	-2.88000E-001	8.15923E-005	8	..........a	-327.66
	25	0.0052	-2.97953E-001	-6.21525E-006	0.00000E+000	-2.98000E-001	8.15923E-005	8	..........a	-327.66
	26	0.0054	-3.07753E-001	-6.36525E-006	0.00000E+000	-3.08000E-001	8.15923E-005	8	..........a	-327.66
	27	0.0056	-3.17953E-001	-6.42525E-006	0.00000E+000	-3.18000E-001	8.15923E-005	8	..........a	-327.66
	28	0.0058	-3.27953E-001	-6.51526E-006	0.00000E+000	-3.28000E-001	8.15923E-005	8	..........a	-327.66
	29	0.006	-3.38003E-001	-6.68526E-006	0.00000E+000	-3.38000E-001	8.15923E-005	8	..........a	-327.66
	30	0.0062	-3.47853E-001	-6.78527E-006	0.00000E+000	-3.48000E-001	8.15923E-005	8	..........a	-327.66
	31	0.0064	-3.57953E-001	-6.90527E-006	0.00000E+000	-3.58000E-001	8.15923E-005	8	..........a	-327.66
	32	0.0066	-3.67953E-001	-7.04528E-006	0.00000E+000	-3.68000E-001	8.15923E-005	8	..........a	-327.66
	33	0.0068	-3.77953E-001	-7.15528E-006	0.00000E+000	-3.78000E-001	8.15923E-005	8	..........a	-327.66
	34	0.007	-3.87753E-001	-7.25529E-006	0.00000E+000	-3.88000E-001	8.15923E-005	8	..........a	-327.66
	35	0.0072	-3.97853E-001	-7.43529E-006	0.00000E+000	-3.98000E-001	8.15923E-005	8	..........a	-327.66
	36	0.0074	-4.07953E-001	-7.53530E-006	0.00000E+000	-4.08000E-001	8.15923E-005	8	..........a	-327.66
	37	0.0076	-4.17953E-001	-7.68530E-006	0.00000E+000	-4.18000E-001	8.15923E-005	8	..........a	-327.66
	38	0.0078	-4.27853E-001	-7.77531E-006	0.00000E+000	-4.28000E-001	8.15923E-005	8	..........a	-327.66
	39	0.008	-4.37953E-001	-7.97531E-006	0.00000E+000	-4.38000E-001	8.15923E-005	8	..........a	-327.66
	40	0.0082	-4.47903E-001	-8.11532E-006	0.00000E+000	-4.48000E-001	8.15923E-005	8	..........a	-327.66
	41	0.0084	-4.57953E-001	-8.24532E-006	0.00000E+000	-4.58000E-001	-3.18408E-004	8	..........a	-327.66
	42	0.0086	-4.67903E-001	-8.38533E-006	0.00000E+000	-4.68000E-001	8.15923E-005	8	..........a	-327.66
	43	0.0088	-4.77753E-001	-8.47533E-006	0.00000E+000	-4.78000E-001	8.15923E-005	8	..........a	-327.66
	44	0.009	-4.87853E-001	-8.64534E-006	0.00000E+000	-4.88000E-001	8.15923E-005	8	..........a	-327.66
	45	0.0092	-4.97953E-001	-8.76534E-006	0.00000E+000	-4.98000E-001	8.15923E-005	8	..........a	-327.66
	46	0.0094	-5.07853E-001	-9.01535E-006	0.00000E+000	-5.08000E-001	8.15923E-005	8	..........a	-327.66
	47	0.0096	-5.17953E-001	-9.06535E-006	0.00000E+000	-5.18000E-001	8.15923E-005	8	..........a	-327.66
	48	0.0098	-5.27753E-001	-9.25536E-006	0.00000E+000	-5.28000E-001	8.15923E-005	8	..........a	-327.66
	49	0.01	-5.37853E-001	-9.42537E-006	0.00000E+000	-5.38000E-001	8.15923E-005	8	..........a	-327.66
	50	0.0102	-5.47753E-001	-9.55537E-006	0.00000E+000	-5.48000E-001	8.15923E-005	8	..........a	-327.66
	51	0.0104	-5.57753E-001	-9.72538E-006	0.00000E+000	-5.58000E-001	8.15923E-005	8	..........a	-327.66
	52	0.0106	-5.67853E-001	-9.85538E-006	0.00000E+000	-5.68000E-001	8.15923E-005	8	..........a	-327.66
	53	0.0108	-5.77953E-001	-9.93539E-006	0.00000E+000	-5.78000E-001	-3.18408E-004	8	..........a	-327.66
	54	0.011	-5.87803E-001	-1.01454E-005	0.00000E+000	-5.88000E-001	8.15923E-005	8	..........a	-327.66
	55	0.0112	-5.97953E-001	-1.02954E-005	0.00000E+000	-5.98000E-001	8.15923E-005	8	..........a	-327.66
	56	0.0114	-5.87753E-001	-8.53533E-006	0.00000E+000	-5.88000E-001	8.15923E-005	8	..........a	-327.66
	57	0.0116	-5.77853E-001	-7.12528E-006	0.00000E+000	-5.78000E-001	8.15923E-005	8	..........a	-327.66
	58	0.0118	-5.67753E-001	-6.00524E-006	0.00000E+000	-5.68000E-001	8.15923E-005	8	..........a	-327.66
	59	0.012	-5.57953E-001	-5.03520E-006	0.00000E+000	-5.58000E-001	8.15923E-005	8	..........a	-327.66
	60	0.0122	-5.47853E-001	-4.15517E-006	0.00000E+000	-5.48000E-001	8.15923E-005	8	..........a	-327.66
	61	0.0124	-5.37953E-001	-3.32514E-006	0.00000E+000	-5.38000E-001	8.15923E-005	8	..........a	-327.66
	62	0.0126	-5.28053E-001	-2.59511E-006	0.00000E+000	-5.28000E-001	8.15923E-005	8	..........a	-327.66
	63	0.0128	-5.17853E-001	-1.97508E-006	0.00000E+000	-5.18000E-001	8.15923E-005	8	..........a	-327.66
	64	0.013	-5.07853E-001	-1.36506E-006	0.00000E+000	-5.08000E-001	8.15923E-005	8	..........a	-327.66
	65	0.0132	-4.97953E-001	-8.05039E-007	0.00000E+000	-4.98000E-001	8.15923E-005	8	..........a	-327.66
	66	0.0134	-4.87803E-001	-2.55018E-007	0.00000E+000	-4.88000E-001	8.15923E-005	8	..........a	-327.66
	67	0.0136	-4.78103E-001	2.35001E-007	0.00000E+000	-4.78000E-001	8.15923E-005	8	..........a	-327.66
	68	0.0138	-4.67803E-001	6.45017E-007	0.00000E+000	-4.68000E-001	8.15923E-005	8	..........a	-327.66
	69	0.014	-4.57953E-001	1.01503E-006	0.00000E+000	-4.58000E-001	8.15923E-005	8	..........a	-327.66
	70	0.0142	-4.47953E-001	1.58505E-006	0.00000E+000	-4.48000E-001	8.15923E-005	8	..........a	-327.66
	71	0.0144	-4.37753E-001	1.78506E-006	0.00000E+000	-4.38000E-001	8.15923E-005	8	..........a	-327.66
	72	0.0146	-4.27753E-001	2.15507E-006	0.00000E+000	-4.28000E-001	8.15923E-005	8	..........a	-327.66
	73	0.0148	-4.18003E-001	2.43509E-006	0.00000E+000	-4.18000E-001	8.15923E-005	8	..........a	-327.66
	74	0.015	-4.07953E-001	2.76510E-006	0.00000E+000	-4.08000E-001	-1.18408E-004	8	..........a	-327.66
	75	0.0152	-3.97953E-001	3.05511E-006	0.00000E+000	-3.98000E-001	8.15923E-005	8	..........a	-327.66
	76	0.0154	-3.87853E-001	3.24512E-006	0.00000E+000	-3.88000E-001	8.15923E-005	8	..........a	-327.66
	77	0.0156	-3.78053E-001	3.50513E-006	0.00000E+000	-3.78000E-001	8.15923E-005	8	..........a	-327.66
	78	0.0158	-3.67953E-001	3.77514E-006	0.00000E+000	-3.68000E-001	8.15923E-005	8	..........a	-327.66
	79	0.016	-3.57953E-001	3.96514E-006	0.00000E+000	-3.58000E-001	8.15923E-005	8	..........a	-327.66
	80	0.0162	-3.47853E-001	4.18515E-006	0.00000E+000	-3.48000E-001	8.15923E-005	8	..........a	-327.66
	81	0.0164	-3.37953E-001	4.34516E-006	0.00000E+000	-3.38000E-001	8.15923E-005	8	..........a	-327.66
	82	0.0166	-3.27853E-001	4.55517E-006	0.00000E+000	-3.28000E-001	8.15923E-005	8	..........a	-327.66
	83	0.0168	-3.17753E-001	4.68517E-006	0.00000E+000	-3.18000E-001	8.15923E-005	8	..........a	-327.66
	84	0.017	-3.07753E-001	4.88518E-006	0.00000E+000	-3.08000E-001	8.15923E-005	8	..........a	-327.66
	85	0.0172	-2.97953E-001	5.02518E-006	0.00000E+000	-2.98000E-001	8.15923E-005	8	..........a	-327.66
	86	0.0174	-2.87853E-001	5.17519E-006	0.00000E+000	-2.88000E-001	8.15923E-005	8	..........a	-327.66
	87	0.0176	-2.77953E-001	5.27519E-006	0.00000E+000	-2.78000E-001	8.15923E-005	8	..........a	-327.66
	88	0.0178	-2.67753E-001	5.45520E-006	0.00000E+000	-2.68000E-001	8.15923E-005	8	..........a	-327.66
	89	0.018	-2.57953E-001	5.57521E-006	0.00000E+000	-2.58000E-001	8.15923E-005	8	..........a	-327.66
	90	0.0182	-2.47953E-001	5.68521E-006	0.00000E+000	-2.48000E-001	8.15923E-005	8	..........a	-327.66
	91	0.0184	-2.37953E-001	5.77521E-006	0.00000E+000	-2.38000E-001	8.15923E-005	8	..........a	-327.66
	92	0.0186	-2.27753E-001	5.91522E-006	0.00000E+000	-2.28000E-001	8.15923E-005	8	..........a	-327.66
	93	0.0188	-2.17753E-001	6.01522E-006	0.00000E+000	-2.18000E-001	8.15923E-005	8	..........a	-327.66
	94	0.019	-2.07953E-001	6.11523E-006	0.00000E+000	-2.08000E-001	-3.18408E-004	8	..........a	-327.66
	95	0.0192	-1.97953E-001	6.24523E-006	0.00000E+000	-1.98000E-001	8.15923E-005	8	..........a	-327.66
	96	0.0194	-1.87803E-001	6.32523E-006	0.00000E+000	-1.88000E-001	8.15923E-005	8	..........a	-327.66
	97	0.0196	-1.77953E-001	6.44524E-006	0.00000E+000	-1.78000E-001	8.15923E-005	8	..........a	-327.66
	98	0.0198	-1.67853E-001	6.55524E-006	0.00000E+000	-1.68000E-001	8.15923E-005	8	..........a	-327.66
	99	0.02	-1.58053E-001	6.63525E-006	0.00000E+000	-1.58000E-001	8.15923E-005	8	..........a	-327.66
	100	0.0202	-1.47953E-001	6.71525E-006	0.00000E+000	-1.48000E-001	8.15923E-005	8	..........a	-327.66
	101	0.0204	-1.37953E-001	6.75525E-006	0.00000E+000	-1.38000E-001	8.15923E-005	8	..........a	-327.66
	102	0.0206	-1.27953E-001	6.86525E-006	0.00000E+000	-1.28000E-001	8.15923E-005	8	..........a	-327.66
	103	0.0208	-1.17953E-001	6.92526E-006	0.00000E+000	-1.18000E-001	8.15923E-005	8	..........a	-327.66
	104	0.021	-1.07803E-001	7.01526E-006	0.00000E+000	-1.08000E-001	8.15923E-005	8	..........a	-327.66
	105	0.0212	-9.78529E-002	7.05526E-006	0.00000E+000	-9.80000E-002	8.15923E-005	8	..........a	-327.66
	106	0.0214	-8.81529E-002	7.17527E-006	0.00000E+000	-8.80000E-002	8.15923E-005	8	..........a	-327.66
	107	0.0216	-7.80529E-002	7.22527E-006	0.00000E+000	-7.80000E-002	8.15923E-005	8	..........a	-327.66
	108	0.0218	-6.77529E-002	7.35527E-006	0.00000E+000	-6.80000E-002	8.15923E-005	8	..........a	-327.66
	109	0.022	-5.81029E-002	7.36527E-006	0.00000E+000	-5.80000E-002	8.15923E-005	8	..........a	-327.66
	110	0.0222	-4.80529E-002	7.47528E-006	0.00000E+000	-4.80000E-002	8.15923E-005	8	..........a	-327.66
	111	0.0224	-3.79029E-002	7.53528E-006	0.00000E+000	-3.80000E-002	8.15923E-005	8	..........a	-327.66
	112	0.0226	-2.82029E-002	7.64529E-006	0.00000E+000	-2.80000E-002	8.15923E-005	8	..........a	-327.66
	113	0.0228	-1.79529E-002	7.68529E-006	0.00000E+000	-1.80000E-002	8.15923E-005	8	..........a	-327.66
	114	0.023	-7.85289E-003	7.83529E-006	0.00000E+000	-7.99999E-003	8.15923E-005	8	..........a	-327.66
	115	0.0232	2.04711E-003	7.89529E-006	0.00000E+000	2.00000E-003	8.15923E-005	8	..........a	-327.66
	116	0.0234	1.18471E-002	7.94530E-006	0.00000E+000	1.20000E-002	8.15923E-005	8	..........a	-327.66
	117	0.0236	2.20971E-002	8.05530E-006	0.00000E+000	2.20000E-002	8.15923E-005	8	..........a	-327.66
	118	0.0238	3.18971E-002	8.16530E-006	0.00000E+000	3.20000E-002	8.15923E-005	8	..........a	-327.66
	119	0.024	4.20471E-002	8.20531E-006	0.00000E+000	4.20000E-002	-3.18408E-004	8	..........a	-327.66
	120	0.0242	5.20971E-002	8.31531E-006	0.00000E+000	5.20000E-002	8.15923E-005	8	..........a	-327.66
	121	0.0244	6.20471E-002	8.42531E-006	0.00000E+000	6.20000E-002	8.15923E-005	8	..........a	-327.66
	122	0.0246	7.22471E-002	8.50532E-006	0.00000E+000	7.20000E-002	-2.18408E-004	8	..........a	-327.66
	123	0.0248	8.20471E-002	8.60532E-006	0.00000E+000	8.20000E-002	8.15923E-005	8	..........a	-327.66
	124	0.025	9.21971E-002	8.70532E-006	0.00000E+000	9.20000E-002	8.15923E-005	8	..........a	-327.66
	125	0.0252	1.02097E-001	8.82533E-006	0.00000E+000	1.02000E-001	8.15923E-005	8	..........a	-327.66
	126	0.0254	1.11947E-001	9.00534E-006	0.00000E+000	1.12000E-001	8.15923E-005	8	..........a	-327.66
	127	0.0256	1.22147E-001	9.08534E-006	0.00000E+000	1.22000E-001	8.15923E-005	8	..........a	-327.66
	128	0.0258	1.32197E-001	9.22534E-006	0.00000E+000	1.32000E-001	8.15923E-005	8	..........a	-327.66
	129	0.026	1.42047E-001	9.36535E-006	0.00000E+000	1.42000E-001	8.15923E-005	8	..........a	-327.66
	130	0.0262	1.52097E-001	9.54536E-006	0.00000E+000	1.52000E-001	8.15923E-005	8	..........a	-327.66
	131	0.0264	1.62047E-001	9.81537E-006	0.00000E+000	1.62000E-001	8.15923E-005	8	..........a	-327.66
	132	0.0266	1.72197E-001	1.01754E-005	0.00000E+000	1.72000E-001	8.15923E-005	8	..........a	-327.66
	133	0.0268	1.82047E-001	1.03954E-005	0.00000E+000	1.82000E-001	8.15923E-005	8	..........a	-327.66
	134	0.027	1.92147E-001	1.04854E-005	0.00000E+000	1.92000E-001	8.15923E-005	8	..........a	-327.66
	135	0.0272	2.02047E-001	1.05954E-005	0.00000E+000	2.02000E-001	8.15923E-005	8	..........a	-327.66
	136	0.0274	2.12047E-001	1.08454E-005	0.00000E+000	2.12000E-001	8.15923E-005	8	..........a	-327.66
	137	0.0276	2.22047E-001	1.10654E-005	0.00000E+000	2.22000E-001	8.15923E-005	8	..........a	-327.66
	138	0.0278	2.31947E-001	1.11654E-005	0.00000E+000	2.32000E-001	8.15923E-005	8	..........a	-327.66
	139	0.028	2.42147E-001	1.11954E-005	0.00000E+000	2.42000E-001	8.15923E-005	8	..........a	-327.66
	140	0.0282	2.52197E-001	1.13254E-005	0.00000E+000	2.52000E-001	8.15923E-005	8	..........a	-327.66
	141	0.0284	2.61947E-001	1.15054E-005	0.00000E+000	2.62000E-001	8.15923E-005	8	..........a	-327.66
	142	0.0286	2.72147E-001	1.16454E-005	0.00000E+000	2.72000E-001	8.15923E-005	8	..........a	-327.66
	143	0.0288	2.81847E-001	1.18754E-005	0.00000E+000	2.82000E-001	8.15923E-005	8	..........a	-327.66
	144	0.029	2.92047E-001	1.20355E-005	0.00000E+000	2.92000E-001	8.15923E-005	8	..........a	-327.66
	145	0.0292	3.01947E-001	1.22355E-005	0.00000E+000	3.02000E-001	8.15923E-005	8	..........a	-327.66
	146	0.0294	3.12047E-001	1.23555E-005	0.00000E+000	3.12000E-001	8.15923E-005	8	..........a	-327.66
	147	0.0296	3.22047E-001	1.26255E-005	0.00000E+000	3.22000E-001	8.15923E-005	8	..........a	-327.66
	148	0.0298	3.32247E-001	1.27855E-005	0.00000E+000	3.32000E-001	8.15923E-005	8	..........a	-327.66
	149	0.03	3.41947E-001	1.29655E-005	0.00000E+000	3.42000E-001	8.15923E-005	8	..........a	-327.66
	150	0.0302	3.51697E-001	1.31755E-005	0.00000E+000	3.52000E-001	8.15923E-005	8	..........a	-327.66
	151	0.0304	3.61947E-001	1.33255E-005	0.00000E+000	3.62000E-001	8.15923E-005	8	..........a	-327.66
	152	0.0306	3.72197E-001	1.35055E-005	0.00000E+000	3.72000E-001	8.15923E-005	8	..........a	-327.66
	153	0.0308	3.81947E-001	1.37055E-005	0.00000E+000	3.82000E-001	8.15923E-005	8	..........a	-327.66
	154	0.031	3.91947E-001	1.38755E-005	0.00000E+000	3.92000E-001	8.15923E-005	8	..........a	-327.66
	155	0.0312	4.02047E-001	1.40755E-005	0.00000E+000	4.02000E-001	8.15923E-005	8	..........a	-327.66
	156	0.0314	4.12047E-001	1.42455E-005	0.00000E+000	4.12000E-001	-2.18408E-004	8	..........a	-327.66
	157	0.0316	4.22047E-001	1.44855E-005	0.00000E+000	4.22000E-001	8.15923E-005	8	..........a	-327.66
	158	0.0318	4.31947E-001	1.45956E-005	0.00000E+000	4.32000E-001	8.15923E-005	8	..........a	-327.66
	159	0.032	4.42047E-001	1.47756E-005	0.00000E+000	4.42000E-001	8.15923E-005	8	..........a	-327.66
	160	0.0322	4.52247E-001	1.49656E-005	0.00000E+000	4.52000E-001	8.15923E-005	8	..........a	-327.66
	161	0.0324	4.61897E-001	1.51156E-005	0.00000E+000	4.62000E-001	8.15923E-005	8	..........a	-327.66
	162	0.0326	4.72047E-001	1.53056E-005	0.00000E+000	4.72000E-001	8.15923E-005	8	..........a	-327.66
	163	0.0328	4.81847E-001	1.55356E-005	0.00000E+000	4.82000E-001	8.15923E-005	8	..........a	-327.66
	164	0.033	4.92097E-001	1.56656E-005	0.00000E+000	4.92000E-001	8.15923E-005	8	..........a	-327.66
	165	0.0332	5.02047E-001	1.58356E-005	0.00000E+000	5.02000E-001	8.15923E-005	8	..........a	-327.66
	166	0.0334	5.11847E-001	1.60256E-005	0.00000E+000	5.12000E-001	8.15923E-005	8	..........a	-327.66
	167	0.0336	5.21947E-001	1.61156E-005	0.00000E+000	5.22000E-001	8.15923E-005	8	..........a	-327.66
	168	0.0338	5.32147E-001	1.63256E-005	0.00000E+000	5.32000E-001	8.15923E-005	8	..........a	-327.66
	169	0.034	5.41947E-001	1.63856E-005	0.00000E+000	5.42000E-001	8.15923E-005	8	..........a	-327.66
	170	0.0342	5.51947E-001	1.65456E-005	0.00000E+000	5.52000E-001	-3.18408E-004	8	..........a	-327.66
	171	0.0344	5.61947E-001	1.67256E-005	0.00000E+000	5.62000E-001	8.15923E-005	8	..........a	-327.66
	172	0.0346	5.72047E-001	1.68556E-005	0.00000E+000	5.72000E-001	8.15923E-005	8	..........a	-327.66
	173	0.0348	5.81947E-001	1.69556E-005	0.00000E+000	5.82000E-001	8.15923E-005	8	..........a	-327.66
	174	0.035	5.91947E-001	1.70756E-005	0.00000E+000	5.92000E-001	8.15923E-005	8	..........a	-327.66
	175	0.0352	6.02047E-001	1.72157E-005	0.00000E+000	6.02000E-001	-2.18408E-004	8	..........a	-327.66
	176	0.0354	6.12047E-001	1.73257E-005	0.00000E+000	6.12000E-001	8.15923E-005	8	..........a	-327.66
	177	0.0356	6.22047E-001	1.74657E-005	0.00000E+000	6.22000E-001	8.15923E-005	8	..........a	-327.66
	178	0.0358	6.31797E-001	1.75457E-005	0.00000E+000	6.32000E-001	8.15923E-005	8	..........a	-327.66
	179	0.036	6.41947E-001	1.77257E-005	0.00000E+000	6.42000E-001	8.15923E-005	8	..........a	-327.66
	180	0.0362	6.51847E-001	1.78257E-005	0.00000E+000	6.52000E-001	-3.18408E-004	8	..........a	-327.66
	181	0.0364	6.61747E-001	1.79657E-005	0.00000E+000	6.62000E-001	8.15923E-005	8	..........a	-327.66
	182	0.0366	6.71947E-001	1.80657E-005	0.00000E+000	6.72000E-001	-2.18408E-004	8	..........a	-327.66
	183	0.0368	6.81847E-001	1.81657E-005	0.00000E+000	6.82000E-001	8.15923E-005	8	..........a	-327.66
	184	0.037	6.92047E-001	1.83057E-005	0.00000E+000	6.92000E-001	8.15923E-005	8	..........a	-327.66
	185	0.0372	7.01947E-001	1.83957E-005	0.00000E+000	7.02000E-001	8.15923E-005	8	..........a	-327.66
	186	0.0374	7.11847E-001	1.84757E-005	0.00000E+000	7.12000E-001	8.15923E-005	8	..........a	-327.66
	187	0.0376	7.21847E-001	1.86057E-005	0.00000E+000	7.22000E-001	8.15923E-005	8	..........a	-327.66
	188	0.0378	7.31947E-001	1.86857E-005	0.00000E+000	7.32000E-001	8.15923E-005	8	..........a	-327.66
	189	0.038	7.41847E-001	1.87157E-005	0.00000E+000	7.42000E-001	8.15923E-005	8	..........a	-327.66
	190	0.0382	7.51847E-001	1.88457E-005	0.00000E+000	7.52000E-001	8.15923E-005	8	..........a	-327.66
	191	0.0384	7.61847E-001	1.88957E-005	0.00000E+000	7.62000E-001	8.15923E-005	8	..........a	-327.66
	192	0.0386	7.71947E-001	1.89757E-005	0.00000E+000	7.72000E-001	8.15923E-005	8	..........a	-327.66
	193	0.0388	7.82147E-001	1.90457E-005	0.00000E+000	7.82000E-001	8.15923E-005	8	..........a	-327.66
	194	0.039	7.91847E-001	1.90357E-005	0.00000E+000	7.92000E-001	8.15923E-005	8	..........a	-327.66
	195	0.0392	8.01847E-001	1.91157E-005	0.00000E+000	8.02000E-001	-3.18408E-004	8	..........a	-327.66
CURVE2	TABLE
	Pt	T	Vf	Im	Vu	Sig	Ach	IERange	Over	Temp
	#	s	V vs. Ref.	A	V	V	V	#	bits	deg C
	196	0.0394	7.89947E-001	1.66356E-005	0.00000E+000	7.90000E-001	8.15923E-005	8	..........a	-327.66
	197	0.0396	7.79847E-001	1.48856E-005	0.00000E+000	7.80000E-001	8.15923E-005	8	..........a	-327.66
	198	0.0398	7.70047E-001	1.33355E-005	0.00000E+000	7.70000E-001	8.15923E-005	8	..........a	-327.66
	199	0.04	7.59847E-001	1.20055E-005	0.00000E+000	7.60000E-001	8.15923E-005	8	..........a	-327.66
	200	0.0402	7.50047E-001	1.07654E-005	0.00000E+000	7.50000E-001	8.15923E-005	8	..........a	-327.66
	201	0.0404	7.39947E-001	9.67536E-006	0.00000E+000	7.40000E-001	8.15923E-005	8	..........a	-327.66
	202	0.0406	7.29847E-001	8.62532E-006	0.00000E+000	7.30000E-001	8.15923E-005	8	..........a	-327.66
	203	0.0408	7.19947E-001	7.64529E-006	0.00000E+000	7.20000E-001	-2.18408E-004	8	..........a	-327.66
	204	0.041	7.09747E-001	6.75525E-006	0.00000E+000	7.10000E-001	8.15923E-005	8	..........a	-327.66
	205	0.0412	7.00147E-001	5.92522E-006	0.00000E+000	7.00000E-001	8.15923E-005	8	..........a	-327.66
	206	0.0414	6.90047E-001	5.10519E-006	0.00000E+000	6.90000E-001	8.15923E-005	8	..........a	-327.66
	207	0.0416	6.80147E-001	4.38516E-006	0.00000E+000	6.80000E-001	8.15923E-005	8	..........a	-327.66
	208	0.0418	6.69847E-001	3.70513E-006	0.00000E+000	6.70000E-001	8.15923E-005	8	..........a	-327.66
	209	0.042	6.59947E-001	3.08511E-006	0.00000E+000	6.60000E-001	8.15923E-005	8	..........a	-327.66
	210	0.0422	6.49697E-001	2.41508E-006	0.00000E+000	6.50000E-001	8.15923E-005	8	..........a	-327.66
	211	0.0424	6.40147E-001	1.90506E-006	0.00000E+000	6.40000E-001	8.15923E-005	8	..........a	-327.66
	212	0.0426	6.30047E-001	1.32504E-006	0.00000E+000	6.30000E-001	8.15923E-005	8	..........a	-327.66
	213	0.0428	6.19847E-001	7.85022E-007	0.00000E+000	6.20000E-001	8.15923E-005	8	..........a	-327.66
	214	0.043	6.10047E-001	3.05004E-007	0.00000E+000	6.10000E-001	8.15923E-005	8	..........a	-327.66
	215	0.0432	5.99947E-001	-2.25017E-007	0.00000E+000	6.00000E-001	8.15923E-005	8	..........a	-327.66
	216	0.0434	5.89947E-001	-6.85034E-007	0.00000E+000	5.90000E-001	8.15923E-005	8	..........a	-327.66
	217	0.0436	5.79847E-001	-1.12505E-006	0.00000E+000	5.80000E-001	8.15923E-005	8	..........a	-327.66
	218	0.0438	5.69947E-001	-1.56507E-006	0.00000E+000	5.70000E-001	8.15923E-005	8	..........a	-327.66
	219	0.044	5.60047E-001	-1.94508E-006	0.00000E+000	5.60000E-001	8.15923E-005	8	..........a	-327.66
	220	0.0442	5.49947E-001	-2.29510E-006	0.00000E+000	5.50000E-001	8.15923E-005	8	..........a	-327.66
	221	0.0444	5.40047E-001	-2.68511E-006	0.00000E+000	5.40000E-001	8.15923E-005	8	..........a	-327.66
	222	0.0446	5.30147E-001	-3.03512E-006	0.00000E+000	5.30000E-001	8.15923E-005	8	..........a	-327.66
	223	0.0448	5.20047E-001	-3.36514E-006	0.00000E+000	5.20000E-001	8.15923E-005	8	..........a	-327.66
	224	0.045	5.09947E-001	-3.64515E-006	0.00000E+000	5.10000E-001	8.15923E-005	8	..........a	-327.66
	225	0.0452	5.00247E-001	-4.03516E-006	0.00000E+000	5.00000E-001	8.15923E-005	8	..........a	-327.66
	226	0.0454	4.90047E-001	-4.35517E-006	0.00000E+000	4.90000E-001	8.15923E-005	8	..........a	-327.66
	227	0.0456	4.80047E-001	-4.67519E-006	0.00000E+000	4.80000E-001	8.15923E-005	8	..........a	-327.66
	228	0.0458	4.70047E-001	-4.96520E-006	0.00000E+000	4.70000E-001	-3.18408E-004	8	..........a	-327.66
	229	0.046	4.59947E-001	-5.24521E-006	0.00000E+000	4.60000E-001	8.15923E-005	8	..........a	-327.66
	230	0.0462	4.50047E-001	-5.53522E-006	0.00000E+000	4.50000E-001	8.15923E-005	8	..........a	-327.66
	231	0.0464	4.40047E-001	-5.81523E-006	0.00000E+000	4.40000E-001	8.15923E-005	8	..........a	-327.66
	232	0.0466	4.29997E-001	-6.09524E-006	0.00000E+000	4.30000E-001	8.15923E-005	8	..........a	-327.66
	233	0.0468	4.19847E-001	-6.35525E-006	0.00000E+000	4.20000E-001	8.15923E-005	8	..........a	-327.66
	234	0.047	4.10047E-001	-6.63526E-006	0.00000E+000	4.10000E-001	8.15923E-005	8	..........a	-327.66
	235	0.0472	4.00147E-001	-6.91527E-006	0.00000E+000	4.00000E-001	8.15923E-005	8	..........a	-327.66
	236	0.0474	3.90047E-001	-7.14528E-006	0.00000E+000	3.90000E-001	8.15923E-005	8	..........a	-327.66
	237	0.0476	3.79947E-001	-7.43529E-006	0.00000E+000	3.80000E-001	8.15923E-005	8	..........a	-327.66
	238	0.0478	3.70047E-001	-7.70530E-006	0.00000E+000	3.70000E-001	8.15923E-005	8	..........a	-327.66
	239	0.048	3.59847E-001	-7.97531E-006	0.00000E+000	3.60000E-001	8.15923E-005	8	..........a	-327.66
	240	0.0482	3.49947E-001	-8.18532E-006	0.00000E+000	3.50000E-001	8.15923E-005	8	..........a	-327.66
	241	0.0484	3.40147E-001	-8.45533E-006	0.00000E+000	3.40000E-001	8.15923E-005	8	..........a	-327.66
	242	0.0486	3.30047E-001	-8.64534E-006	0.00000E+000	3.30000E-001	8.15923E-005	8	..........a	-327.66
	243	0.0488	3.20047E-001	-8.98535E-006	0.00000E+000	3.20000E-001	8.15923E-005	8	..........a	-327.66
	244	0.049	3.10047E-001	-9.20536E-006	0.00000E+000	3.10000E-001	8.15923E-005	8	..........a	-327.66
	245	0.0492	3.00247E-001	-9.47537E-006	0.00000E+000	3.00000E-001	8.15923E-005	8	..........a	-327.66
	246	0.0494	2.90147E-001	-9.71538E-006	0.00000E+000	2.90000E-001	8.15923E-005	8	..........a	-327.66
	247	0.0496	2.79947E-001	-9.92539E-006	0.00000E+000	2.80000E-001	8.15923E-005	8	..........a	-327.66
	248	0.0498	2.70047E-001	-1.02754E-005	0.00000E+000	2.70000E-001	8.15923E-005	8	..........a	-327.66
	249	0.05	2.60047E-001	-1.05354E-005	0.00000E+000	2.60000E-001	-3.18408E-004	8	..........a	-327.66
	250	0.0502	2.49947E-001	-1.07054E-005	0.00000E+000	2.50000E-001	8.15923E-005	8	..........a	-327.66
	251	0.0504	2.40147E-001	-1.09354E-005	0.00000E+000	2.40000E-001	8.15923E-005	8	..........a	-327.66
	252	0.0506	2.30047E-001	-1.11254E-005	0.00000E+000	2.30000E-001	8.15923E-005	8	..........a	-327.66
	253	0.0508	2.20147E-001	-1.13754E-005	0.00000E+000	2.20000E-001	8.15923E-005	8	..........a	-327.66
	254	0.051	2.10047E-001	-1.15655E-005	0.00000E+000	2.10000E-001	8.15923E-005	8	..........a	-327.66
	255	0.0512	2.00147E-001	-1.18155E-005	0.00000E+000	2.00000E-001	8.15923E-005	8	..........a	-327.66
	256	0.0514	1.89947E-001	-1.19855E-005	0.00000E+000	1.90000E-001	8.15923E-005	8	..........a	-327.66
	257	0.0516	1.80147E-001	-1.21555E-005	0.00000E+000	1.80000E-001	8.15923E-005	8	..........a	-327.66
	258	0.0518	1.69947E-001	-1.23755E-005	0.00000E+000	1.70000E-001	-3.18408E-004	8	..........a	-327.66
	259	0.052	1.59897E-001	-1.25555E-005	0.00000E+000	1.60000E-001	8.15923E-005	8	..........a	-327.66
	260	0.0522	1.49997E-001	-1.27155E-005	0.00000E+000	1.50000E-001	8.15923E-005	8	..........a	-327.66
	261	0.0524	1.40147E-001	-1.28155E-005	0.00000E+000	1.40000E-001	8.15923E-005	8	..........a	-327.66
	262	0.0526	1.29747E-001	-1.30355E-005	0.00000E+000	1.30000E-001	8.15923E-005	8	..........a	-327.66
	263	0.0528	1.20047E-001	-1.31755E-005	0.00000E+000	1.20000E-001	8.15923E-005	8	..........a	-327.66
	264	0.053	1.10047E-001	-1.33555E-005	0.00000E+000	1.10000E-001	8.15923E-005	8	..........a	-327.66
	265	0.0532	1.00147E-001	-1.34955E-005	0.00000E+000	1.00000E-001	8.15923E-005	8	..........a	-327.66
	266	0.0534	9.00471E-002	-1.36055E-005	0.00000E+000	9.00000E-002	8.15923E-005	8	..........a	-327.66
	267	0.0536	8.00471E-002	-1.37655E-005	0.00000E+000	8.00000E-002	8.15923E-005	8	..........a	-327.66
	268	0.0538	7.00471E-002	-1.38855E-005	0.00000E+000	7.00000E-002	8.15923E-005	8	..........a	-327.66
	269	0.054	6.01471E-002	-1.38855E-005	0.00000E+000	6.00000E-002	8.15923E-005	8	..........a	-327.66
	270	0.0542	4.99471E-002	-1.40555E-005	0.00000E+000	5.00000E-002	8.15923E-005	8	..........a	-327.66
	271	0.0544	3.98471E-002	-1.42156E-005	0.00000E+000	4.00000E-002	8.15923E-005	8	..........a	-327.66
	272	0.0546	3.00471E-002	-1.43756E-005	0.00000E+000	3.00000E-002	8.15923E-005	8	..........a	-327.66
	273	0.0548	2.02471E-002	-1.44656E-005	0.00000E+000	2.00000E-002	8.15923E-005	8	..........a	-327.66
	274	0.055	1.00471E-002	-1.45956E-005	0.00000E+000	1.00000E-002	8.15923E-005	8	..........a	-327.66
	275	0.0552	1.47114E-004	-1.47256E-005	0.00000E+000	7.45058E-009	8.15923E-005	8	..........a	-327.66
	276	0.0554	-9.95289E-003	-1.48356E-005	0.00000E+000	-1.00000E-002	8.15923E-005	8	..........a	-327.66
	277	0.0556	-1.98529E-002	-1.49556E-005	0.00000E+000	-2.00000E-002	8.15923E-005	8	..........a	-327.66
	278	0.0558	-2.99529E-002	-1.50456E-005	0.00000E+000	-3.00000E-002	-3.18408E-004	8	..........a	-327.66
	279	0.056	-3.99529E-002	-1.50556E-005	0.00000E+000	-4.00000E-002	8.15923E-005	8	..........a	-327.66
	280	0.0562	-4.99529E-002	-1.51656E-005	0.00000E+000	-5.00000E-002	8.15923E-005	8	..........a	-327.66
	281	0.0564	-5.97529E-002	-1.51056E-005	0.00000E+000	-6.00000E-002	8.15923E-005	8	..........a	-327.66
	282	0.0566	-6.99529E-002	-1.50456E-005	0.00000E+000	-7.00000E-002	8.15923E-005	8	..........a	-327.66
	283	0.0568	-7.98529E-002	-1.48556E-005	0.00000E+000	-8.00000E-002	8.15923E-005	8	..........a	-327.66
	284	0.057	-8.98529E-002	-1.47256E-005	0.00000E+000	-9.00000E-002	8.15923E-005	8	..........a	-327.66
	285	0.0572	-9.98529E-002	-1.47156E-005	0.00000E+000	-1.00000E-001	8.15923E-005	8	..........a	-327.66
	286	0.0574	-1.09953E-001	-1.47656E-005	0.00000E+000	-1.10000E-001	8.15923E-005	8	..........a	-327.66
	287	0.0576	-1.19953E-001	-1.48056E-005	0.00000E+000	-1.20000E-001	8.15923E-005	8	..........a	-327.66
	288	0.0578	-1.30053E-001	-1.46756E-005	0.00000E+000	-1.30000E-001	8.15923E-005	8	..........a	-327.66
	289	0.058	-1.39753E-001	-1.45356E-005	0.00000E+000	-1.40000E-001	8.15923E-005	8	..........a	-327.66
	290	0.0582	-1.49953E-001	-1.43656E-005	0.00000E+000	-1.50000E-001	8.15923E-005	8	..........a	-327.66
	291	0.0584	-1.60053E-001	-1.42256E-005	0.00000E+000	-1.60000E-001	8.15923E-005	8	..........a	-327.66
	292	0.0586	-1.69953E-001	-1.41255E-005	0.00000E+000	-1.70000E-001	8.15923E-005	8	..........a	-327.66
	293	0.0588	-1.79853E-001	-1.40355E-005	0.00000E+000	-1.80000E-001	8.15923E-005	8	..........a	-327.66
	294	0.059	-1.90053E-001	-1.39555E-005	0.00000E+000	-1.90000E-001	8.15923E-005	8	..........a	-327.66
	295	0.0592	-1.99953E-001	-1.38855E-005	0.00000E+000	-2.00000E-001	8.15923E-005	8	..........a	-327.66
	296	0.0594	-2.09953E-001	-1.37255E-005	0.00000E+000	-2.10000E-001	8.15923E-005	8	..........a	-327.66
	297	0.0596	-2.19853E-001	-1.36355E-005	0.00000E+000	-2.20000E-001	8.15923E-005	8	..........a	-327.66
	298	0.0598	-2.29953E-001	-1.35955E-005	0.00000E+000	-2.30000E-001	8.15923E-005	8	..........a	-327.66
	299	0.06	-2.39853E-001	-1.34755E-005	0.00000E+000	-2.40000E-001	8.15923E-005	8	..........a	-327.66
	300	0.0602	-2.49753E-001	-1.33855E-005	0.00000E+000	-2.50000E-001	8.15923E-005	8	..........a	-327.66
	301	0.0604	-2.59953E-001	-1.32555E-005	0.00000E+000	-2.60000E-001	8.15923E-005	8	..........a	-327.66
	302	0.0606	-2.69953E-001	-1.31255E-005	0.00000E+000	-2.70000E-001	8.15923E-005	8	..........a	-327.66
	303	0.0608	-2.79953E-001	-1.30255E-005	0.00000E+000	-2.80000E-001	8.15923E-005	8	..........a	-327.66
	304	0.061	-2.89853E-001	-1.29255E-005	0.00000E+000	-2.90000E-001	8.15923E-005	8	..........a	-327.66
	305	0.0612	-2.99853E-001	-1.28155E-005	0.00000E+000	-3.00000E-001	8.15923E-005	8	..........a	-327.66
	306	0.0614	-3.09953E-001	-1.26755E-005	0.00000E+000	-3.10000E-001	-2.18408E-004	8	..........a	-327.66
	307	0.0616	-3.20053E-001	-1.25655E-005	0.00000E+000	-3.20000E-001	8.15923E-005	8	..........a	-327.66
	308	0.0618	-3.30003E-001	-1.25055E-005	0.00000E+000	-3.30000E-001	8.15923E-005	8	..........a	-327.66
	309	0.062	-3.39803E-001	-1.23755E-005	0.00000E+000	-3.40000E-001	8.15923E-005	8	..........a	-327.66
	310	0.0622	-3.49953E-001	-1.22955E-005	0.00000E+000	-3.50000E-001	8.15923E-005	8	..........a	-327.66
	311	0.0624	-3.59953E-001	-1.22555E-005	0.00000E+000	-3.60000E-001	8.15923E-005	8	..........a	-327.66
	312	0.0626	-3.69653E-001	-1.21755E-005	0.00000E+000	-3.70000E-001	8.15923E-005	8	..........a	-327.66
	313	0.0628	-3.79753E-001	-1.20755E-005	0.00000E+000	-3.80000E-001	8.15923E-005	8	..........a	-327.66
	314	0.063	-3.89953E-001	-1.20355E-005	0.00000E+000	-3.90000E-001	8.15923E-005	8	..........a	-327.66
	315	0.0632	-3.99953E-001	-1.19955E-005	0.00000E+000	-4.00000E-001	8.15923E-005	8	..........a	-327.66
	316	0.0634	-4.09853E-001	-1.19355E-005	0.00000E+000	-4.10000E-001	8.15923E-005	8	..........a	-327.66
	317	0.0636	-4.19653E-001	-1.19055E-005	0.00000E+000	-4.20000E-001	8.15923E-005	8	..........a	-327.66
	318	0.0638	-4.29953E-001	-1.18655E-005	0.00000E+000	-4.30000E-001	8.15923E-005	8	..........a	-327.66
	319	0.064	-4.39753E-001	-1.18355E-005	0.00000E+000	-4.40000E-001	8.15923E-005	8	..........a	-327.66
	320	0.0642	-4.49953E-001	-1.18155E-005	0.00000E+000	-4.50000E-001	8.15923E-005	8	..........a	-327.66
	321	0.0644	-4.59953E-001	-1.17955E-005	0.00000E+000	-4.60000E-001	8.15923E-005	8	..........a	-327.66
	322	0.0646	-4.69753E-001	-1.17955E-005	0.00000E+000	-4.70000E-001	1.81592E-004	8	..........a	-327.66
	323	0.0648	-4.79853E-001	-1.17855E-005	0.00000E+000	-4.80000E-001	8.15923E-005	8	..........a	-327.66
	324	0.065	-4.89853E-001	-1.18155E-005	0.00000E+000	-4.90000E-001	8.15923E-005	8	..........a	-327.66
	325	0.0652	-4.99953E-001	-1.17555E-005	0.00000E+000	-5.00000E-001	8.15923E-005	8	..........a	-327.66
	326	0.0654	-5.09853E-001	-1.18155E-005	0.00000E+000	-5.10000E-001	8.15923E-005	8	..........a	-327.66
	327	0.0656	-5.19753E-001	-1.18055E-005	0.00000E+000	-5.20000E-001	8.15923E-005	8	..........a	-327.66
	328	0.0658	-5.29853E-001	-1.17855E-005	0.00000E+000	-5.30000E-001	8.15923E-005	8	..........a	-327.66
	329	0.066	-5.39653E-001	-1.18755E-005	0.00000E+000	-5.40000E-001	8.15923E-005	8	..........a	-327.66
	330	0.0662	-5.49953E-001	-1.18655E-005	0.00000E+000	-5.50000E-001	8.15923E-005	8	..........a	-327.66
	331	0.0664	-5.59853E-001	-1.18955E-005	0.00000E+000	-5.60000E-001	8.15923E-005	8	..........a	-327.66
	332	0.0666	-5.70053E-001	-1.19455E-005	0.00000E+000	-5.70000E-001	8.15923E-005	8	..........a	-327.66
	333	0.0668	-5.79853E-001	-1.19655E-005	0.00000E+000	-5.80000E-001	8.15923E-005	8	..........a	-327.66
	334	0.067	-5.89853E-001	-1.20155E-005	0.00000E+000	-5.90000E-001	8.15923E-005	8	..........a	-327.66
	335	0.0672	-5.99853E-001	-1.20755E-005	0.00000E+000	-6.00000E-001	8.15923E-005	8	..........a	-327.66
	336	0.0674	-5.90053E-001	-1.02054E-005	0.00000E+000	-5.90000E-001	8.15923E-005	8	..........a	-327.66
	337	0.0676	-5.79853E-001	-8.65534E-006	0.00000E+000	-5.80000E-001	8.15923E-005	8	..........a	-327.66
	338	0.0678	-5.69853E-001	-7.49529E-006	0.00000E+000	-5.70000E-001	8.15923E-005	8	..........a	-327.66
	339	0.068	-5.59953E-001	-6.45526E-006	0.00000E+000	-5.60000E-001	8.15923E-005	8	..........a	-327.66
	340	0.0682	-5.50053E-001	-5.47522E-006	0.00000E+000	-5.50000E-001	8.15923E-005	8	..........a	-327.66
	341	0.0684	-5.39853E-001	-4.57518E-006	0.00000E+000	-5.40000E-001	8.15923E-005	8	..........a	-327.66
	342	0.0686	-5.29853E-001	-3.79515E-006	0.00000E+000	-5.30000E-001	8.15923E-005	8	..........a	-327.66
	343	0.0688	-5.19853E-001	-3.07513E-006	0.00000E+000	-5.20000E-001	8.15923E-005	8	..........a	-327.66
	344	0.069	-5.09953E-001	-2.43510E-006	0.00000E+000	-5.10000E-001	8.15923E-005	8	..........a	-327.66
[...]
	2603	0.5208	-3.19753E-001	4.18515E-006	0.00000E+000	-3.20000E-001	8.15923E-005	8	..........a	-327.66
	2604	0.521	-3.09953E-001	4.32516E-006	0.00000E+000	-3.10000E-001	8.15923E-005	8	..........a	-327.66
	2605	0.5212	-2.99853E-001	4.53517E-006	0.00000E+000	-3.00000E-001	8.15923E-005	8	..........a	-327.66
	2606	0.5214	-2.89853E-001	4.70517E-006	0.00000E+000	-2.90000E-001	8.15923E-005	8	..........a	-327.66
	2607	0.5216	-2.79803E-001	4.86518E-006	0.00000E+000	-2.80000E-001	8.15923E-005	8	..........a	-327.66
	2608	0.5218	-2.69953E-001	4.95518E-006	0.00000E+000	-2.70000E-001	8.15923E-005	8	..........a	-327.66
	2609	0.522	-2.59753E-001	5.13519E-006	0.00000E+000	-2.60000E-001	8.15923E-005	8	..........a	-327.66
	2610	0.5222	-2.49953E-001	5.28519E-006	0.00000E+000	-2.50000E-001	8.15923E-005	8	..........a	-327.66
	2611	0.5224	-2.40153E-001	5.44520E-006	0.00000E+000	-2.40000E-001	8.15923E-005	8	..........a	-327.66
	2612	0.5226	-2.30053E-001	5.56521E-006	0.00000E+000	-2.30000E-001	8.15923E-005	8	..........a	-327.66
	2613	0.5228	-2.19853E-001	5.68521E-006	0.00000E+000	-2.20000E-001	8.15923E-005	8	..........a	-327.66
	2614	0.523	-2.09853E-001	5.81521E-006	0.00000E+000	-2.10000E-001	8.15923E-005	8	..........a	-327.66
	2615	0.5232	-1.99853E-001	5.95522E-006	0.00000E+000	-2.00000E-001	8.15923E-005	8	..........a	-327.66
	2616	0.5234	-1.90153E-001	6.06522E-006	0.00000E+000	-1.90000E-001	8.15923E-005	8	..........a	-327.66
	2617	0.5236	-1.80003E-001	6.27523E-006	0.00000E+000	-1.80000E-001	8.15923E-005	8	..........a	-327.66
	2618	0.5238	-1.69953E-001	6.28523E-006	0.00000E+000	-1.70000E-001	8.15923E-005	8	..........a	-327.66
	2619	0.524	-1.59903E-001	6.41524E-006	0.00000E+000	-1.60000E-001	8.15923E-005	8	..........a	-327.66
	2620	0.5242	-1.49953E-001	6.54524E-006	0.00000E+000	-1.50000E-001	8.15923E-005	8	..........a	-327.66
	2621	0.5244	-1.39753E-001	6.71525E-006	0.00000E+000	-1.40000E-001	8.15923E-005	8	..........a	-327.66
	2622	0.5246	-1.30053E-001	6.76525E-006	0.00000E+000	-1.30000E-001	8.15923E-005	8	..........a	-327.66
	2623	0.5248	-1.19853E-001	6.88526E-006	0.00000E+000	-1.20000E-001	8.15923E-005	8	..........a	-327.66
	2624	0.525	-1.09953E-001	7.00526E-006	0.00000E+000	-1.10000E-001	8.15923E-005	8	..........a	-327.66
	2625	0.5252	-9.98529E-002	7.11526E-006	0.00000E+000	-1.00000E-001	8.15923E-005	8	..........a	-327.66
	2626	0.5254	-8.99529E-002	7.23527E-006	0.00000E+000	-9.00000E-002	8.15923E-005	8	..........a	-327.66
	2627	0.5256	-8.01529E-002	7.30527E-006	0.00000E+000	-8.00000E-002	8.15923E-005	8	..........a	-327.66
	2628	0.5258	-6.97529E-002	7.45528E-006	0.00000E+000	-7.00000E-002	8.15923E-005	8	..........a	-327.66
	2629	0.526	-5.97529E-002	7.51528E-006	0.00000E+000	-6.00000E-002	8.15923E-005	8	..........a	-327.66
	2630	0.5262	-4.99529E-002	7.69529E-006	0.00000E+000	-5.00000E-002	8.15923E-005	8	..........a	-327.66
	2631	0.5264	-3.99529E-002	7.77529E-006	0.00000E+000	-4.00000E-002	8.15923E-005	8	..........a	-327.66
	2632	0.5266	-2.99529E-002	7.89529E-006	0.00000E+000	-3.00000E-002	-3.18408E-004	8	..........a	-327.66
	2633	0.5268	-1.99529E-002	8.02530E-006	0.00000E+000	-2.00000E-002	8.15923E-005	8	..........a	-327.66
	2634	0.527	-1.01529E-002	8.15530E-006	0.00000E+000	-1.00000E-002	8.15923E-005	8	..........a	-327.66
	2635	0.5272	-1.02886E-004	8.29531E-006	0.00000E+000	7.45058E-009	8.15923E-005	8	..........a	-327.66
	2636	0.5274	1.00471E-002	8.39531E-006	0.00000E+000	1.00000E-002	8.15923E-005	8	..........a	-327.66
	2637	0.5276	2.01971E-002	8.52532E-006	0.00000E+000	2.00000E-002	8.15923E-005	8	..........a	-327.66
	2638	0.5278	3.00471E-002	8.66532E-006	0.00000E+000	3.00000E-002	8.15923E-005	8	..........a	-327.66
	2639	0.528	4.00471E-002	8.79533E-006	0.00000E+000	4.00000E-002	8.15923E-005	8	..........a	-327.66
	2640	0.5282	4.99471E-002	8.89533E-006	0.00000E+000	5.00000E-002	8.15923E-005	8	..........a	-327.66
	2641	0.5284	5.99471E-002	9.03534E-006	0.00000E+000	6.00000E-002	8.15923E-005	8	..........a	-327.66
	2642	0.5286	7.01471E-002	9.17534E-006	0.00000E+000	7.00000E-002	8.15923E-005	8	..........a	-327.66
	2643	0.5288	7.98471E-002	9.31535E-006	0.00000E+000	8.00000E-002	8.15923E-005	8	..........a	-327.66
	2644	0.529	9.00471E-002	9.47536E-006	0.00000E+000	9.00000E-002	8.15923E-005	8	..........a	-327.66
	2645	0.5292	1.00047E-001	9.61536E-006	0.00000E+000	1.00000E-001	8.15923E-005	8	..........a	-327.66
	2646	0.5294	1.10147E-001	9.78537E-006	0.00000E+000	1.10000E-001	8.15923E-005	8	..........a	-327.66
	2647	0.5296	1.19947E-001	1.00254E-005	0.00000E+000	1.20000E-001	8.15923E-005	8	..........a	-327.66
	2648	0.5298	1.30147E-001	1.07154E-005	0.00000E+000	1.30000E-001	8.15923E-005	8	..........a	-327.66
	2649	0.53	1.40147E-001	1.13554E-005	0.00000E+000	1.40000E-001	8.15923E-005	8	..........a	-327.66
	2650	0.5302	1.50047E-001	1.18754E-005	0.00000E+000	1.50000E-001	8.15923E-005	8	..........a	-327.66
	2651	0.5304	1.59947E-001	1.22155E-005	0.00000E+000	1.60000E-001	8.15923E-005	8	..........a	-327.66
	2652	0.5306	1.70047E-001	1.25255E-005	0.00000E+000	1.70000E-001	8.15923E-005	8	..........a	-327.66
	2653	0.5308	1.79897E-001	1.27355E-005	0.00000E+000	1.80000E-001	8.15923E-005	8	..........a	-327.66
	2654	0.531	1.90247E-001	1.26055E-005	0.00000E+000	1.90000E-001	8.15923E-005	8	..........a	-327.66
	2655	0.5312	2.00147E-001	1.22555E-005	0.00000E+000	2.00000E-001	8.15923E-005	8	..........a	-327.66
	2656	0.5314	2.09947E-001	1.20055E-005	0.00000E+000	2.10000E-001	8.15923E-005	8	..........a	-327.66
	2657	0.5316	2.19747E-001	1.19655E-005	0.00000E+000	2.20000E-001	8.15923E-005	8	..........a	-327.66
	2658	0.5318	2.29947E-001	1.20555E-005	0.00000E+000	2.30000E-001	8.15923E-005	8	..........a	-327.66
	2659	0.532	2.40047E-001	1.20955E-005	0.00000E+000	2.40000E-001	8.15923E-005	8	..........a	-327.66
	2660	0.5322	2.49947E-001	1.22755E-005	0.00000E+000	2.50000E-001	8.15923E-005	8	..........a	-327.66
	2661	0.5324	2.60047E-001	1.24155E-005	0.00000E+000	2.60000E-001	8.15923E-005	8	..........a	-327.66
	2662	0.5326	2.69897E-001	1.25555E-005	0.00000E+000	2.70000E-001	8.15923E-005	8	..........a	-327.66
	2663	0.5328	2.80047E-001	1.26955E-005	0.00000E+000	2.80000E-001	8.15923E-005	8	..........a	-327.66
	2664	0.533	2.90047E-001	1.28655E-005	0.00000E+000	2.90000E-001	-3.18408E-004	8	..........a	-327.66
	2665	0.5332	3.00097E-001	1.30455E-005	0.00000E+000	3.00000E-001	8.15923E-005	8	..........a	-327.66
	2666	0.5334	3.09847E-001	1.32155E-005	0.00000E+000	3.10000E-001	8.15923E-005	8	..........a	-327.66
	2667	0.5336	3.20047E-001	1.33455E-005	0.00000E+000	3.20000E-001	8.15923E-005	8	..........a	-327.66
	2668	0.5338	3.30247E-001	1.35355E-005	0.00000E+000	3.30000E-001	8.15923E-005	8	..........a	-327.66
	2669	0.534	3.40047E-001	1.36955E-005	0.00000E+000	3.40000E-001	-4.18408E-004	8	..........a	-327.66
	2670	0.5342	3.49947E-001	1.38555E-005	0.00000E+000	3.50000E-001	8.15923E-005	8	..........a	-327.66
	2671	0.5344	3.60047E-001	1.40455E-005	0.00000E+000	3.60000E-001	8.15923E-005	8	..........a	-327.66
	2672	0.5346	3.69847E-001	1.41955E-005	0.00000E+000	3.70000E-001	-2.18408E-004	8	..........a	-327.66
	2673	0.5348	3.80197E-001	1.43355E-005	0.00000E+000	3.80000E-001	8.15923E-005	8	..........a	-327.66
	2674	0.535	3.89947E-001	1.45155E-005	0.00000E+000	3.90000E-001	8.15923E-005	8	..........a	-327.66
	2675	0.5352	3.99947E-001	1.46956E-005	0.00000E+000	4.00000E-001	8.15923E-005	8	..........a	-327.66
	2676	0.5354	4.09847E-001	1.48156E-005	0.00000E+000	4.10000E-001	8.15923E-005	8	..........a	-327.66
	2677	0.5356	4.19947E-001	1.49756E-005	0.00000E+000	4.20000E-001	8.15923E-005	8	..........a	-327.66
	2678	0.5358	4.30147E-001	1.51356E-005	0.00000E+000	4.30000E-001	8.15923E-005	8	..........a	-327.66
	2679	0.536	4.39797E-001	1.52556E-005	0.00000E+000	4.40000E-001	8.15923E-005	8	..........a	-327.66
	2680	0.5362	4.49597E-001	1.54156E-005	0.00000E+000	4.50000E-001	8.15923E-005	8	..........a	-327.66
	2681	0.5364	4.60047E-001	1.55656E-005	0.00000E+000	4.60000E-001	8.15923E-005	8	..........a	-327.66
	2682	0.5366	4.70047E-001	1.57056E-005	0.00000E+000	4.70000E-001	8.15923E-005	8	..........a	-327.66
	2683	0.5368	4.80047E-001	1.58356E-005	0.00000E+000	4.80000E-001	8.15923E-005	8	..........a	-327.66
	2684	0.537	4.89947E-001	1.59356E-005	0.00000E+000	4.90000E-001	8.15923E-005	8	..........a	-327.66
	2685	0.5372	5.00047E-001	1.60256E-005	0.00000E+000	5.00000E-001	8.15923E-005	8	..........a	-327.66
	2686	0.5374	5.10047E-001	1.61856E-005	0.00000E+000	5.10000E-001	8.15923E-005	8	..........a	-327.66
	2687	0.5376	5.20047E-001	1.62956E-005	0.00000E+000	5.20000E-001	8.15923E-005	8	..........a	-327.66
	2688	0.5378	5.29947E-001	1.64156E-005	0.00000E+000	5.30000E-001	8.15923E-005	8	..........a	-327.66
	2689	0.538	5.40047E-001	1.65556E-005	0.00000E+000	5.40000E-001	8.15923E-005	8	..........a	-327.66
	2690	0.5382	5.49947E-001	1.66456E-005	0.00000E+000	5.50000E-001	8.15923E-005	8	..........a	-327.66
	2691	0.5384	5.60047E-001	1.67556E-005	0.00000E+000	5.60000E-001	-3.18408E-004	8	..........a	-327.66
	2692	0.5386	5.70047E-001	1.68156E-005	0.00000E+000	5.70000E-001	8.15923E-005	8	..........a	-327.66
	2693	0.5388	5.80047E-001	1.69456E-005	0.00000E+000	5.80000E-001	8.15923E-005	8	..........a	-327.66
	2694	0.539	5.89947E-001	1.70456E-005	0.00000E+000	5.90000E-001	8.15923E-005	8	..........a	-327.66
	2695	0.5392	6.00047E-001	1.71356E-005	0.00000E+000	6.00000E-001	8.15923E-005	8	..........a	-327.66
	2696	0.5394	6.09847E-001	1.72057E-005	0.00000E+000	6.10000E-001	8.15923E-005	8	..........a	-327.66
	2697	0.5396	6.20147E-001	1.73257E-005	0.00000E+000	6.20000E-001	8.15923E-005	8	..........a	-327.66
	2698	0.5398	6.29947E-001	1.74257E-005	0.00000E+000	6.30000E-001	8.15923E-005	8	..........a	-327.66
	2699	0.54	6.39947E-001	1.74457E-005	0.00000E+000	6.40000E-001	8.15923E-005	8	..........a	-327.66
	2700	0.5402	6.49797E-001	1.75357E-005	0.00000E+000	6.50000E-001	8.15923E-005	8	..........a	-327.66
	2701	0.5404	6.60047E-001	1.76257E-005	0.00000E+000	6.60000E-001	8.15923E-005	8	..........a	-327.66
	2702	0.5406	6.69797E-001	1.76657E-005	0.00000E+000	6.70000E-001	8.15923E-005	8	..........a	-327.66
	2703	0.5408	6.80047E-001	1.77257E-005	0.00000E+000	6.80000E-001	8.15923E-005	8	..........a	-327.66
	2704	0.541	6.90047E-001	1.77957E-005	0.00000E+000	6.90000E-001	8.15923E-005	8	..........a	-327.66
	2705	0.5412	7.00047E-001	1.78457E-005	0.00000E+000	7.00000E-001	8.15923E-005	8	..........a	-327.66
	2706	0.5414	7.10147E-001	1.79057E-005	0.00000E+000	7.10000E-001	8.15923E-005	8	..........a	-327.66
	2707	0.5416	7.19847E-001	1.79057E-005	0.00000E+000	7.20000E-001	8.15923E-005	8	..........a	-327.66
	2708	0.5418	7.29947E-001	1.79257E-005	0.00000E+000	7.30000E-001	8.15923E-005	8	..........a	-327.66
	2709	0.542	7.40047E-001	1.79557E-005	0.00000E+000	7.40000E-001	8.15923E-005	8	..........a	-327.66
	2710	0.5422	7.49847E-001	1.79757E-005	0.00000E+000	7.50000E-001	8.15923E-005	8	..........a	-327.66
	2711	0.5424	7.60047E-001	1.79957E-005	0.00000E+000	7.60000E-001	8.15923E-005	8	..........a	-327.66
	2712	0.5426	7.69947E-001	1.79957E-005	0.00000E+000	7.70000E-001	8.15923E-005	8	..........a	-327.66
	2713	0.5428	7.80047E-001	1.79257E-005	0.00000E+000	7.80000E-001	8.15923E-005	8	..........a	-327.66
	2714	0.543	7.90047E-001	1.79657E-005	0.00000E+000	7.90000E-001	8.15923E-005	8	..........a	-327.66
	2715	0.5432	7.99847E-001	1.79557E-005	0.00000E+000	8.00000E-001	8.15923E-005	8	..........a	-327.66
CURVE11	TABLE
	Pt	T	Vf	Im	Vu	Sig	Ach	IERange	Over	Temp
	#	s	V vs. Ref.	A	V	V	V	#	bits	deg C
	2716	0.5434	7.89947E-001	1.56656E-005	0.00000E+000	7.90000E-001	8.15923E-005	8	..........a	-327.66
	2717	0.5436	7.79947E-001	1.38455E-005	0.00000E+000	7.80000E-001	8.15923E-005	8	..........a	-327.66
	2718	0.5438	7.70047E-001	1.22655E-005	0.00000E+000	7.70000E-001	8.15923E-005	8	..........a	-327.66
	2719	0.544	7.59797E-001	1.09554E-005	0.00000E+000	7.60000E-001	8.15923E-005	8	..........a	-327.66
	2720	0.5442	7.49947E-001	9.68536E-006	0.00000E+000	7.50000E-001	8.15923E-005	8	..........a	-327.66
	2721	0.5444	7.39947E-001	8.59532E-006	0.00000E+000	7.40000E-001	8.15923E-005	8	..........a	-327.66
	2722	0.5446	7.30147E-001	7.57528E-006	0.00000E+000	7.30000E-001	8.15923E-005	8	..........a	-327.66
	2723	0.5448	7.20047E-001	6.64525E-006	0.00000E+000	7.20000E-001	8.15923E-005	8	..........a	-327.66
	2724	0.545	7.09947E-001	5.77521E-006	0.00000E+000	7.10000E-001	8.15923E-005	8	..........a	-327.66
	2725	0.5452	6.99947E-001	4.97518E-006	0.00000E+000	7.00000E-001	8.15923E-005	8	..........a	-327.66
	2726	0.5454	6.89947E-001	4.17515E-006	0.00000E+000	6.90000E-001	8.15923E-005	8	..........a	-327.66
	2727	0.5456	6.79947E-001	3.48513E-006	0.00000E+000	6.80000E-001	8.15923E-005	8	..........a	-327.66
	2728	0.5458	6.69797E-001	2.81510E-006	0.00000E+000	6.70000E-001	8.15923E-005	8	..........a	-327.66
	2729	0.546	6.59947E-001	2.18508E-006	0.00000E+000	6.60000E-001	8.15923E-005	8	..........a	-327.66
	2730	0.5462	6.49947E-001	1.60505E-006	0.00000E+000	6.50000E-001	8.15923E-005	8	..........a	-327.66
	2731	0.5464	6.39997E-001	1.08503E-006	0.00000E+000	6.40000E-001	8.15923E-005	8	..........a	-327.66
	2732	0.5466	6.30047E-001	5.25012E-007	0.00000E+000	6.30000E-001	8.15923E-005	8	..........a	-327.66
	2733	0.5468	6.19947E-001	3.49933E-008	0.00000E+000	6.20000E-001	8.15923E-005	8	..........a	-327.66
	2734	0.547	6.10047E-001	-4.55025E-007	0.00000E+000	6.10000E-001	8.15923E-005	8	..........a	-327.66
	2735	0.5472	5.99947E-001	-9.25043E-007	0.00000E+000	6.00000E-001	8.15923E-005	8	..........a	-327.66
	2736	0.5474	5.89947E-001	-1.33506E-006	0.00000E+000	5.90000E-001	8.15923E-005	8	..........a	-327.66
	2737	0.5476	5.79947E-001	-1.76508E-006	0.00000E+000	5.80000E-001	8.15923E-005	8	..........a	-327.66
	2738	0.5478	5.69947E-001	-2.09509E-006	0.00000E+000	5.70000E-001	8.15923E-005	8	..........a	-327.66
	2739	0.548	5.59797E-001	-2.48510E-006	0.00000E+000	5.60000E-001	8.15923E-005	8	..........a	-327.66
	2740	0.5482	5.49997E-001	-2.91512E-006	0.00000E+000	5.50000E-001	8.15923E-005	8	..........a	-327.66
	2741	0.5484	5.40147E-001	-3.21513E-006	0.00000E+000	5.40000E-001	8.15923E-005	8	..........a	-327.66
	2742	0.5486	5.30047E-001	-3.51514E-006	0.00000E+000	5.30000E-001	8.15923E-005	8	..........a	-327.66
	2743	0.5488	5.20047E-001	-3.84516E-006	0.00000E+000	5.20000E-001	8.15923E-005	8	..........a	-327.66
	2744	0.549	5.10047E-001	-4.19517E-006	0.00000E+000	5.10000E-001	-2.18408E-004	8	..........a	-327.66
	2745	0.5492	5.00047E-001	-4.51518E-006	0.00000E+000	5.00000E-001	8.15923E-005	8	..........a	-327.66
	2746	0.5494	4.89947E-001	-4.74519E-006	0.00000E+000	4.90000E-001	8.15923E-005	8	..........a	-327.66
	2747	0.5496	4.80147E-001	-5.03520E-006	0.00000E+000	4.80000E-001	-2.18408E-004	8	..........a	-327.66
	2748	0.5498	4.70047E-001	-5.33521E-006	0.00000E+000	4.70000E-001	8.15923E-005	8	..........a	-327.66
	2749	0.55	4.60147E-001	-5.61522E-006	0.00000E+000	4.60000E-001	8.15923E-005	8	..........a	-327.66
	2750	0.5502	4.49947E-001	-5.87523E-006	0.00000E+000	4.50000E-001	8.15923E-005	8	..........a	-327.66
	2751	0.5504	4.40047E-001	-6.16524E-006	0.00000E+000	4.40000E-001	8.15923E-005	8	..........a	-327.66
	2752	0.5506	4.29847E-001	-6.41525E-006	0.00000E+000	4.30000E-001	8.15923E-005	8	..........a	-327.66
	2753	0.5508	4.19947E-001	-6.67526E-006	0.00000E+000	4.20000E-001	8.15923E-005	8	..........a	-327.66
	2754	0.551	4.09947E-001	-6.91527E-006	0.00000E+000	4.10000E-001	8.15923E-005	8	..........a	-327.66
	2755	0.5512	3.99947E-001	-7.19528E-006	0.00000E+000	4.00000E-001	8.15923E-005	8	..........a	-327.66
	2756	0.5514	3.89847E-001	-7.44529E-006	0.00000E+000	3.90000E-001	8.15923E-005	8	..........a	-327.66
	2757	0.5516	3.80247E-001	-7.68530E-006	0.00000E+000	3.80000E-001	8.15923E-005	8	..........a	-327.66
	2758	0.5518	3.70047E-001	-7.97531E-006	0.00000E+000	3.70000E-001	8.15923E-005	8	..........a	-327.66
	2759	0.552	3.60147E-001	-8.16532E-006	0.00000E+000	3.60000E-001	8.15923E-005	8	..........a	-327.66
	2760	0.5522	3.49947E-001	-8.43533E-006	0.00000E+000	3.50000E-001	8.15923E-005	8	..........a	-327.66
	2761	0.5524	3.40147E-001	-8.60534E-006	0.00000E+000	3.40000E-001	8.15923E-005	8	..........a	-327.66
	2762	0.5526	3.29947E-001	-8.91535E-006	0.00000E+000	3.30000E-001	8.15923E-005	8	..........a	-327.66
	2763	0.5528	3.20047E-001	-9.16536E-006	0.00000E+000	3.20000E-001	8.15923E-005	8	..........a	-327.66
	2764	0.553	3.10047E-001	-9.40537E-006	0.00000E+000	3.10000E-001	8.15923E-005	8	..........a	-327.66
	2765	0.5532	3.00147E-001	-9.65538E-006	0.00000E+000	3.00000E-001	8.15923E-005	8	..........a	-327.66
	2766	0.5534	2.90047E-001	-9.88539E-006	0.00000E+000	2.90000E-001	-3.18408E-004	8	..........a	-327.66
	2767	0.5536	2.80047E-001	-1.01454E-005	0.00000E+000	2.80000E-001	8.15923E-005	8	..........a	-327.66
	2768	0.5538	2.70047E-001	-1.03354E-005	0.00000E+000	2.70000E-001	8.15923E-005	8	..........a	-327.66
	2769	0.554	2.60047E-001	-1.05954E-005	0.00000E+000	2.60000E-001	8.15923E-005	8	..........a	-327.66
	2770	0.5542	2.50147E-001	-1.08554E-005	0.00000E+000	2.50000E-001	8.15923E-005	8	..........a	-327.66
	2771	0.5544	2.40147E-001	-1.10754E-005	0.00000E+000	2.40000E-001	8.15923E-005	8	..........a	-327.66
	2772	0.5546	2.29947E-001	-1.12854E-005	0.00000E+000	2.30000E-001	8.15923E-005	8	..........a	-327.66
	2773	0.5548	2.20247E-001	-1.14854E-005	0.00000E+000	2.20000E-001	8.15923E-005	8	..........a	-327.66
	2774	0.555	2.09947E-001	-1.16555E-005	0.00000E+000	2.10000E-001	8.15923E-005	8	..........a	-327.66
	2775	0.5552	2.00147E-001	-1.18955E-005	0.00000E+000	2.00000E-001	8.15923E-005	8	..........a	-327.66
	2776	0.5554	1.90047E-001	-1.21155E-005	0.00000E+000	1.90000E-001	8.15923E-005	8	..........a	-327.66
	2777	0.5556	1.79947E-001	-1.23155E-005	0.00000E+000	1.80000E-001	-3.18408E-004	8	..........a	-327.66
	2778	0.5558	1.69997E-001	-1.24355E-005	0.00000E+000	1.70000E-001	8.15923E-005	8	..........a	-327.66
	2779	0.556	1.60047E-001	-1.26055E-005	0.00000E+000	1.60000E-001	8.15923E-005	8	..........a	-327.66
	2780	0.5562	1.50147E-001	-1.27655E-005	0.00000E+000	1.50000E-001	8.15923E-005	8	..........a	-327.66
	2781	0.5564	1.40147E-001	-1.29155E-005	0.00000E+000	1.40000E-001	8.15923E-005	8	..........a	-327.66
	2782	0.5566	1.30147E-001	-1.31755E-005	0.00000E+000	1.30000E-001	8.15923E-005	8	..........a	-327.66
	2783	0.5568	1.20147E-001	-1.32755E-005	0.00000E+000	1.20000E-001	8.15923E-005	8	..........a	-327.66
	2784	0.557	1.10147E-001	-1.33955E-005	0.00000E+000	1.10000E-001	8.15923E-005	8	..........a	-327.66
	2785	0.5572	1.00047E-001	-1.35955E-005	0.00000E+000	1.00000E-001	8.15923E-005	8	..........a	-327.66
	2786	0.5574	9.00471E-002	-1.36755E-005	0.00000E+000	9.00000E-002	8.15923E-005	8	..........a	-327.66
	2787	0.5576	8.01471E-002	-1.37755E-005	0.00000E+000	8.00000E-002	8.15923E-005	8	..........a	-327.66
	2788	0.5578	7.00471E-002	-1.39355E-005	0.00000E+000	7.00000E-002	8.15923E-005	8	..........a	-327.66
	2789	0.558	6.01471E-002	-1.40755E-005	0.00000E+000	6.00000E-002	-2.18408E-004	8	..........a	-327.66
	2790	0.5582	5.00471E-002	-1.42156E-005	0.00000E+000	5.00000E-002	8.15923E-005	8	..........a	-327.66
	2791	0.5584	4.00471E-002	-1.43756E-005	0.00000E+000	4.00000E-002	8.15923E-005	8	..........a	-327.66
	2792	0.5586	3.01471E-002	-1.44556E-005	0.00000E+000	3.00000E-002	8.15923E-005	8	..........a	-327.66
	2793	0.5588	2.01471E-002	-1.45956E-005	0.00000E+000	2.00000E-002	8.15923E-005	8	..........a	-327.66
	2794	0.559	1.00471E-002	-1.47656E-005	0.00000E+000	1.00000E-002	8.15923E-005	8	..........a	-327.66
	2795	0.5592	1.47114E-004	-1.50056E-005	0.00000E+000	7.45058E-009	8.15923E-005	8	..........a	-327.66
	2796	0.5594	-9.95289E-003	-1.52656E-005	0.00000E+000	-1.00000E-002	8.15923E-005	8	..........a	-327.66
	2797	0.5596	-1.97529E-002	-1.55256E-005	0.00000E+000	-2.00000E-002	8.15923E-005	8	..........a	-327.66
	2798	0.5598	-2.99529E-002	-1.58556E-005	0.00000E+000	-3.00000E-002	8.15923E-005	8	..........a	-327.66
	2799	0.56	-3.99529E-002	-1.61256E-005	0.00000E+000	-4.00000E-002	8.15923E-005	8	..........a	-327.66
	2800	0.5602	-4.99529E-002	-1.63256E-005	0.00000E+000	-5.00000E-002	8.15923E-005	8	..........a	-327.66