File: data/raw/batch_data/20240424_ZM_GM0016_HL03_E10_CV50.DTA
EXPLAIN
TAG	CV
TITLE	LABEL	Cyclic Voltammetry	Test &Identifier
DATE	LABEL	4/24/2024	Date
TIME	LABEL	18:53:39	Time
NOTES	NOTES	1	&Notes...

PSTAT	PSTAT	REF600P-43058	Potentiostat
VINIT	POTEN	0.00000E+000	T	Initial &E (V)
VLIMIT1	POTEN	-6.00000E-001	F	Scan Limit &1 (V)
VLIMIT2	POTEN	8.00000E-001	F	Scan Limit &2 (V)
VFINAL	POTEN	0.00000E+000	T	Final &E (V)
SCANRATE	QUANT	4.99999E+001	&Scan Rate (mV/s)
STEPSIZE	QUANT	1.00000E+001	St&ep Size (mV)
CYCLES	IQUANT	4	C&ycles (#)
IMODE	SELECTOR	0	I/E Range &Mode
IRANGE	QUANT	1.00000E-005	&Max Current (mA)
AREA	QUANT	1.00000E+000	Electrode &Area (cm^2)
ELECTRODETYPE	SELECTOR	0	Electrode Type
STRIPPING	TOGGLE	F	Used for Stripping
POLARITY	TOGGLE	F	Signal Polarity
CONDIT	TWOPARAM	F	1.50000E+001	0.00000E+000	Conditionin&g	Time(s)	E(V)
DELAY	TWOPARAM	T	1.00000E+001	0.00000E+000	Init. De&lay	Time(s)	Stab.(mV/s)
EQDELAY	QUANT	1.00000E+001	Equil. &Time (s)
IRCOMP	SELECTOR	0	IRCom&p
PFCOR	QUANT	5.00000E+001	PF Corr. (ohm)
SAMPLINGMODE	SELECTOR	1	Sampling &Mode
OCVCURVE	TABLE	39
	Pt	T	Vf	Vm	Ach	Over	Temp
	#	s	V vs. Ref.	V	V	bits	deg C
	0	0.258333	-8.10836E-002	-8.10836E-002	2.28792E-004	..........a	-327.66
	1	0.516667	-8.10861E-002	-8.12113E-002	2.41859E-004	..........a	-327.66
	2	0.775	-8.11011E-002	-8.13335E-002	2.24126E-004	..........a	-327.66
	3	1.03333	-8.11436E-002	-8.14547E-002	2.41992E-004	..........a	-327.66
	4	1.29167	-8.12205E-002	-8.15810E-002	2.29192E-004	..........a	-327.66
	5	1.55	-8.13245E-002	-8.17001E-002	2.50192E-004	..........a	-327.66
	6	1.80833	-8.14432E-002	-8.18284E-002	2.24126E-004	..........a	-327.66
	7	2.06667	-8.15670E-002	-8.19430E-002	2.34792E-004	..........a	-327.66
	8	2.325	-8.16915E-002	-8.20777E-002	2.29126E-004	..........a	-327.66
	9	2.58333	-8.18153E-002	-8.21901E-002	2.49659E-004	..........a	-327.66
	10	2.84167	-8.19388E-002	-8.23171E-002	2.32859E-004	..........a	-327.66
	11	3.1	-8.20615E-002	-8.24264E-002	2.46726E-004	..........a	-327.66
	12	3.35833	-8.21830E-002	-8.25566E-002	2.44126E-004	..........a	-327.66
	13	3.61667	-8.23032E-002	-8.26628E-002	2.38859E-004	..........a	-327.66
	14	3.875	-8.24224E-002	-8.27884E-002	2.35059E-004	..........a	-327.66
	15	4.13333	-8.25407E-002	-8.28983E-002	2.47992E-004	..........a	-327.66
	16	4.39167	-8.26581E-002	-8.30101E-002	2.46726E-004	..........a	-327.66
	17	4.65	-8.27743E-002	-8.31253E-002	2.40726E-004	..........a	-327.66
	18	4.90833	-8.28888E-002	-8.32284E-002	2.51192E-004	..........a	-327.66
	19	5.16667	-8.30017E-002	-8.33486E-002	2.44526E-004	..........a	-327.66
	20	5.425	-8.31134E-002	-8.34498E-002	2.49259E-004	..........a	-327.66
	21	5.68333	-8.32240E-002	-8.35480E-002	2.41259E-004	..........a	-327.66
	22	5.94167	-8.33327E-002	-8.36511E-002	2.43059E-004	..........a	-327.66
	23	6.2	-8.34385E-002	-8.37560E-002	2.37726E-004	..........a	-327.66
	24	6.45833	-8.35419E-002	-8.38535E-002	2.46926E-004	..........a	-327.66
	25	6.71667	-8.36440E-002	-8.39501E-002	2.50859E-004	..........a	-327.66
	26	6.975	-8.37450E-002	-8.40524E-002	2.33926E-004	..........a	-327.66
	27	7.23333	-8.38452E-002	-8.41584E-002	2.43059E-004	..........a	-327.66
	28	7.49167	-8.39452E-002	-8.42499E-002	2.50259E-004	..........a	-327.66
	29	7.75	-8.40454E-002	-8.43460E-002	2.45926E-004	..........a	-327.66
	30	8.00833	-8.41448E-002	-8.44459E-002	2.41059E-004	..........a	-327.66
	31	8.26667	-8.42431E-002	-8.45525E-002	2.28992E-004	..........a	-327.66
	32	8.525	-8.43415E-002	-8.46468E-002	2.37859E-004	..........a	-327.66
	33	8.78333	-8.44406E-002	-8.47407E-002	2.51326E-004	..........a	-327.66
	34	9.04167	-8.45395E-002	-8.48276E-002	2.38326E-004	..........a	-327.66
	35	9.3	-8.46365E-002	-8.49269E-002	2.39926E-004	..........a	-327.66
	36	9.5583	-8.47313E-002	-8.50226E-002	2.31259E-004	..........a	-327.66
	37	9.8167	-8.48253E-002	-8.51202E-002	2.29192E-004	..........a	-327.66
	38	10.075	-8.49198E-002	-8.52067E-002	2.40059E-004	..........a	-327.66
EOC	QUANT	-0.0849198	Open Circuit (V)
PSTATMODEL	IQUANT	7	Pstat Model
PSTATSECTION	LABEL	REF600P-43058	Pstat Section
PSTATSERIALNO	LABEL	43058	Pstat Serial Number
CTRLMODE	IQUANT	1	Control Mode
ELECTROMETER	IQUANT	0	RE=0 or CS=1
IESTAB	IQUANT	2	I/E Stability
CASPEED	IQUANT	4	Control Amp Speed
CONVENTION	IQUANT	1	Current Convention
ICHRANGE	IQUANT	2	Ich Range
ICHRANGEMODE	TOGGLE	F	Ich Auto Range
ICHOFFSETENABLE	TOGGLE	F	Ich Offset Enable
ICHOFFSET	QUANT	0	Ich Offset (V)
ICHFILTER	IQUANT	2	Ich Filter
VCHRANGE	IQUANT	2	Vch Range
VCHRANGEMODE	TOGGLE	F	Vch Auto Range
VCHOFFSETENABLE	TOGGLE	F	Vch Offset Enable
VCHOFFSET	QUANT	0	Vch Offset (V)
VCHFILTER	IQUANT	2	Vch Filter
ACHRANGE	IQUANT	2	Ach Range
ACHOFFSETENABLE	TOGGLE	F	Ach Offset Enable
ACHOFFSET	QUANT	0	Ach Offset (V)
ACHFILTER	IQUANT	1	Ach Filter
IERANGELOWERLIMIT	IQUANT	1	I/E Range Lower Limit
IERANGEMODE	TOGGLE	T	I/E AutoRange
IERANGE	IQUANT	4	I/E Range
POSFEEDENABLE	TOGGLE	F	Positive Feedback IR Comp
POSFEEDRESISTANCE	QUANT	0	Positive Feedback Resistance (ohm)
ACHSELECT	IQUANT	4	Ach Select
SENSECABLEID	IQUANT	7	Sense Cable ID
PWRCABLEID	IQUANT	7	Power Cable ID
DCCALDATE	LABEL	3/22/2024	DC Calibration Date
ACCALDATE	LABEL	3/22/2024	AC Calibration Date
THERMOSELECT	IQUANT	1	Thermo Select
FRAMEWORKVERSION	LABEL	7.8.4	Framework Version
INSTRUMENTVERSION	LABEL	4.42	Instrument Version
CURVE1	TABLE
	Pt	T	Vf	Im	Vu	Sig	Ach	IERange	Over	Temp
	#	s	V vs. Ref.	A	V	V	V	#	bits	deg C
	0	0.2	-8.48769E-002	7.39854E-010	0.00000E+000	-8.49000E-002	9.95292E-004	5	..........a	-327.66
	1	0.4	-9.48183E-002	-1.53038E-009	0.00000E+000	-9.49000E-002	9.95392E-004	5	..........a	-327.66
	2	0.6	-1.04899E-001	-3.21351E-009	0.00000E+000	-1.04900E-001	1.00559E-003	5	..........a	-327.66
	3	0.8	-1.14766E-001	-4.77443E-009	0.00000E+000	-1.14900E-001	9.88692E-004	5	..........a	-327.66
	4	1	-1.24883E-001	-6.26963E-009	0.00000E+000	-1.24900E-001	9.98392E-004	5	..........a	-327.66
	5	1.2	-1.34815E-001	-7.74485E-009	0.00000E+000	-1.34900E-001	1.00779E-003	5	..........a	-327.66
	6	1.4	-1.44855E-001	-9.19715E-009	0.00000E+000	-1.44900E-001	9.82992E-004	5	..........a	-327.66
	7	1.6	-1.54843E-001	-1.06612E-008	0.00000E+000	-1.54900E-001	1.00699E-003	5	..........a	-327.66
	8	1.8	-1.64813E-001	-1.20507E-008	0.00000E+000	-1.64900E-001	9.79592E-004	5	..........a	-327.66
	9	2	-1.74792E-001	-1.34337E-008	0.00000E+000	-1.74900E-001	9.77292E-004	5	..........a	-327.66
	10	2.2	-1.84859E-001	-1.47639E-008	0.00000E+000	-1.84900E-001	9.81592E-004	5	..........a	-327.66
	11	2.4	-1.94816E-001	-1.60904E-008	0.00000E+000	-1.94900E-001	9.89992E-004	5	..........a	-327.66
	12	2.6	-2.04871E-001	-1.73596E-008	0.00000E+000	-2.04900E-001	9.87892E-004	5	..........a	-327.66
	13	2.8	-2.14711E-001	-1.86559E-008	0.00000E+000	-2.14900E-001	9.95292E-004	5	..........a	-327.66
	14	3	-2.24811E-001	-1.99384E-008	0.00000E+000	-2.24900E-001	1.00209E-003	5	..........a	-327.66
	15	3.2	-2.34786E-001	-2.12442E-008	0.00000E+000	-2.34900E-001	9.98692E-004	5	..........a	-327.66
	16	3.4	-2.44815E-001	-2.25689E-008	0.00000E+000	-2.44900E-001	1.00529E-003	5	..........a	-327.66
	17	3.6	-2.54743E-001	-2.38855E-008	0.00000E+000	-2.54900E-001	1.00339E-003	5	..........a	-327.66
	18	3.8	-2.64794E-001	-2.52678E-008	0.00000E+000	-2.64900E-001	9.83192E-004	5	..........a	-327.66
	19	4	-2.74788E-001	-2.66660E-008	0.00000E+000	-2.74900E-001	9.99492E-004	5	..........a	-327.66
	20	4.2	-2.84839E-001	-2.81056E-008	0.00000E+000	-2.84900E-001	1.02069E-003	5	..........a	-327.66
	21	4.4	-2.94773E-001	-2.95779E-008	0.00000E+000	-2.94900E-001	1.00149E-003	5	..........a	-327.66
	22	4.6	-3.04785E-001	-3.11400E-008	0.00000E+000	-3.04900E-001	9.91792E-004	5	..........a	-327.66
	23	4.8	-3.14805E-001	-3.26691E-008	0.00000E+000	-3.14900E-001	1.00229E-003	5	..........a	-327.66
	24	5	-3.24792E-001	-3.42404E-008	0.00000E+000	-3.24900E-001	9.85992E-004	5	..........a	-327.66
	25	5.2	-3.34767E-001	-3.59052E-008	0.00000E+000	-3.34900E-001	1.00339E-003	5	..........a	-327.66
	26	5.4	-3.44792E-001	-3.75438E-008	0.00000E+000	-3.44900E-001	1.00139E-003	5	..........a	-327.66
	27	5.6	-3.54784E-001	-3.91881E-008	0.00000E+000	-3.54900E-001	1.01339E-003	5	..........a	-327.66
	28	5.8	-3.64818E-001	-4.08698E-008	0.00000E+000	-3.64900E-001	9.94692E-004	5	..........a	-327.66
	29	6	-3.74752E-001	-4.25540E-008	0.00000E+000	-3.74900E-001	9.99892E-004	5	..........a	-327.66
	30	6.2	-3.84782E-001	-4.41731E-008	0.00000E+000	-3.84900E-001	9.87792E-004	5	..........a	-327.66
	31	6.4	-3.94722E-001	-4.57960E-008	0.00000E+000	-3.94900E-001	9.93392E-004	5	..........a	-327.66
	32	6.6	-4.04808E-001	-4.73704E-008	0.00000E+000	-4.04900E-001	1.00659E-003	5	..........a	-327.66
	33	6.8	-4.14734E-001	-4.89317E-008	0.00000E+000	-4.14900E-001	9.79592E-004	5	..........a	-327.66
	34	7	-4.24725E-001	-5.04462E-008	0.00000E+000	-4.24900E-001	1.00169E-003	5	..........a	-327.66
	35	7.2	-4.34756E-001	-5.19407E-008	0.00000E+000	-4.34900E-001	9.99892E-004	5	..........a	-327.66
	36	7.4	-4.44837E-001	-5.33603E-008	0.00000E+000	-4.44900E-001	1.00889E-003	5	..........a	-327.66
	37	7.6	-4.54710E-001	-5.48026E-008	0.00000E+000	-4.54900E-001	9.88792E-004	5	..........a	-327.66
	38	7.8	-4.64707E-001	-5.61819E-008	0.00000E+000	-4.64900E-001	9.80792E-004	5	..........a	-327.66
	39	8	-4.74711E-001	-5.75611E-008	0.00000E+000	-4.74900E-001	9.84792E-004	5	..........a	-327.66
	40	8.2	-4.84777E-001	-5.89602E-008	0.00000E+000	-4.84900E-001	1.02069E-003	5	..........a	-327.66
	41	8.4	-4.94714E-001	-6.03335E-008	0.00000E+000	-4.94900E-001	1.03019E-003	5	..........a	-327.66
	42	8.6	-5.04712E-001	-6.17423E-008	0.00000E+000	-5.04900E-001	9.92692E-004	5	..........a	-327.66
	43	8.8	-5.14780E-001	-6.31143E-008	0.00000E+000	-5.14900E-001	9.87992E-004	5	..........a	-327.66
	44	9	-5.24746E-001	-6.45205E-008	0.00000E+000	-5.24900E-001	1.00619E-003	5	..........a	-327.66
	45	9.2	-5.34732E-001	-6.59063E-008	0.00000E+000	-5.34900E-001	1.00629E-003	5	..........a	-327.66
	46	9.4	-5.44732E-001	-6.73288E-008	0.00000E+000	-5.44900E-001	9.97492E-004	5	..........a	-327.66
	47	9.6	-5.54769E-001	-6.87289E-008	0.00000E+000	-5.54900E-001	1.00269E-003	5	..........a	-327.66
	48	9.8	-5.64775E-001	-7.01464E-008	0.00000E+000	-5.64900E-001	9.92092E-004	5	..........a	-327.66
	49	10	-5.74690E-001	-7.15910E-008	0.00000E+000	-5.74900E-001	9.92692E-004	5	..........a	-327.66
	50	10.2	-5.84743E-001	-7.30422E-008	0.00000E+000	-5.84900E-001	9.89592E-004	5	..........a	-327.66
	51	10.4	-5.94797E-001	-7.45284E-008	0.00000E+000	-5.94900E-001	1.01289E-003	5	..........a	-327.66
	52	10.6	-5.84722E-001	-6.56979E-008	0.00000E+000	-5.84900E-001	9.95092E-004	5	..........a	-327.66
	53	10.8	-5.74686E-001	-5.98156E-008	0.00000E+000	-5.74900E-001	1.00609E-003	5	..........a	-327.66
	54	11	-5.64796E-001	-5.52371E-008	0.00000E+000	-5.64900E-001	1.02029E-003	5	..........a	-327.66
	55	11.2	-5.54762E-001	-5.13576E-008	0.00000E+000	-5.54900E-001	9.86592E-004	5	..........a	-327.66
	56	11.4	-5.44714E-001	-4.79142E-008	0.00000E+000	-5.44900E-001	9.97492E-004	5	..........a	-327.66
	57	11.6	-5.34712E-001	-4.48684E-008	0.00000E+000	-5.34900E-001	1.01139E-003	5	..........a	-327.66
	58	11.8	-5.24768E-001	-4.21197E-008	0.00000E+000	-5.24900E-001	9.87392E-004	5	..........a	-327.66
	59	12	-5.14757E-001	-3.94988E-008	0.00000E+000	-5.14900E-001	1.01369E-003	5	..........a	-327.66
	60	12.2	-5.04733E-001	-3.71633E-008	0.00000E+000	-5.04900E-001	9.89192E-004	5	..........a	-327.66
	61	12.4	-4.94745E-001	-3.49314E-008	0.00000E+000	-4.94900E-001	1.00079E-003	5	..........a	-327.66
	62	12.6	-4.84830E-001	-3.28153E-008	0.00000E+000	-4.84900E-001	9.88292E-004	5	..........a	-327.66
	63	12.8	-4.74742E-001	-3.08379E-008	0.00000E+000	-4.74900E-001	9.96492E-004	5	..........a	-327.66
	64	13	-4.64734E-001	-2.89002E-008	0.00000E+000	-4.64900E-001	9.90592E-004	5	..........a	-327.66
	65	13.2	-4.54748E-001	-2.71029E-008	0.00000E+000	-4.54900E-001	1.01749E-003	5	..........a	-327.66
	66	13.4	-4.44809E-001	-2.53358E-008	0.00000E+000	-4.44900E-001	1.00399E-003	5	..........a	-327.66
	67	13.6	-4.34767E-001	-2.36533E-008	0.00000E+000	-4.34900E-001	9.89292E-004	5	..........a	-327.66
	68	13.8	-4.24760E-001	-2.20137E-008	0.00000E+000	-4.24900E-001	9.76892E-004	5	..........a	-327.66
	69	14	-4.14756E-001	-2.04390E-008	0.00000E+000	-4.14900E-001	1.01309E-003	5	..........a	-327.66
	70	14.2	-4.04800E-001	-1.88505E-008	0.00000E+000	-4.04900E-001	1.01679E-003	5	..........a	-327.66
	71	14.4	-3.94723E-001	-1.73680E-008	0.00000E+000	-3.94900E-001	1.00259E-003	5	..........a	-327.66
	72	14.6	-3.84791E-001	-1.59306E-008	0.00000E+000	-3.84900E-001	1.00829E-003	5	..........a	-327.66
	73	14.8	-3.74757E-001	-1.44909E-008	0.00000E+000	-3.74900E-001	9.99492E-004	5	..........a	-327.66
	74	15	-3.64802E-001	-1.31474E-008	0.00000E+000	-3.64900E-001	1.00209E-003	5	..........a	-327.66
	75	15.2	-3.54805E-001	-1.17717E-008	0.00000E+000	-3.54900E-001	1.00909E-003	5	..........a	-327.66
	76	15.4	-3.44797E-001	-1.04751E-008	0.00000E+000	-3.44900E-001	9.95892E-004	5	..........a	-327.66
	77	15.6	-3.34797E-001	-9.15194E-009	0.00000E+000	-3.34900E-001	1.00449E-003	5	..........a	-327.66
	78	15.8	-3.24815E-001	-7.92974E-009	0.00000E+000	-3.24900E-001	1.01239E-003	5	..........a	-327.66
	79	16	-3.14805E-001	-6.66349E-009	0.00000E+000	-3.14900E-001	1.03179E-003	5	..........a	-327.66
	80	16.2	-3.04791E-001	-5.48935E-009	0.00000E+000	-3.04900E-001	9.71792E-004	5	..........a	-327.66
	81	16.4	-2.94780E-001	-4.28790E-009	0.00000E+000	-2.94900E-001	1.01689E-003	5	..........a	-327.66
	82	16.6	-2.84802E-001	-3.11914E-009	0.00000E+000	-2.84900E-001	1.01979E-003	5	..........a	-327.66
	83	16.8	-2.74901E-001	-2.04300E-009	0.00000E+000	-2.74900E-001	1.00879E-003	5	..........a	-327.66
	84	17	-2.64766E-001	-9.30358E-010	0.00000E+000	-2.64900E-001	9.70392E-004	5	..........a	-327.66
	85	17.2	-2.54786E-001	1.57722E-010	0.00000E+000	-2.54900E-001	1.01359E-003	5	..........a	-327.66
	86	17.4	-2.44828E-001	1.24384E-009	0.00000E+000	-2.44900E-001	1.00779E-003	5	..........a	-327.66
	87	17.6	-2.34858E-001	2.26842E-009	0.00000E+000	-2.34900E-001	1.02979E-003	5	..........a	-327.66
	88	17.8	-2.24853E-001	3.26883E-009	0.00000E+000	-2.24900E-001	1.01739E-003	5	..........a	-327.66
	89	18	-2.14775E-001	4.30212E-009	0.00000E+000	-2.14900E-001	1.01289E-003	5	..........a	-327.66
	90	18.2	-2.04877E-001	5.25446E-009	0.00000E+000	-2.04900E-001	1.02229E-003	5	..........a	-327.66
	91	18.4	-1.94917E-001	6.23972E-009	0.00000E+000	-1.94900E-001	1.03009E-003	5	..........a	-327.66
	92	18.6	-1.84877E-001	7.20309E-009	0.00000E+000	-1.84900E-001	1.00119E-003	5	..........a	-327.66
	93	18.8	-1.74835E-001	8.13165E-009	0.00000E+000	-1.74900E-001	1.00459E-003	5	..........a	-327.66
	94	19	-1.64832E-001	9.05254E-009	0.00000E+000	-1.64900E-001	9.82392E-004	5	..........a	-327.66
	95	19.2	-1.54868E-001	9.95971E-009	0.00000E+000	-1.54900E-001	1.00339E-003	5	..........a	-327.66
	96	19.4	-1.44873E-001	1.08647E-008	0.00000E+000	-1.44900E-001	1.00159E-003	5	..........a	-327.66
	97	19.6	-1.34819E-001	1.17947E-008	0.00000E+000	-1.34900E-001	1.00189E-003	5	..........a	-327.66
	98	19.8	-1.24889E-001	1.26890E-008	0.00000E+000	-1.24900E-001	1.01719E-003	5	..........a	-327.66
	99	20	-1.14861E-001	1.35750E-008	0.00000E+000	-1.14900E-001	1.00869E-003	5	..........a	-327.66
	100	20.2	-1.04883E-001	1.44750E-008	0.00000E+000	-1.04900E-001	9.90092E-004	5	..........a	-327.66
	101	20.4	-9.48181E-002	1.53483E-008	0.00000E+000	-9.49000E-002	1.00999E-003	5	..........a	-327.66
	102	20.6	-8.48801E-002	1.62509E-008	0.00000E+000	-8.49000E-002	9.88292E-004	5	..........a	-327.66
	103	20.8	-7.48931E-002	1.72018E-008	0.00000E+000	-7.49000E-002	1.00629E-003	5	..........a	-327.66
	104	21	-6.48742E-002	1.80990E-008	0.00000E+000	-6.49000E-002	9.80192E-004	5	..........a	-327.66
	105	21.2	-5.48126E-002	1.90239E-008	0.00000E+000	-5.49000E-002	1.00869E-003	5	..........a	-327.66
	106	21.4	-4.48898E-002	2.00096E-008	0.00000E+000	-4.49000E-002	9.98292E-004	5	..........a	-327.66
	107	21.6	-3.48363E-002	2.09990E-008	0.00000E+000	-3.49000E-002	1.01449E-003	5	..........a	-327.66
	108	21.8	-2.49710E-002	2.20363E-008	0.00000E+000	-2.49000E-002	9.82292E-004	5	..........a	-327.66
	109	22	-1.48275E-002	2.30158E-008	0.00000E+000	-1.49000E-002	1.01879E-003	5	..........a	-327.66
	110	22.2	-4.89471E-003	2.40506E-008	0.00000E+000	-4.89999E-003	9.93392E-004	5	..........a	-327.66
	111	22.4	5.16084E-003	2.50672E-008	0.00000E+000	5.10000E-003	1.00659E-003	5	..........a	-327.66
	112	22.6	1.47288E-002	2.60586E-008	0.00000E+000	1.51000E-002	1.00749E-003	5	..........a	-327.66
	113	22.8	2.51696E-002	2.71299E-008	0.00000E+000	2.51000E-002	1.01609E-003	5	..........a	-327.66
	114	23	3.51128E-002	2.81690E-008	0.00000E+000	3.51000E-002	9.88392E-004	5	..........a	-327.66
	115	23.2	4.51108E-002	2.92401E-008	0.00000E+000	4.51000E-002	1.02219E-003	5	..........a	-327.66
	116	23.4	5.51558E-002	3.03255E-008	0.00000E+000	5.51000E-002	1.02029E-003	5	..........a	-327.66
	117	23.6	6.51848E-002	3.13898E-008	0.00000E+000	6.51000E-002	1.01429E-003	5	..........a	-327.66
	118	23.8	7.51055E-002	3.24734E-008	0.00000E+000	7.51000E-002	9.96392E-004	5	..........a	-327.66
	119	24	8.50904E-002	3.35388E-008	0.00000E+000	8.51000E-002	1.02249E-003	5	..........a	-327.66
	120	24.2	9.51296E-002	3.47001E-008	0.00000E+000	9.51000E-002	1.00719E-003	5	..........a	-327.66
	121	24.4	1.05192E-001	3.57957E-008	0.00000E+000	1.05100E-001	1.00229E-003	5	..........a	-327.66
	122	24.6	1.15143E-001	3.70170E-008	0.00000E+000	1.15100E-001	9.99092E-004	5	..........a	-327.66
	123	24.8	1.25128E-001	3.91271E-008	0.00000E+000	1.25100E-001	1.01239E-003	5	..........a	-327.66
	124	25	1.35144E-001	4.43498E-008	0.00000E+000	1.35100E-001	1.00069E-003	5	..........a	-327.66
	125	25.2	1.45137E-001	4.91191E-008	0.00000E+000	1.45100E-001	1.00989E-003	5	..........a	-327.66
	126	25.4	1.55100E-001	4.90156E-008	0.00000E+000	1.55100E-001	9.96092E-004	5	..........a	-327.66
	127	25.6	1.65125E-001	4.81945E-008	0.00000E+000	1.65100E-001	9.88192E-004	5	..........a	-327.66
	128	25.8	1.75147E-001	4.77353E-008	0.00000E+000	1.75100E-001	1.00559E-003	5	..........a	-327.66
	129	26	1.85186E-001	4.76821E-008	0.00000E+000	1.85100E-001	1.02599E-003	5	..........a	-327.66
	130	26.2	1.95119E-001	4.83072E-008	0.00000E+000	1.95100E-001	1.00369E-003	5	..........a	-327.66
	131	26.4	2.05105E-001	4.95680E-008	0.00000E+000	2.05100E-001	9.99692E-004	5	..........a	-327.66
	132	26.6	2.15101E-001	5.10471E-008	0.00000E+000	2.15100E-001	9.87292E-004	5	..........a	-327.66
	133	26.8	2.25164E-001	5.26629E-008	0.00000E+000	2.25100E-001	1.00589E-003	5	..........a	-327.66
	134	27	2.35071E-001	5.42863E-008	0.00000E+000	2.35100E-001	1.01459E-003	5	..........a	-327.66
	135	27.2	2.45125E-001	5.59464E-008	0.00000E+000	2.45100E-001	1.01179E-003	5	..........a	-327.66
	136	27.4	2.55080E-001	5.76690E-008	0.00000E+000	2.55100E-001	1.01179E-003	5	..........a	-327.66
	137	27.6	2.65152E-001	5.94457E-008	0.00000E+000	2.65100E-001	1.00059E-003	5	..........a	-327.66
	138	27.8	2.75073E-001	6.12038E-008	0.00000E+000	2.75100E-001	1.01189E-003	5	..........a	-327.66
	139	28	2.85062E-001	6.29987E-008	0.00000E+000	2.85100E-001	1.01409E-003	5	..........a	-327.66
	140	28.2	2.95116E-001	6.48592E-008	0.00000E+000	2.95100E-001	9.83392E-004	5	..........a	-327.66
	141	28.4	3.05157E-001	6.67378E-008	0.00000E+000	3.05100E-001	9.89892E-004	5	..........a	-327.66
	142	28.6	3.15092E-001	6.87206E-008	0.00000E+000	3.15100E-001	9.93692E-004	5	..........a	-327.66
	143	28.8	3.25090E-001	7.07800E-008	0.00000E+000	3.25100E-001	1.01949E-003	5	..........a	-327.66
	144	29	3.35109E-001	7.29344E-008	0.00000E+000	3.35100E-001	9.78492E-004	5	..........a	-327.66
	145	29.2	3.45137E-001	7.52115E-008	0.00000E+000	3.45100E-001	9.94592E-004	5	..........a	-327.66
	146	29.4	3.55073E-001	7.76020E-008	0.00000E+000	3.55100E-001	1.00719E-003	5	..........a	-327.66
	147	29.6	3.65061E-001	8.01533E-008	0.00000E+000	3.65100E-001	9.97892E-004	5	..........a	-327.66
	148	29.8	3.75093E-001	8.27927E-008	0.00000E+000	3.75100E-001	9.95492E-004	5	..........a	-327.66
	149	30	3.85152E-001	8.55666E-008	0.00000E+000	3.85100E-001	1.01069E-003	5	..........a	-327.66
	150	30.2	3.95071E-001	8.84487E-008	0.00000E+000	3.95100E-001	9.99292E-004	5	..........a	-327.66
	151	30.4	4.05084E-001	9.14651E-008	0.00000E+000	4.05100E-001	1.00109E-003	5	..........a	-327.66
	152	30.6	4.15060E-001	9.45024E-008	0.00000E+000	4.15100E-001	1.00629E-003	5	..........a	-327.66
	153	30.8	4.24930E-001	9.76474E-008	0.00000E+000	4.25100E-001	1.00069E-003	5	..........a	-327.66
	154	31	4.35005E-001	1.00785E-007	0.00000E+000	4.35100E-001	1.01669E-003	5	..........a	-327.66
	155	31.2	4.45037E-001	1.04030E-007	0.00000E+000	4.45100E-001	1.01719E-003	5	..........a	-327.66
	156	31.4	4.55050E-001	1.07171E-007	0.00000E+000	4.55100E-001	9.94292E-004	5	..........a	-327.66
	157	31.6	4.65115E-001	1.10347E-007	0.00000E+000	4.65100E-001	9.92792E-004	5	..........a	-327.66
	158	31.8	4.75028E-001	1.13495E-007	0.00000E+000	4.75100E-001	9.85692E-004	5	..........a	-327.66
	159	32	4.85030E-001	1.16650E-007	0.00000E+000	4.85100E-001	9.97392E-004	5	..........a	-327.66
	160	32.2	4.95027E-001	1.19789E-007	0.00000E+000	4.95100E-001	1.02129E-003	5	..........a	-327.66
	161	32.4	5.05138E-001	1.22900E-007	0.00000E+000	5.05100E-001	1.00889E-003	5	..........a	-327.66
	162	32.6	5.15009E-001	1.26071E-007	0.00000E+000	5.15100E-001	9.98292E-004	5	..........a	-327.66
	163	32.8	5.25028E-001	1.29132E-007	0.00000E+000	5.25100E-001	1.00389E-003	5	..........a	-327.66
	164	33	5.35029E-001	1.32230E-007	0.00000E+000	5.35100E-001	9.80492E-004	5	..........a	-327.66
	165	33.2	5.45098E-001	1.35272E-007	0.00000E+000	5.45100E-001	1.01509E-003	5	..........a	-327.66
	166	33.4	5.55013E-001	1.38210E-007	0.00000E+000	5.55100E-001	9.85692E-004	5	..........a	-327.66
	167	33.6	5.65002E-001	1.41171E-007	0.00000E+000	5.65100E-001	1.01239E-003	5	..........a	-327.66
	168	33.8	5.75006E-001	1.44059E-007	0.00000E+000	5.75100E-001	1.01129E-003	5	..........a	-327.66
	169	34	5.85118E-001	1.46920E-007	0.00000E+000	5.85100E-001	9.91392E-004	5	..........a	-327.66
	170	34.2	5.95003E-001	1.49692E-007	0.00000E+000	5.95100E-001	1.01959E-003	5	..........a	-327.66
	171	34.4	6.05032E-001	1.52512E-007	0.00000E+000	6.05100E-001	9.98892E-004	5	..........a	-327.66
	172	34.6	6.14969E-001	1.55333E-007	0.00000E+000	6.15100E-001	9.91492E-004	5	..........a	-327.66
	173	34.8	6.25020E-001	1.58155E-007	0.00000E+000	6.25100E-001	1.00039E-003	5	..........a	-327.66
	174	35	6.34974E-001	1.61016E-007	0.00000E+000	6.35100E-001	1.00769E-003	5	..........a	-327.66
	175	35.2	6.44947E-001	1.63841E-007	0.00000E+000	6.45100E-001	1.00259E-003	5	..........a	-327.66
	176	35.4	6.54858E-001	1.66721E-007	0.00000E+000	6.55100E-001	9.87792E-004	5	..........a	-327.66
	177	35.6	6.65087E-001	1.69664E-007	0.00000E+000	6.65100E-001	1.00449E-003	5	..........a	-327.66
	178	35.8	6.74971E-001	1.72619E-007	0.00000E+000	6.75100E-001	1.00009E-003	5	..........a	-327.66
	179	36	6.84924E-001	1.75692E-007	0.00000E+000	6.85100E-001	1.02259E-003	5	..........a	-327.66
	180	36.2	6.94964E-001	1.78892E-007	0.00000E+000	6.95100E-001	9.88792E-004	5	..........a	-327.66
	181	36.4	7.05064E-001	1.82185E-007	0.00000E+000	7.05100E-001	9.80892E-004	5	..........a	-327.66
	182	36.6	7.14934E-001	1.85696E-007	0.00000E+000	7.15100E-001	1.00609E-003	5	..........a	-327.66
	183	36.8	7.24975E-001	1.89391E-007	0.00000E+000	7.25100E-001	1.01329E-003	5	..........a	-327.66
	184	37	7.34955E-001	1.93322E-007	0.00000E+000	7.35100E-001	9.81392E-004	5	..........a	-327.66
	185	37.2	7.45075E-001	1.97543E-007	0.00000E+000	7.45100E-001	1.00419E-003	5	..........a	-327.66
	186	37.4	7.54977E-001	2.02042E-007	0.00000E+000	7.55100E-001	9.93492E-004	5	..........a	-327.66
	187	37.6	7.64948E-001	2.06982E-007	0.00000E+000	7.65100E-001	1.00219E-003	5	..........a	-327.66
	188	37.8	7.74952E-001	2.12259E-007	0.00000E+000	7.75100E-001	1.00369E-003	5	..........a	-327.66
	189	38	7.85064E-001	2.18024E-007	0.00000E+000	7.85100E-001	1.00239E-003	5	..........a	-327.66
	190	38.2	7.94940E-001	2.24183E-007	0.00000E+000	7.95100E-001	1.00409E-003	5	..........a	-327.66
CURVE2	TABLE
	Pt	T	Vf	Im	Vu	Sig	Ach	IERange	Over	Temp
	#	s	V vs. Ref.	A	V	V	V	#	bits	deg C
	191	38.4	7.89941E-001	1.92692E-007	0.00000E+000	7.90000E-001	1.00209E-003	5	..........a	-327.66
	192	38.6	7.79866E-001	1.61886E-007	0.00000E+000	7.80000E-001	9.92092E-004	5	..........a	-327.66
	193	38.8	7.69919E-001	1.40346E-007	0.00000E+000	7.70000E-001	9.98692E-004	5	..........a	-327.66
	194	39	7.59893E-001	1.24192E-007	0.00000E+000	7.60000E-001	9.99092E-004	5	..........a	-327.66
	195	39.2	7.49968E-001	1.11587E-007	0.00000E+000	7.50000E-001	1.00939E-003	5	..........a	-327.66
	196	39.4	7.39907E-001	1.01464E-007	0.00000E+000	7.40000E-001	9.92492E-004	5	..........a	-327.66
	197	39.6	7.29900E-001	9.31508E-008	0.00000E+000	7.30000E-001	9.90292E-004	5	..........a	-327.66
	198	39.8	7.19895E-001	8.61706E-008	0.00000E+000	7.20000E-001	1.01029E-003	5	..........a	-327.66
	199	40	7.09959E-001	8.01732E-008	0.00000E+000	7.10000E-001	9.98592E-004	5	..........a	-327.66
	200	40.2	6.99912E-001	7.49898E-008	0.00000E+000	7.00000E-001	1.00239E-003	5	..........a	-327.66
	201	40.4	6.89901E-001	7.03928E-008	0.00000E+000	6.90000E-001	1.01249E-003	5	..........a	-327.66
	202	40.6	6.79936E-001	6.62587E-008	0.00000E+000	6.80000E-001	9.86392E-004	5	..........a	-327.66
	203	40.8	6.69970E-001	6.25529E-008	0.00000E+000	6.70000E-001	1.00539E-003	5	..........a	-327.66
	204	41	6.59934E-001	5.91529E-008	0.00000E+000	6.60000E-001	9.94392E-004	5	..........a	-327.66
	205	41.2	6.49934E-001	5.59960E-008	0.00000E+000	6.50000E-001	9.87892E-004	5	..........a	-327.66
	206	41.4	6.39881E-001	5.30956E-008	0.00000E+000	6.40000E-001	1.01469E-003	5	..........a	-327.66
	207	41.6	6.30020E-001	5.03535E-008	0.00000E+000	6.30000E-001	1.00769E-003	5	..........a	-327.66
	208	41.8	6.19927E-001	4.77562E-008	0.00000E+000	6.20000E-001	1.00769E-003	5	..........a	-327.66
	209	42	6.09943E-001	4.53072E-008	0.00000E+000	6.10000E-001	1.00149E-003	5	..........a	-327.66
	210	42.2	5.99973E-001	4.29771E-008	0.00000E+000	6.00000E-001	1.00449E-003	5	..........a	-327.66
	211	42.4	5.90017E-001	4.07283E-008	0.00000E+000	5.90000E-001	1.00779E-003	5	..........a	-327.66
	212	42.6	5.80003E-001	3.86789E-008	0.00000E+000	5.80000E-001	1.00809E-003	5	..........a	-327.66
	213	42.8	5.69986E-001	3.67337E-008	0.00000E+000	5.70000E-001	1.00779E-003	5	..........a	-327.66
	214	43	5.59963E-001	3.48749E-008	0.00000E+000	5.60000E-001	9.99292E-004	5	..........a	-327.66
	215	43.2	5.50031E-001	3.30629E-008	0.00000E+000	5.50000E-001	1.01739E-003	5	..........a	-327.66
	216	43.4	5.39990E-001	3.12836E-008	0.00000E+000	5.40000E-001	1.00089E-003	5	..........a	-327.66
	217	43.6	5.29969E-001	2.95384E-008	0.00000E+000	5.30000E-001	9.98892E-004	5	..........a	-327.66
	218	43.8	5.19970E-001	2.78075E-008	0.00000E+000	5.20000E-001	1.01549E-003	5	..........a	-327.66
	219	44	5.09982E-001	2.61543E-008	0.00000E+000	5.10000E-001	1.00979E-003	5	..........a	-327.66
	220	44.2	5.00036E-001	2.45788E-008	0.00000E+000	5.00000E-001	9.86892E-004	5	..........a	-327.66
	221	44.4	4.89936E-001	2.30965E-008	0.00000E+000	4.90000E-001	1.00759E-003	5	..........a	-327.66
	222	44.6	4.79921E-001	2.16145E-008	0.00000E+000	4.80000E-001	1.01269E-003	5	..........a	-327.66
	223	44.8	4.70030E-001	2.01456E-008	0.00000E+000	4.70000E-001	1.00169E-003	5	..........a	-327.66
	224	45	4.60007E-001	1.86770E-008	0.00000E+000	4.60000E-001	1.00089E-003	5	..........a	-327.66
	225	45.2	4.49780E-001	1.71482E-008	0.00000E+000	4.50000E-001	9.93292E-004	5	..........a	-327.66
	226	45.4	4.39971E-001	1.55977E-008	0.00000E+000	4.40000E-001	1.03829E-003	5	..........a	-327.66
	227	45.6	4.29983E-001	1.40298E-008	0.00000E+000	4.30000E-001	1.01409E-003	5	..........a	-327.66
	228	45.8	4.20019E-001	1.23805E-008	0.00000E+000	4.20000E-001	1.01919E-003	5	..........a	-327.66
	229	46	4.09968E-001	1.07431E-008	0.00000E+000	4.10000E-001	1.01019E-003	5	..........a	-327.66
	230	46.2	3.99983E-001	9.00004E-009	0.00000E+000	4.00000E-001	1.01129E-003	5	..........a	-327.66
	231	46.4	3.90014E-001	7.28397E-009	0.00000E+000	3.90000E-001	1.01969E-003	5	..........a	-327.66
	232	46.6	3.80091E-001	5.51130E-009	0.00000E+000	3.80000E-001	1.01679E-003	5	..........a	-327.66
	233	46.8	3.70041E-001	3.66264E-009	0.00000E+000	3.70000E-001	1.00839E-003	5	..........a	-327.66
	234	47	3.59984E-001	1.77129E-009	0.00000E+000	3.60000E-001	9.93792E-004	5	..........a	-327.66
	235	47.2	3.50017E-001	-2.30012E-010	0.00000E+000	3.50000E-001	1.00619E-003	5	..........a	-327.66
	236	47.4	3.40069E-001	-2.28290E-009	0.00000E+000	3.40000E-001	1.00549E-003	5	..........a	-327.66
	237	47.6	3.30076E-001	-4.29945E-009	0.00000E+000	3.30000E-001	1.00239E-003	5	..........a	-327.66
	238	47.8	3.20053E-001	-6.55186E-009	0.00000E+000	3.20000E-001	1.01179E-003	5	..........a	-327.66
	239	48	3.10080E-001	-8.85371E-009	0.00000E+000	3.10000E-001	1.01579E-003	5	..........a	-327.66
	240	48.2	3.00081E-001	-1.12962E-008	0.00000E+000	3.00000E-001	1.00339E-003	5	..........a	-327.66
	241	48.4	2.90062E-001	-1.38714E-008	0.00000E+000	2.90000E-001	1.01249E-003	5	..........a	-327.66
	242	48.6	2.79994E-001	-1.65855E-008	0.00000E+000	2.80000E-001	1.01239E-003	5	..........a	-327.66
	243	48.8	2.70094E-001	-1.93939E-008	0.00000E+000	2.70000E-001	9.99792E-004	5	..........a	-327.66
	244	49	2.60072E-001	-2.23716E-008	0.00000E+000	2.60000E-001	9.97092E-004	5	..........a	-327.66
	245	49.2	2.50042E-001	-2.54188E-008	0.00000E+000	2.50000E-001	1.01119E-003	5	..........a	-327.66
	246	49.4	2.40063E-001	-2.84798E-008	0.00000E+000	2.40000E-001	1.01369E-003	5	..........a	-327.66
	247	49.6	2.30025E-001	-3.16447E-008	0.00000E+000	2.30000E-001	1.03249E-003	5	..........a	-327.66
	248	49.8	2.20003E-001	-3.45728E-008	0.00000E+000	2.20000E-001	9.85892E-004	5	..........a	-327.66
	249	50	2.10034E-001	-3.73575E-008	0.00000E+000	2.10000E-001	1.03239E-003	5	..........a	-327.66
	250	50.2	2.00077E-001	-3.97607E-008	0.00000E+000	2.00000E-001	1.00889E-003	5	..........a	-327.66
	251	50.4	1.90124E-001	-4.18354E-008	0.00000E+000	1.90000E-001	9.93992E-004	5	..........a	-327.66
	252	50.6	1.80122E-001	-4.32075E-008	0.00000E+000	1.80000E-001	1.00239E-003	5	..........a	-327.66
	253	50.8	1.70099E-001	-4.39241E-008	0.00000E+000	1.70000E-001	9.96292E-004	5	..........a	-327.66
	254	51	1.60089E-001	-4.39962E-008	0.00000E+000	1.60000E-001	1.01699E-003	5	..........a	-327.66
	255	51.2	1.50096E-001	-4.34037E-008	0.00000E+000	1.50000E-001	1.00079E-003	5	..........a	-327.66
	256	51.4	1.40125E-001	-4.22452E-008	0.00000E+000	1.40000E-001	9.98592E-004	5	..........a	-327.66
	257	51.6	1.30090E-001	-4.05572E-008	0.00000E+000	1.30000E-001	1.00999E-003	5	..........a	-327.66
	258	51.8	1.20051E-001	-3.85610E-008	0.00000E+000	1.20000E-001	1.00899E-003	5	..........a	-327.66
	259	52	1.10121E-001	-3.64315E-008	0.00000E+000	1.10000E-001	1.00579E-003	5	..........a	-327.66
	260	52.2	1.00136E-001	-3.42701E-008	0.00000E+000	1.00000E-001	1.00609E-003	5	..........a	-327.66
	261	52.4	9.00784E-002	-3.22322E-008	0.00000E+000	9.00000E-002	9.96892E-004	5	..........a	-327.66
	262	52.6	8.00598E-002	-3.03373E-008	0.00000E+000	8.00000E-002	1.00489E-003	5	..........a	-327.66
	263	52.8	7.00421E-002	-2.88276E-008	0.00000E+000	7.00000E-002	1.00369E-003	5	..........a	-327.66
	264	53	6.01192E-002	-2.76803E-008	0.00000E+000	6.00000E-002	9.86292E-004	5	..........a	-327.66
	265	53.2	5.00658E-002	-2.69455E-008	0.00000E+000	5.00000E-002	1.00479E-003	5	..........a	-327.66
	266	53.4	4.01391E-002	-2.64760E-008	0.00000E+000	4.00000E-002	9.99692E-004	5	..........a	-327.66
	267	53.6	3.00773E-002	-2.62269E-008	0.00000E+000	3.00000E-002	1.00449E-003	5	..........a	-327.66
	268	53.8	2.01715E-002	-2.61064E-008	0.00000E+000	2.00000E-002	9.86592E-004	5	..........a	-327.66
	269	54	1.01139E-002	-2.61646E-008	0.00000E+000	1.00000E-002	9.88492E-004	5	..........a	-327.66
	270	54.2	4.36917E-005	-2.64533E-008	0.00000E+000	7.45058E-009	1.00639E-003	5	..........a	-327.66
	271	54.4	-9.89556E-003	-2.68966E-008	0.00000E+000	-1.00000E-002	1.00649E-003	5	..........a	-327.66
	272	54.6	-1.99169E-002	-2.71013E-008	0.00000E+000	-2.00000E-002	9.90092E-004	5	..........a	-327.66
	273	54.8	-2.99837E-002	-2.77006E-008	0.00000E+000	-3.00000E-002	1.01369E-003	5	..........a	-327.66
	274	55	-3.99234E-002	-2.77012E-008	0.00000E+000	-4.00000E-002	1.00569E-003	5	..........a	-327.66
	275	55.2	-4.99123E-002	-2.80926E-008	0.00000E+000	-5.00000E-002	1.01689E-003	5	..........a	-327.66
	276	55.4	-5.98745E-002	-2.91456E-008	0.00000E+000	-6.00000E-002	1.00619E-003	5	..........a	-327.66
	277	55.6	-6.99029E-002	-2.94735E-008	0.00000E+000	-7.00000E-002	1.00149E-003	5	..........a	-327.66
	278	55.8	-7.99440E-002	-2.99165E-008	0.00000E+000	-8.00000E-002	1.01169E-003	5	..........a	-327.66
	279	56	-8.98988E-002	-3.08726E-008	0.00000E+000	-9.00000E-002	9.98092E-004	5	..........a	-327.66
	280	56.2	-9.98801E-002	-3.16629E-008	0.00000E+000	-1.00000E-001	9.73392E-004	5	..........a	-327.66
	281	56.4	-1.09962E-001	-3.26688E-008	0.00000E+000	-1.10000E-001	1.00029E-003	5	..........a	-327.66
	282	56.6	-1.19941E-001	-3.32511E-008	0.00000E+000	-1.20000E-001	1.01299E-003	5	..........a	-327.66
	283	56.8	-1.29905E-001	-3.43652E-008	0.00000E+000	-1.30000E-001	1.01269E-003	5	..........a	-327.66
	284	57	-1.39934E-001	-3.51301E-008	0.00000E+000	-1.40000E-001	9.89792E-004	5	..........a	-327.66
	285	57.2	-1.49940E-001	-3.61337E-008	0.00000E+000	-1.50000E-001	1.00139E-003	5	..........a	-327.66
	286	57.4	-1.59984E-001	-3.75370E-008	0.00000E+000	-1.60000E-001	1.01889E-003	5	..........a	-327.66
	287	57.6	-1.69893E-001	-3.84484E-008	0.00000E+000	-1.70000E-001	1.01139E-003	5	..........a	-327.66
	288	57.8	-1.79896E-001	-3.94277E-008	0.00000E+000	-1.80000E-001	9.93892E-004	5	..........a	-327.66
	289	58	-1.90014E-001	-4.07771E-008	0.00000E+000	-1.90000E-001	9.94792E-004	5	..........a	-327.66
	290	58.2	-1.99941E-001	-4.20643E-008	0.00000E+000	-2.00000E-001	1.00429E-003	5	..........a	-327.66
	291	58.4	-2.09883E-001	-4.39024E-008	0.00000E+000	-2.10000E-001	9.90792E-004	5	..........a	-327.66
	292	58.6	-2.19855E-001	-4.47136E-008	0.00000E+000	-2.20000E-001	9.98892E-004	5	..........a	-327.66
	293	58.8	-2.29891E-001	-4.58900E-008	0.00000E+000	-2.30000E-001	1.00159E-003	5	..........a	-327.66
	294	59	-2.39867E-001	-4.72727E-008	0.00000E+000	-2.40000E-001	9.89892E-004	5	..........a	-327.66
	295	59.2	-2.49885E-001	-4.87578E-008	0.00000E+000	-2.50000E-001	1.00239E-003	5	..........a	-327.66
	296	59.4	-2.59801E-001	-5.02102E-008	0.00000E+000	-2.60000E-001	9.90292E-004	5	..........a	-327.66
	297	59.6	-2.69857E-001	-5.18722E-008	0.00000E+000	-2.70000E-001	1.00779E-003	5	..........a	-327.66
	298	59.8	-2.79941E-001	-5.34398E-008	0.00000E+000	-2.80000E-001	9.95592E-004	5	..........a	-327.66
	299	60	-2.89872E-001	-5.46283E-008	0.00000E+000	-2.90000E-001	1.01069E-003	5	..........a	-327.66
	300	60.2	-2.99833E-001	-5.62965E-008	0.00000E+000	-3.00000E-001	9.89192E-004	5	..........a	-327.66
	301	60.4	-3.09892E-001	-5.74673E-008	0.00000E+000	-3.10000E-001	1.00479E-003	5	..........a	-327.66
	302	60.6	-3.19869E-001	-5.87304E-008	0.00000E+000	-3.20000E-001	9.99092E-004	5	..........a	-327.66
	303	60.8	-3.29878E-001	-6.02598E-008	0.00000E+000	-3.30000E-001	9.98592E-004	5	..........a	-327.66
	304	61	-3.39813E-001	-6.17667E-008	0.00000E+000	-3.40000E-001	1.00329E-003	5	..........a	-327.66
	305	61.2	-3.49872E-001	-6.29710E-008	0.00000E+000	-3.50000E-001	9.86392E-004	5	..........a	-327.66
	306	61.4	-3.59905E-001	-6.44149E-008	0.00000E+000	-3.60000E-001	9.86592E-004	5	..........a	-327.66
	307	61.6	-3.69869E-001	-6.59137E-008	0.00000E+000	-3.70000E-001	1.00519E-003	5	..........a	-327.66
	308	61.8	-3.79825E-001	-6.72085E-008	0.00000E+000	-3.80000E-001	1.01399E-003	5	..........a	-327.66
	309	62	-3.89950E-001	-6.83553E-008	0.00000E+000	-3.90000E-001	1.00909E-003	5	..........a	-327.66
	310	62.2	-3.99854E-001	-6.96823E-008	0.00000E+000	-4.00000E-001	9.84392E-004	5	..........a	-327.66
	311	62.4	-4.09866E-001	-7.09636E-008	0.00000E+000	-4.10000E-001	1.00549E-003	5	..........a	-327.66
	312	62.6	-4.19786E-001	-7.23091E-008	0.00000E+000	-4.20000E-001	9.81592E-004	5	..........a	-327.66
	313	62.8	-4.29864E-001	-7.36688E-008	0.00000E+000	-4.30000E-001	9.96492E-004	5	..........a	-327.66
	314	63	-4.39841E-001	-7.50031E-008	0.00000E+000	-4.40000E-001	1.00929E-003	5	..........a	-327.66
	315	63.2	-4.49837E-001	-7.66192E-008	0.00000E+000	-4.50000E-001	1.00969E-003	5	..........a	-327.66
	316	63.4	-4.59803E-001	-7.73957E-008	0.00000E+000	-4.60000E-001	9.93992E-004	5	..........a	-327.66
	317	63.6	-4.69859E-001	-7.86551E-008	0.00000E+000	-4.70000E-001	9.95592E-004	5	..........a	-327.66
	318	63.8	-4.79867E-001	-8.01993E-008	0.00000E+000	-4.80000E-001	1.02079E-003	5	..........a	-327.66
	319	64	-4.89857E-001	-8.13168E-008	0.00000E+000	-4.90000E-001	1.02309E-003	5	..........a	-327.66
	320	64.2	-4.99827E-001	-8.26800E-008	0.00000E+000	-5.00000E-001	9.91592E-004	5	..........a	-327.66
	321	64.4	-5.09870E-001	-8.39906E-008	0.00000E+000	-5.10000E-001	1.00819E-003	5	..........a	-327.66
	322	64.6	-5.19823E-001	-8.52517E-008	0.00000E+000	-5.20000E-001	9.96592E-004	5	..........a	-327.66
	323	64.8	-5.29836E-001	-8.64730E-008	0.00000E+000	-5.30000E-001	1.00059E-003	5	..........a	-327.66
	324	65	-5.39787E-001	-8.77670E-008	0.00000E+000	-5.40000E-001	9.89992E-004	5	..........a	-327.66
	325	65.2	-5.49871E-001	-8.92224E-008	0.00000E+000	-5.50000E-001	9.99992E-004	5	..........a	-327.66
	326	65.4	-5.59845E-001	-9.03973E-008	0.00000E+000	-5.60000E-001	1.01229E-003	5	..........a	-327.66
	327	65.6	-5.69855E-001	-9.20363E-008	0.00000E+000	-5.70000E-001	1.00389E-003	5	..........a	-327.66
	328	65.8	-5.79812E-001	-9.34265E-008	0.00000E+000	-5.80000E-001	1.01269E-003	5	..........a	-327.66
	329	66	-5.89859E-001	-9.44657E-008	0.00000E+000	-5.90000E-001	1.00609E-003	5	..........a	-327.66
	330	66.2	-5.99886E-001	-9.53858E-008	0.00000E+000	-6.00000E-001	1.01099E-003	5	..........a	-327.66
	331	66.4	-5.89881E-001	-8.33407E-008	0.00000E+000	-5.90000E-001	1.00189E-003	5	..........a	-327.66
	332	66.6	-5.79809E-001	-7.53704E-008	0.00000E+000	-5.80000E-001	1.01269E-003	5	..........a	-327.66
	333	66.8	-5.69857E-001	-6.95402E-008	0.00000E+000	-5.70000E-001	1.03089E-003	5	..........a	-327.66
	334	67	-5.59897E-001	-6.42764E-008	0.00000E+000	-5.60000E-001	1.01549E-003	5	..........a	-327.66
	335	67.2	-5.49848E-001	-5.98294E-008	0.00000E+000	-5.50000E-001	9.88792E-004	5	..........a	-327.66
	336	67.4	-5.39791E-001	-5.64254E-008	0.00000E+000	-5.40000E-001	9.88992E-004	5	..........a	-327.66
	337	67.6	-5.29855E-001	-5.25423E-008	0.00000E+000	-5.30000E-001	9.90992E-004	5	..........a	-327.66
	338	67.8	-5.19827E-001	-4.94393E-008	0.00000E+000	-5.20000E-001	1.00449E-003	5	..........a	-327.66
	339	68	-5.09848E-001	-4.66270E-008	0.00000E+000	-5.10000E-001	1.00929E-003	5	..........a	-327.66
	340	68.2	-4.99828E-001	-4.39745E-008	0.00000E+000	-5.00000E-001	9.79992E-004	5	..........a	-327.66
	341	68.4	-4.89860E-001	-4.13434E-008	0.00000E+000	-4.90000E-001	1.01199E-003	5	..........a	-327.66
	342	68.6	-4.79859E-001	-3.87447E-008	0.00000E+000	-4.80000E-001	1.01249E-003	5	..........a	-327.66
	343	68.8	-4.69864E-001	-3.64746E-008	0.00000E+000	-4.70000E-001	1.00039E-003	5	..........a	-327.66
	344	69	-4.59825E-001	-3.44277E-008	0.00000E+000	-4.60000E-001	9.96492E-004	5	..........a	-327.66
	345	69.2	-4.49845E-001	-3.22737E-008	0.00000E+000	-4.50000E-001	9.93192E-004	5	..........a	-327.66
	346	69.4	-4.39854E-001	-3.01458E-008	0.00000E+000	-4.40000E-001	1.02009E-003	5	..........a	-327.66
	347	69.6	-4.29911E-001	-2.81840E-008	0.00000E+000	-4.30000E-001	9.96292E-004	5	..........a	-327.66
	348	69.8	-4.19816E-001	-2.63755E-008	0.00000E+000	-4.20000E-001	9.84192E-004	5	..........a	-327.66
	349	70	-4.09883E-001	-2.44727E-008	0.00000E+000	-4.10000E-001	9.98792E-004	5	..........a	-327.66
	350	70.2	-3.99904E-001	-2.27425E-008	0.00000E+000	-4.00000E-001	1.00889E-003	5	..........a	-327.66
	351	70.4	-3.89913E-001	-2.10627E-008	0.00000E+000	-3.90000E-001	9.93892E-004	5	..........a	-327.66
	352	70.6	-3.79846E-001	-1.93859E-008	0.00000E+000	-3.80000E-001	9.89592E-004	5	..........a	-327.66
[...]
	918	183.8	-3.19872E-001	-1.10157E-008	0.00000E+000	-3.20000E-001	9.88692E-004	5	..........a	-327.66
	919	184	-3.09915E-001	-9.56076E-009	0.00000E+000	-3.10000E-001	9.98492E-004	5	..........a	-327.66
	920	184.2	-2.99858E-001	-8.13982E-009	0.00000E+000	-3.00000E-001	9.75392E-004	5	..........a	-327.66
	921	184.4	-2.89898E-001	-6.73857E-009	0.00000E+000	-2.90000E-001	1.00659E-003	5	..........a	-327.66
	922	184.6	-2.79882E-001	-5.39471E-009	0.00000E+000	-2.80000E-001	1.01529E-003	5	..........a	-327.66
	923	184.8	-2.69877E-001	-4.04850E-009	0.00000E+000	-2.70000E-001	9.99492E-004	5	..........a	-327.66
	924	185	-2.59829E-001	-2.76592E-009	0.00000E+000	-2.60000E-001	9.63392E-004	5	..........a	-327.66
	925	185.2	-2.49939E-001	-1.41702E-009	0.00000E+000	-2.50000E-001	9.83092E-004	5	..........a	-327.66
	926	185.4	-2.39951E-001	-1.87240E-010	0.00000E+000	-2.40000E-001	9.84392E-004	5	..........a	-327.66
	927	185.6	-2.29990E-001	1.09113E-009	0.00000E+000	-2.30000E-001	1.00249E-003	5	..........a	-327.66
	928	185.8	-2.19893E-001	2.35201E-009	0.00000E+000	-2.20000E-001	9.97292E-004	5	..........a	-327.66
	929	186	-2.09947E-001	3.48061E-009	0.00000E+000	-2.10000E-001	9.92092E-004	5	..........a	-327.66
	930	186.2	-1.99956E-001	4.71522E-009	0.00000E+000	-2.00000E-001	9.97292E-004	5	..........a	-327.66
	931	186.4	-1.90187E-001	5.85506E-009	0.00000E+000	-1.90000E-001	9.87992E-004	5	..........a	-327.66
	932	186.6	-1.79930E-001	7.01853E-009	0.00000E+000	-1.80000E-001	9.80492E-004	5	..........a	-327.66
	933	186.8	-1.69918E-001	8.10984E-009	0.00000E+000	-1.70000E-001	9.89092E-004	5	..........a	-327.66
	934	187	-1.59980E-001	9.22725E-009	0.00000E+000	-1.60000E-001	9.83192E-004	5	..........a	-327.66
	935	187.2	-1.50013E-001	1.02860E-008	0.00000E+000	-1.50000E-001	9.97692E-004	5	..........a	-327.66
	936	187.4	-1.39941E-001	1.13932E-008	0.00000E+000	-1.40000E-001	9.71292E-004	5	..........a	-327.66
	937	187.6	-1.29975E-001	1.24616E-008	0.00000E+000	-1.30000E-001	9.96292E-004	5	..........a	-327.66
	938	187.8	-1.19978E-001	1.35264E-008	0.00000E+000	-1.20000E-001	9.97592E-004	5	..........a	-327.66
	939	188	-1.09949E-001	1.45875E-008	0.00000E+000	-1.10000E-001	9.92092E-004	5	..........a	-327.66
	940	188.2	-9.99409E-002	1.56402E-008	0.00000E+000	-1.00000E-001	9.83392E-004	5	..........a	-327.66
	941	188.4	-8.99160E-002	1.66849E-008	0.00000E+000	-9.00000E-002	1.00009E-003	5	..........a	-327.66
	942	188.6	-8.00180E-002	1.77299E-008	0.00000E+000	-8.00000E-002	9.94192E-004	5	..........a	-327.66
	943	188.8	-6.99346E-002	1.87529E-008	0.00000E+000	-7.00000E-002	1.00099E-003	5	..........a	-327.66
	944	189	-5.99027E-002	1.98219E-008	0.00000E+000	-6.00000E-002	9.76992E-004	5	..........a	-327.66
	945	189.2	-4.99091E-002	2.08700E-008	0.00000E+000	-5.00000E-002	9.79892E-004	5	..........a	-327.66
	946	189.4	-3.99560E-002	2.19304E-008	0.00000E+000	-4.00000E-002	9.98492E-004	5	..........a	-327.66
	947	189.6	-3.00695E-002	2.29609E-008	0.00000E+000	-3.00000E-002	9.89792E-004	5	..........a	-327.66
	948	189.8	-1.99490E-002	2.40194E-008	0.00000E+000	-2.00000E-002	9.84092E-004	5	..........a	-327.66
	949	190	-9.90721E-003	2.50516E-008	0.00000E+000	-1.00000E-002	9.96292E-004	5	..........a	-327.66
	950	190.2	-4.40836E-006	2.60256E-008	0.00000E+000	7.45058E-009	9.91792E-004	5	..........a	-327.66
	951	190.4	1.00987E-002	2.70963E-008	0.00000E+000	1.00000E-002	9.88492E-004	5	..........a	-327.66
	952	190.6	1.99972E-002	2.81119E-008	0.00000E+000	2.00000E-002	1.00639E-003	5	..........a	-327.66
	953	190.8	3.00385E-002	2.91499E-008	0.00000E+000	3.00000E-002	9.97292E-004	5	..........a	-327.66
	954	191	4.01114E-002	3.01369E-008	0.00000E+000	4.00000E-002	9.78292E-004	5	..........a	-327.66
	955	191.2	5.00495E-002	3.11464E-008	0.00000E+000	5.00000E-002	9.88792E-004	5	..........a	-327.66
	956	191.4	6.00909E-002	3.21838E-008	0.00000E+000	6.00000E-002	9.88292E-004	5	..........a	-327.66
	957	191.6	6.99708E-002	3.31927E-008	0.00000E+000	7.00000E-002	9.99892E-004	5	..........a	-327.66
	958	191.8	7.99997E-002	3.42345E-008	0.00000E+000	8.00000E-002	1.01129E-003	5	..........a	-327.66
	959	192	9.00938E-002	3.52393E-008	0.00000E+000	9.00000E-002	9.89492E-004	5	..........a	-327.66
	960	192.2	1.00075E-001	3.64353E-008	0.00000E+000	1.00000E-001	9.86392E-004	5	..........a	-327.66
	961	192.4	1.10060E-001	3.82300E-008	0.00000E+000	1.10000E-001	9.75592E-004	5	..........a	-327.66
	962	192.6	1.19968E-001	3.87760E-008	0.00000E+000	1.20000E-001	9.83192E-004	5	..........a	-327.66
	963	192.8	1.30020E-001	3.95827E-008	0.00000E+000	1.30000E-001	9.95992E-004	5	..........a	-327.66
	964	193	1.40082E-001	4.05443E-008	0.00000E+000	1.40000E-001	9.88492E-004	5	..........a	-327.66
	965	193.2	1.50037E-001	4.16375E-008	0.00000E+000	1.50000E-001	1.00139E-003	5	..........a	-327.66
	966	193.4	1.60027E-001	4.27715E-008	0.00000E+000	1.60000E-001	1.00259E-003	5	..........a	-327.66
	967	193.6	1.70017E-001	4.38426E-008	0.00000E+000	1.70000E-001	9.90092E-004	5	..........a	-327.66
	968	193.8	1.80028E-001	4.49740E-008	0.00000E+000	1.80000E-001	9.74292E-004	5	..........a	-327.66
	969	194	1.90079E-001	4.61250E-008	0.00000E+000	1.90000E-001	9.83292E-004	5	..........a	-327.66
	970	194.2	1.99999E-001	4.72857E-008	0.00000E+000	2.00000E-001	1.01219E-003	5	..........a	-327.66
	971	194.4	2.09956E-001	4.84487E-008	0.00000E+000	2.10000E-001	9.82492E-004	5	..........a	-327.66
	972	194.6	2.20034E-001	4.94953E-008	0.00000E+000	2.20000E-001	9.94492E-004	5	..........a	-327.66
	973	194.8	2.29995E-001	5.05286E-008	0.00000E+000	2.30000E-001	9.92092E-004	5	..........a	-327.66
	974	195	2.40012E-001	5.14276E-008	0.00000E+000	2.40000E-001	1.00409E-003	5	..........a	-327.66
	975	195.2	2.49962E-001	5.23194E-008	0.00000E+000	2.50000E-001	1.01189E-003	5	..........a	-327.66
	976	195.4	2.60025E-001	5.31436E-008	0.00000E+000	2.60000E-001	9.78792E-004	5	..........a	-327.66
	977	195.6	2.70003E-001	5.39397E-008	0.00000E+000	2.70000E-001	9.84192E-004	5	..........a	-327.66
	978	195.8	2.79960E-001	5.47987E-008	0.00000E+000	2.80000E-001	9.89592E-004	5	..........a	-327.66
	979	196	2.90023E-001	5.56682E-008	0.00000E+000	2.90000E-001	9.84292E-004	5	..........a	-327.66
	980	196.2	2.99995E-001	5.65333E-008	0.00000E+000	3.00000E-001	9.75792E-004	5	..........a	-327.66
	981	196.4	3.10030E-001	5.75775E-008	0.00000E+000	3.10000E-001	9.98592E-004	5	..........a	-327.66
	982	196.6	3.19994E-001	5.85022E-008	0.00000E+000	3.20000E-001	9.83992E-004	5	..........a	-327.66
	983	196.8	3.29996E-001	5.96198E-008	0.00000E+000	3.30000E-001	9.80492E-004	5	..........a	-327.66
	984	197	3.40037E-001	6.07579E-008	0.00000E+000	3.40000E-001	9.98792E-004	5	..........a	-327.66
	985	197.2	3.50017E-001	6.19808E-008	0.00000E+000	3.50000E-001	1.00059E-003	5	..........a	-327.66
	986	197.4	3.59997E-001	6.33630E-008	0.00000E+000	3.60000E-001	9.83492E-004	5	..........a	-327.66
	987	197.6	3.70007E-001	6.47613E-008	0.00000E+000	3.70000E-001	9.88892E-004	5	..........a	-327.66
	988	197.8	3.80029E-001	6.63172E-008	0.00000E+000	3.80000E-001	9.78792E-004	5	..........a	-327.66
	989	198	3.90042E-001	6.79832E-008	0.00000E+000	3.90000E-001	9.82392E-004	5	..........a	-327.66
	990	198.2	3.99941E-001	6.97396E-008	0.00000E+000	4.00000E-001	9.78292E-004	5	..........a	-327.66
	991	198.4	4.09936E-001	7.16229E-008	0.00000E+000	4.10000E-001	9.73292E-004	5	..........a	-327.66
	992	198.6	4.19986E-001	7.36418E-008	0.00000E+000	4.20000E-001	9.76192E-004	5	..........a	-327.66
	993	198.8	4.29994E-001	7.58042E-008	0.00000E+000	4.30000E-001	9.97592E-004	5	..........a	-327.66
	994	199	4.39954E-001	7.79921E-008	0.00000E+000	4.40000E-001	9.97892E-004	5	..........a	-327.66
	995	199.2	4.50013E-001	8.02624E-008	0.00000E+000	4.50000E-001	9.97692E-004	5	..........a	-327.66
	996	199.4	4.59957E-001	8.26203E-008	0.00000E+000	4.60000E-001	9.78392E-004	5	..........a	-327.66
	997	199.6	4.69986E-001	8.50910E-008	0.00000E+000	4.70000E-001	9.90592E-004	5	..........a	-327.66
	998	199.8	4.79928E-001	8.76416E-008	0.00000E+000	4.80000E-001	9.96992E-004	5	..........a	-327.66
	999	200	4.89921E-001	9.02768E-008	0.00000E+000	4.90000E-001	9.97892E-004	5	..........a	-327.66
	1000	200.2	4.99969E-001	9.30092E-008	0.00000E+000	5.00000E-001	9.92792E-004	5	..........a	-327.66
	1001	200.4	5.09970E-001	9.57583E-008	0.00000E+000	5.10000E-001	1.00519E-003	5	..........a	-327.66
	1002	200.6	5.19939E-001	9.85601E-008	0.00000E+000	5.20000E-001	9.94592E-004	5	..........a	-327.66
	1003	200.8	5.29965E-001	1.01359E-007	0.00000E+000	5.30000E-001	9.96692E-004	5	..........a	-327.66
	1004	201	5.39958E-001	1.04134E-007	0.00000E+000	5.40000E-001	9.86192E-004	5	..........a	-327.66
	1005	201.2	5.49990E-001	1.06826E-007	0.00000E+000	5.50000E-001	9.99192E-004	5	..........a	-327.66
	1006	201.4	5.59936E-001	1.09404E-007	0.00000E+000	5.60000E-001	1.00329E-003	5	..........a	-327.66
	1007	201.6	5.69939E-001	1.11870E-007	0.00000E+000	5.70000E-001	1.00569E-003	5	..........a	-327.66
	1008	201.8	5.79939E-001	1.14278E-007	0.00000E+000	5.80000E-001	9.83792E-004	5	..........a	-327.66
	1009	202	5.89999E-001	1.16569E-007	0.00000E+000	5.90000E-001	9.72992E-004	5	..........a	-327.66
	1010	202.2	5.99928E-001	1.18836E-007	0.00000E+000	6.00000E-001	9.88992E-004	5	..........a	-327.66
	1011	202.4	6.09925E-001	1.21076E-007	0.00000E+000	6.10000E-001	9.99992E-004	5	..........a	-327.66
	1012	202.6	6.19900E-001	1.23374E-007	0.00000E+000	6.20000E-001	1.00009E-003	5	..........a	-327.66
	1013	202.8	6.29982E-001	1.25694E-007	0.00000E+000	6.30000E-001	9.84192E-004	5	..........a	-327.66
	1014	203	6.39877E-001	1.28056E-007	0.00000E+000	6.40000E-001	9.92692E-004	5	..........a	-327.66
	1015	203.2	6.49888E-001	1.30540E-007	0.00000E+000	6.50000E-001	9.95192E-004	5	..........a	-327.66
	1016	203.4	6.59893E-001	1.33162E-007	0.00000E+000	6.60000E-001	9.62292E-004	5	..........a	-327.66
	1017	203.6	6.69948E-001	1.35872E-007	0.00000E+000	6.70000E-001	9.89692E-004	5	..........a	-327.66
	1018	203.8	6.79927E-001	1.38633E-007	0.00000E+000	6.80000E-001	1.00609E-003	5	..........a	-327.66
	1019	204	6.89882E-001	1.41622E-007	0.00000E+000	6.90000E-001	9.81592E-004	5	..........a	-327.66
	1020	204.2	6.99879E-001	1.44804E-007	0.00000E+000	7.00000E-001	9.90492E-004	5	..........a	-327.66
	1021	204.4	7.09967E-001	1.48241E-007	0.00000E+000	7.10000E-001	1.00119E-003	5	..........a	-327.66
	1022	204.6	7.19860E-001	1.51884E-007	0.00000E+000	7.20000E-001	9.73192E-004	5	..........a	-327.66
	1023	204.8	7.29884E-001	1.55874E-007	0.00000E+000	7.30000E-001	9.92092E-004	5	..........a	-327.66
	1024	205	7.39863E-001	1.60213E-007	0.00000E+000	7.40000E-001	9.86992E-004	5	..........a	-327.66
	1025	205.2	7.49940E-001	1.64909E-007	0.00000E+000	7.50000E-001	9.97192E-004	5	..........a	-327.66
	1026	205.4	7.59868E-001	1.70019E-007	0.00000E+000	7.60000E-001	1.00009E-003	5	..........a	-327.66
	1027	205.6	7.69862E-001	1.75242E-007	0.00000E+000	7.70000E-001	9.86992E-004	5	..........a	-327.66
	1028	205.8	7.79855E-001	1.80897E-007	0.00000E+000	7.80000E-001	1.00119E-003	5	..........a	-327.66
	1029	206	7.89950E-001	1.86953E-007	0.00000E+000	7.90000E-001	9.99992E-004	5	..........a	-327.66
	1030	206.2	7.99833E-001	1.93432E-007	0.00000E+000	8.00000E-001	9.86592E-004	5	..........a	-327.66
CURVE5	TABLE
	Pt	T	Vf	Im	Vu	Sig	Ach	IERange	Over	Temp
	#	s	V vs. Ref.	A	V	V	V	#	bits	deg C
	1031	206.4	7.89963E-001	1.55696E-007	0.00000E+000	7.90000E-001	9.92692E-004	5	..........a	-327.66
	1032	206.6	7.79886E-001	1.31609E-007	0.00000E+000	7.80000E-001	9.86992E-004	5	..........a	-327.66
	1033	206.8	7.69907E-001	1.14403E-007	0.00000E+000	7.70000E-001	9.92792E-004	5	..........a	-327.66
	1034	207	7.59887E-001	1.01516E-007	0.00000E+000	7.60000E-001	9.97392E-004	5	..........a	-327.66
	1035	207.2	7.49971E-001	9.14470E-008	0.00000E+000	7.50000E-001	9.89892E-004	5	..........a	-327.66
	1036	207.4	7.39900E-001	8.33258E-008	0.00000E+000	7.40000E-001	9.86092E-004	5	..........a	-327.66
	1037	207.6	7.29930E-001	7.65579E-008	0.00000E+000	7.30000E-001	9.89792E-004	5	..........a	-327.66
	1038	207.8	7.19901E-001	7.09322E-008	0.00000E+000	7.20000E-001	1.00019E-003	5	..........a	-327.66
	1039	208	7.09982E-001	6.60418E-008	0.00000E+000	7.10000E-001	9.97892E-004	5	..........a	-327.66
	1040	208.2	6.99912E-001	6.17235E-008	0.00000E+000	7.00000E-001	9.82592E-004	5	..........a	-327.66
	1041	208.4	6.89923E-001	5.79232E-008	0.00000E+000	6.90000E-001	9.93392E-004	5	..........a	-327.66
	1042	208.6	6.79947E-001	5.44489E-008	0.00000E+000	6.80000E-001	1.00049E-003	5	..........a	-327.66
	1043	208.8	6.69980E-001	5.12352E-008	0.00000E+000	6.70000E-001	9.94092E-004	5	..........a	-327.66
	1044	209	6.59942E-001	4.82788E-008	0.00000E+000	6.60000E-001	9.82492E-004	5	..........a	-327.66
	1045	209.2	6.49944E-001	4.54956E-008	0.00000E+000	6.50000E-001	1.01099E-003	5	..........a	-327.66
	1046	209.4	6.39886E-001	4.28950E-008	0.00000E+000	6.40000E-001	1.01059E-003	5	..........a	-327.66
	1047	209.6	6.30026E-001	4.03668E-008	0.00000E+000	6.30000E-001	9.81292E-004	5	..........a	-327.66
	1048	209.8	6.19932E-001	3.80199E-008	0.00000E+000	6.20000E-001	9.98592E-004	5	..........a	-327.66
	1049	210	6.09978E-001	3.57977E-008	0.00000E+000	6.10000E-001	9.90292E-004	5	..........a	-327.66
	1050	210.2	5.99971E-001	3.36618E-008	0.00000E+000	6.00000E-001	1.00919E-003	5	..........a	-327.66
	1051	210.4	5.90024E-001	3.16868E-008	0.00000E+000	5.90000E-001	9.85692E-004	5	..........a	-327.66
	1052	210.6	5.79987E-001	2.98245E-008	0.00000E+000	5.80000E-001	9.81392E-004	5	..........a	-327.66
	1053	210.8	5.69948E-001	2.81379E-008	0.00000E+000	5.70000E-001	1.00679E-003	5	..........a	-327.66
	1054	211	5.59931E-001	2.64924E-008	0.00000E+000	5.60000E-001	9.99092E-004	5	..........a	-327.66
	1055	211.2	5.50026E-001	2.48032E-008	0.00000E+000	5.50000E-001	9.98192E-004	5	..........a	-327.66
	1056	211.4	5.39983E-001	2.31629E-008	0.00000E+000	5.40000E-001	9.78292E-004	5	..........a	-327.66
	1057	211.6	5.29975E-001	2.15067E-008	0.00000E+000	5.30000E-001	9.92492E-004	5	..........a	-327.66
	1058	211.8	5.19981E-001	1.98493E-008	0.00000E+000	5.20000E-001	1.01439E-003	5	..........a	-327.66
	1059	212	5.09962E-001	1.83652E-008	0.00000E+000	5.10000E-001	1.01249E-003	5	..........a	-327.66
	1060	212.2	5.00054E-001	1.69860E-008	0.00000E+000	5.00000E-001	9.89292E-004	5	..........a	-327.66
	1061	212.4	4.89949E-001	1.57291E-008	0.00000E+000	4.90000E-001	1.02509E-003	5	..........a	-327.66
	1062	212.6	4.79928E-001	1.44813E-008	0.00000E+000	4.80000E-001	9.90992E-004	5	..........a	-327.66
	1063	212.8	4.70011E-001	1.31960E-008	0.00000E+000	4.70000E-001	9.87992E-004	5	..........a	-327.66
	1064	213	4.60003E-001	1.18345E-008	0.00000E+000	4.60000E-001	9.92892E-004	5	..........a	-327.66
	1065	213.2	4.49865E-001	1.04141E-008	0.00000E+000	4.50000E-001	9.76892E-004	5	..........a	-327.66
	1066	213.4	4.39948E-001	8.96718E-009	0.00000E+000	4.40000E-001	1.01119E-003	5	..........a	-327.66
	1067	213.6	4.29980E-001	7.45099E-009	0.00000E+000	4.30000E-001	1.00219E-003	5	..........a	-327.66
	1068	213.8	4.20009E-001	5.90907E-009	0.00000E+000	4.20000E-001	9.91492E-004	5	..........a	-327.66
	1069	214	4.09964E-001	4.34922E-009	0.00000E+000	4.10000E-001	9.96992E-004	5	..........a	-327.66
	1070	214.2	3.99967E-001	2.70980E-009	0.00000E+000	4.00000E-001	9.94992E-004	5	..........a	-327.66
	1071	214.4	3.90044E-001	1.00052E-009	0.00000E+000	3.90000E-001	1.00309E-003	5	..........a	-327.66
	1072	214.6	3.80072E-001	-8.46635E-010	0.00000E+000	3.80000E-001	9.93492E-004	5	..........a	-327.66
	1073	214.8	3.70044E-001	-2.64991E-009	0.00000E+000	3.70000E-001	9.75092E-004	5	..........a	-327.66
	1074	215	3.60044E-001	-4.50392E-009	0.00000E+000	3.60000E-001	9.98092E-004	5	..........a	-327.66
	1075	215.2	3.50041E-001	-6.49487E-009	0.00000E+000	3.50000E-001	1.01629E-003	5	..........a	-327.66
	1076	215.4	3.40089E-001	-8.57917E-009	0.00000E+000	3.40000E-001	9.96192E-004	5	..........a	-327.66
	1077	215.6	3.30038E-001	-1.07590E-008	0.00000E+000	3.30000E-001	9.95592E-004	5	..........a	-327.66
	1078	215.8	3.20054E-001	-1.30654E-008	0.00000E+000	3.20000E-001	9.92992E-004	5	..........a	-327.66
	1079	216	3.10068E-001	-1.54913E-008	0.00000E+000	3.10000E-001	9.94592E-004	5	..........a	-327.66
	1080	216.2	3.00096E-001	-1.81012E-008	0.00000E+000	3.00000E-001	9.68992E-004	5	..........a	-327.66
	1081	216.4	2.90061E-001	-2.09169E-008	0.00000E+000	2.90000E-001	9.84792E-004	5	..........a	-327.66
	1082	216.6	2.80022E-001	-2.38520E-008	0.00000E+000	2.80000E-001	9.95692E-004	5	..........a	-327.66
	1083	216.8	2.70106E-001	-2.69879E-008	0.00000E+000	2.70000E-001	9.74492E-004	5	..........a	-327.66
	1084	217	2.60081E-001	-3.02731E-008	0.00000E+000	2.60000E-001	9.89792E-004	5	..........a	-327.66
	1085	217.2	2.50031E-001	-3.36648E-008	0.00000E+000	2.50000E-001	1.00469E-003	5	..........a	-327.66
	1086	217.4	2.40064E-001	-3.71520E-008	0.00000E+000	2.40000E-001	9.95192E-004	5	..........a	-327.66
	1087	217.6	2.30036E-001	-4.06291E-008	0.00000E+000	2.30000E-001	9.98192E-004	5	..........a	-327.66
	1088	217.8	2.20078E-001	-4.39943E-008	0.00000E+000	2.20000E-001	9.88992E-004	5	..........a	-327.66
	1089	218	2.10055E-001	-4.70776E-008	0.00000E+000	2.10000E-001	9.93192E-004	5	..........a	-327.66
	1090	218.2	2.00111E-001	-4.97060E-008	0.00000E+000	2.00000E-001	1.00349E-003	5	..........a	-327.66
	1091	218.4	1.90132E-001	-5.18174E-008	0.00000E+000	1.90000E-001	9.83692E-004	5	..........a	-327.66
	1092	218.6	1.80130E-001	-5.31916E-008	0.00000E+000	1.80000E-001	9.80892E-004	5	..........a	-327.66
	1093	218.8	1.70095E-001	-5.37905E-008	0.00000E+000	1.70000E-001	1.00989E-003	5	..........a	-327.66
	1094	219	1.60084E-001	-5.35741E-008	0.00000E+000	1.60000E-001	9.92992E-004	5	..........a	-327.66
	1095	219.2	1.50084E-001	-5.25498E-008	0.00000E+000	1.50000E-001	9.82592E-004	5	..........a	-327.66
	1096	219.4	1.40141E-001	-5.08137E-008	0.00000E+000	1.40000E-001	9.76192E-004	5	..........a	-327.66
	1097	219.6	1.30082E-001	-4.84891E-008	0.00000E+000	1.30000E-001	1.00609E-003	5	..........a	-327.66
	1098	219.8	1.20112E-001	-4.57198E-008	0.00000E+000	1.20000E-001	9.75692E-004	5	..........a	-327.66
	1099	220	1.10114E-001	-4.27359E-008	0.00000E+000	1.10000E-001	9.90792E-004	5	..........a	-327.66
	1100	220.2	1.00128E-001	-3.95578E-008	0.00000E+000	1.00000E-001	9.86592E-004	5	..........a	-327.66
	1101	220.4	9.01103E-002	-3.66525E-008	0.00000E+000	9.00000E-002	9.71592E-004	5	..........a	-327.66
	1102	220.6	8.00645E-002	-3.40777E-008	0.00000E+000	8.00000E-002	9.98292E-004	5	..........a	-327.66
	1103	220.8	7.00357E-002	-3.20919E-008	0.00000E+000	7.00000E-002	1.02019E-003	5	..........a	-327.66
	1104	221	6.01250E-002	-3.05345E-008	0.00000E+000	6.00000E-002	9.88892E-004	5	..........a	-327.66
	1105	221.2	5.00839E-002	-2.95164E-008	0.00000E+000	5.00000E-002	1.01129E-003	5	..........a	-327.66
	1106	221.4	4.00446E-002	-2.88186E-008	0.00000E+000	4.00000E-002	1.00709E-003	5	..........a	-327.66
	1107	221.6	3.00652E-002	-2.84240E-008	0.00000E+000	3.00000E-002	1.00549E-003	5	..........a	-327.66
	1108	221.8	2.01476E-002	-2.83661E-008	0.00000E+000	2.00000E-002	1.00439E-003	5	..........a	-327.66
	1109	222	1.01116E-002	-2.84732E-008	0.00000E+000	1.00000E-002	9.91592E-004	5	..........a	-327.66
	1110	222.2	5.81917E-005	-2.89369E-008	0.00000E+000	7.45058E-009	1.00269E-003	5	..........a	-327.66
	1111	222.4	-9.87251E-003	-2.90311E-008	0.00000E+000	-1.00000E-002	9.93592E-004	5	..........a	-327.66
	1112	222.6	-1.98944E-002	-2.92977E-008	0.00000E+000	-2.00000E-002	1.00009E-003	5	..........a	-327.66
	1113	222.8	-2.99080E-002	-2.95426E-008	0.00000E+000	-3.00000E-002	9.87792E-004	5	..........a	-327.66
	1114	223	-3.98965E-002	-3.00542E-008	0.00000E+000	-4.00000E-002	9.80592E-004	5	..........a	-327.66
	1115	223.2	-4.99025E-002	-3.10059E-008	0.00000E+000	-5.00000E-002	1.00359E-003	5	..........a	-327.66
	1116	223.4	-5.98795E-002	-3.13926E-008	0.00000E+000	-6.00000E-002	9.66992E-004	5	..........a	-327.66
	1117	223.6	-6.99064E-002	-3.16555E-008	0.00000E+000	-7.00000E-002	9.80292E-004	5	..........a	-327.66
	1118	223.8	-7.99496E-002	-3.22584E-008	0.00000E+000	-8.00000E-002	9.95492E-004	5	..........a	-327.66