File: data/raw/batch_data/20240424_L_GM0016_HL03_E03_CV50K.DTA
EXPLAIN
TAG	CV
TITLE	LABEL	Cyclic Voltammetry	Test &Identifier
DATE	LABEL	4/24/2024	Date
TIME	LABEL	17:23:41	Time
NOTES	NOTES	1	&Notes...

PSTAT	PSTAT	REF600P-43058	Potentiostat
VINIT	POTEN	0.00000E+000	T	Initial &E (V)
VLIMIT1	POTEN	-6.00000E-001	F	Scan Limit &1 (V)
VLIMIT2	POTEN	8.00000E-001	F	Scan Limit &2 (V)
VFINAL	POTEN	0.00000E+000	T	Final &E (V)
SCANRATE	QUANT	4.99999E+004	&Scan Rate (mV/s)
STEPSIZE	QUANT	1.00000E+001	St&ep Size (mV)
CYCLES	IQUANT	10	C&ycles (#)
IMODE	SELECTOR	0	I/E Range &Mode
IRANGE	QUANT	1.00000E-005	&Max Current (mA)
AREA	QUANT	1.00000E+000	Electrode &Area (cm^2)
ELECTRODETYPE	SELECTOR	0	Electrode Type
STRIPPING	TOGGLE	F	Used for Stripping
POLARITY	TOGGLE	F	Signal Polarity
CONDIT	TWOPARAM	F	1.50000E+001	0.00000E+000	Conditionin&g	Time(s)	E(V)
DELAY	TWOPARAM	T	1.00000E+001	0.00000E+000	Init. De&lay	Time(s)	Stab.(mV/s)
EQDELAY	QUANT	1.00000E+001	Equil. &Time (s)
IRCOMP	SELECTOR	0	IRCom&p
PFCOR	QUANT	5.00000E+001	PF Corr. (ohm)
SAMPLINGMODE	SELECTOR	1	Sampling &Mode
OCVCURVE	TABLE	39
	Pt	T	Vf	Vm	Ach	Over	Temp
	#	s	V vs. Ref.	V	V	bits	deg C
	0	0.258333	-1.95880E-001	-1.95880E-001	2.28059E-004	..........a	-327.66
	1	0.516667	-1.95894E-001	-1.96637E-001	2.31126E-004	..........a	-327.66
	2	0.775	-1.95983E-001	-1.97373E-001	2.29792E-004	..........a	-327.66
	3	1.03333	-1.96237E-001	-1.98079E-001	2.32192E-004	..........a	-327.66
	4	1.29167	-1.96692E-001	-1.98758E-001	2.24459E-004	..........a	-327.66
	5	1.55	-1.97302E-001	-1.99414E-001	2.25859E-004	..........a	-327.66
	6	1.80833	-1.97982E-001	-2.00052E-001	2.34059E-004	..........a	-327.66
	7	2.06667	-1.98671E-001	-2.00669E-001	2.33726E-004	..........a	-327.66
	8	2.325	-1.99341E-001	-2.01262E-001	2.30192E-004	..........a	-327.66
	9	2.58333	-1.99985E-001	-2.01819E-001	2.20992E-004	..........a	-327.66
	10	2.84167	-2.00601E-001	-2.02303E-001	2.23592E-004	..........a	-327.66
	11	3.1	-2.01186E-001	-2.02759E-001	2.27059E-004	..........a	-327.66
	12	3.35833	-2.01732E-001	-2.03211E-001	2.30926E-004	..........a	-327.66
	13	3.61667	-2.02240E-001	-2.03659E-001	2.20459E-004	..........a	-327.66
	14	3.875	-2.02717E-001	-2.04099E-001	2.25926E-004	..........a	-327.66
	15	4.13333	-2.03175E-001	-2.04539E-001	2.26992E-004	..........a	-327.66
	16	4.39167	-2.03622E-001	-2.04968E-001	2.27859E-004	..........a	-327.66
	17	4.65	-2.04064E-001	-2.05397E-001	2.28726E-004	..........a	-327.66
	18	4.90833	-2.04500E-001	-2.05808E-001	2.33526E-004	..........a	-327.66
	19	5.16667	-2.04931E-001	-2.06220E-001	2.23059E-004	..........a	-327.66
	20	5.425	-2.05355E-001	-2.06622E-001	2.22059E-004	..........a	-327.66
	21	5.68333	-2.05772E-001	-2.07018E-001	2.30659E-004	..........a	-327.66
	22	5.94167	-2.06182E-001	-2.07405E-001	2.33792E-004	..........a	-327.66
	23	6.2	-2.06585E-001	-2.07784E-001	2.21459E-004	..........a	-327.66
	24	6.45833	-2.06981E-001	-2.08162E-001	2.24459E-004	..........a	-327.66
	25	6.71667	-2.07369E-001	-2.08525E-001	2.26926E-004	..........a	-327.66
	26	6.975	-2.07751E-001	-2.08887E-001	2.22659E-004	..........a	-327.66
	27	7.23333	-2.08125E-001	-2.09240E-001	2.35059E-004	..........a	-327.66
	28	7.49167	-2.08493E-001	-2.09588E-001	2.31326E-004	..........a	-327.66
	29	7.75	-2.08854E-001	-2.09925E-001	2.23859E-004	..........a	-327.66
	30	8.00833	-2.09208E-001	-2.10255E-001	2.30192E-004	..........a	-327.66
	31	8.26667	-2.09554E-001	-2.10574E-001	2.25926E-004	..........a	-327.66
	32	8.525	-2.09892E-001	-2.10878E-001	2.18392E-004	..........a	-327.66
	33	8.78333	-2.10221E-001	-2.11177E-001	2.24859E-004	..........a	-327.66
	34	9.04167	-2.10540E-001	-2.11467E-001	2.15792E-004	..........a	-327.66
	35	9.3	-2.10849E-001	-2.11762E-001	2.14926E-004	..........a	-327.66
	36	9.5583	-2.11150E-001	-2.12053E-001	2.17192E-004	..........a	-327.66
	37	9.8167	-2.11445E-001	-2.12337E-001	2.28192E-004	..........a	-327.66
	38	10.075	-2.11738E-001	-2.12624E-001	2.16792E-004	..........a	-327.66
EOC	QUANT	-0.2117376	Open Circuit (V)
PSTATMODEL	IQUANT	7	Pstat Model
PSTATSECTION	LABEL	REF600P-43058	Pstat Section
PSTATSERIALNO	LABEL	43058	Pstat Serial Number
CTRLMODE	IQUANT	1	Control Mode
ELECTROMETER	IQUANT	0	RE=0 or CS=1
IESTAB	IQUANT	2	I/E Stability
CASPEED	IQUANT	4	Control Amp Speed
CONVENTION	IQUANT	1	Current Convention
ICHRANGE	IQUANT	2	Ich Range
ICHRANGEMODE	TOGGLE	F	Ich Auto Range
ICHOFFSETENABLE	TOGGLE	F	Ich Offset Enable
ICHOFFSET	QUANT	0	Ich Offset (V)
ICHFILTER	IQUANT	1	Ich Filter
VCHRANGE	IQUANT	2	Vch Range
VCHRANGEMODE	TOGGLE	F	Vch Auto Range
VCHOFFSETENABLE	TOGGLE	F	Vch Offset Enable
VCHOFFSET	QUANT	0	Vch Offset (V)
VCHFILTER	IQUANT	1	Vch Filter
ACHRANGE	IQUANT	2	Ach Range
ACHOFFSETENABLE	TOGGLE	F	Ach Offset Enable
ACHOFFSET	QUANT	0	Ach Offset (V)
ACHFILTER	IQUANT	1	Ach Filter
IERANGELOWERLIMIT	IQUANT	1	I/E Range Lower Limit
IERANGEMODE	TOGGLE	T	I/E AutoRange
IERANGE	IQUANT	4	I/E Range
POSFEEDENABLE	TOGGLE	F	Positive Feedback IR Comp
POSFEEDRESISTANCE	QUANT	0	Positive Feedback Resistance (ohm)
ACHSELECT	IQUANT	4	Ach Select
SENSECABLEID	IQUANT	7	Sense Cable ID
PWRCABLEID	IQUANT	7	Power Cable ID
DCCALDATE	LABEL	3/22/2024	DC Calibration Date
ACCALDATE	LABEL	3/22/2024	AC Calibration Date
THERMOSELECT	IQUANT	1	Thermo Select
FRAMEWORKVERSION	LABEL	7.8.4	Framework Version
INSTRUMENTVERSION	LABEL	4.42	Instrument Version
CURVE1	TABLE
	Pt	T	Vf	Im	Vu	Sig	Ach	IERange	Over	Temp
	#	s	V vs. Ref.	A	V	V	V	#	bits	deg C
	0	0.0002	-2.11653E-001	2.25001E-007	0.00000E+000	-2.11750E-001	8.15923E-005	8	..........a	-327.66
	1	0.0004	-2.21953E-001	-6.45033E-007	0.00000E+000	-2.21750E-001	8.15923E-005	8	..........a	-327.66
	2	0.0006	-2.31653E-001	-1.29506E-006	0.00000E+000	-2.31750E-001	-3.18408E-004	8	..........a	-327.66
	3	0.0008	-2.41853E-001	-1.80508E-006	0.00000E+000	-2.41750E-001	8.15923E-005	8	..........a	-327.66
	4	0.001	-2.51553E-001	-2.28510E-006	0.00000E+000	-2.51750E-001	8.15923E-005	8	..........a	-327.66
	5	0.0012	-2.61653E-001	-2.61511E-006	0.00000E+000	-2.61750E-001	8.15923E-005	8	..........a	-327.66
	6	0.0014	-2.71553E-001	-2.95512E-006	0.00000E+000	-2.71750E-001	-2.18408E-004	8	..........a	-327.66
	7	0.0016	-2.81753E-001	-3.25513E-006	0.00000E+000	-2.81750E-001	8.15923E-005	8	..........a	-327.66
	8	0.0018	-2.91853E-001	-3.44514E-006	0.00000E+000	-2.91750E-001	8.15923E-005	8	..........a	-327.66
	9	0.002	-3.01653E-001	-3.66515E-006	0.00000E+000	-3.01750E-001	8.15923E-005	8	..........a	-327.66
	10	0.0022	-3.11653E-001	-3.87516E-006	0.00000E+000	-3.11750E-001	8.15923E-005	8	..........a	-327.66
	11	0.0024	-3.21853E-001	-4.11517E-006	0.00000E+000	-3.21750E-001	8.15923E-005	8	..........a	-327.66
	12	0.0026	-3.31653E-001	-4.19517E-006	0.00000E+000	-3.31750E-001	8.15923E-005	8	..........a	-327.66
	13	0.0028	-3.41553E-001	-4.41518E-006	0.00000E+000	-3.41750E-001	8.15923E-005	8	..........a	-327.66
	14	0.003	-3.51653E-001	-4.57518E-006	0.00000E+000	-3.51750E-001	8.15923E-005	8	..........a	-327.66
	15	0.0032	-3.61653E-001	-4.69519E-006	0.00000E+000	-3.61750E-001	8.15923E-005	8	..........a	-327.66
	16	0.0034	-3.71653E-001	-4.80519E-006	0.00000E+000	-3.71750E-001	8.15923E-005	8	..........a	-327.66
	17	0.0036	-3.81653E-001	-4.91520E-006	0.00000E+000	-3.81750E-001	8.15923E-005	8	..........a	-327.66
	18	0.0038	-3.91753E-001	-5.07520E-006	0.00000E+000	-3.91750E-001	8.15923E-005	8	..........a	-327.66
	19	0.004	-4.01753E-001	-5.15521E-006	0.00000E+000	-4.01750E-001	8.15923E-005	8	..........a	-327.66
	20	0.0042	-4.11753E-001	-5.31521E-006	0.00000E+000	-4.11750E-001	8.15923E-005	8	..........a	-327.66
	21	0.0044	-4.21503E-001	-5.40521E-006	0.00000E+000	-4.21750E-001	8.15923E-005	8	..........a	-327.66
	22	0.0046	-4.31653E-001	-5.53522E-006	0.00000E+000	-4.31750E-001	8.15923E-005	8	..........a	-327.66
	23	0.0048	-4.41753E-001	-5.63522E-006	0.00000E+000	-4.41750E-001	8.15923E-005	8	..........a	-327.66
	24	0.005	-4.51653E-001	-5.75523E-006	0.00000E+000	-4.51750E-001	8.15923E-005	8	..........a	-327.66
	25	0.0052	-4.61653E-001	-5.87523E-006	0.00000E+000	-4.61750E-001	8.15923E-005	8	..........a	-327.66
	26	0.0054	-4.71553E-001	-6.00524E-006	0.00000E+000	-4.71750E-001	8.15923E-005	8	..........a	-327.66
	27	0.0056	-4.81653E-001	-6.11524E-006	0.00000E+000	-4.81750E-001	8.15923E-005	8	..........a	-327.66
	28	0.0058	-4.91453E-001	-6.23525E-006	0.00000E+000	-4.91750E-001	8.15923E-005	8	..........a	-327.66
	29	0.006	-5.01553E-001	-6.27525E-006	0.00000E+000	-5.01750E-001	8.15923E-005	8	..........a	-327.66
	30	0.0062	-5.11653E-001	-6.41525E-006	0.00000E+000	-5.11750E-001	8.15923E-005	8	..........a	-327.66
	31	0.0064	-5.21453E-001	-6.55526E-006	0.00000E+000	-5.21750E-001	8.15923E-005	8	..........a	-327.66
	32	0.0066	-5.31653E-001	-6.66526E-006	0.00000E+000	-5.31750E-001	8.15923E-005	8	..........a	-327.66
	33	0.0068	-5.41653E-001	-6.78527E-006	0.00000E+000	-5.41750E-001	8.15923E-005	8	..........a	-327.66
	34	0.007	-5.51653E-001	-6.87527E-006	0.00000E+000	-5.51750E-001	-3.18408E-004	8	..........a	-327.66
	35	0.0072	-5.61853E-001	-7.02528E-006	0.00000E+000	-5.61750E-001	8.15923E-005	8	..........a	-327.66
	36	0.0074	-5.71553E-001	-7.11528E-006	0.00000E+000	-5.71750E-001	8.15923E-005	8	..........a	-327.66
	37	0.0076	-5.81653E-001	-7.22528E-006	0.00000E+000	-5.81750E-001	-3.18408E-004	8	..........a	-327.66
	38	0.0078	-5.91753E-001	-7.35529E-006	0.00000E+000	-5.91750E-001	-2.18408E-004	8	..........a	-327.66
	39	0.008	-6.01553E-001	-7.49529E-006	0.00000E+000	-6.01750E-001	8.15923E-005	8	..........a	-327.66
	40	0.0082	-5.91653E-001	-5.83523E-006	0.00000E+000	-5.91750E-001	8.15923E-005	8	..........a	-327.66
	41	0.0084	-5.81553E-001	-4.55518E-006	0.00000E+000	-5.81750E-001	8.15923E-005	8	..........a	-327.66
	42	0.0086	-5.71553E-001	-3.43514E-006	0.00000E+000	-5.71750E-001	8.15923E-005	8	..........a	-327.66
	43	0.0088	-5.61853E-001	-2.54511E-006	0.00000E+000	-5.61750E-001	8.15923E-005	8	..........a	-327.66
	44	0.009	-5.51653E-001	-1.72507E-006	0.00000E+000	-5.51750E-001	8.15923E-005	8	..........a	-327.66
	45	0.0092	-5.41453E-001	-1.03505E-006	0.00000E+000	-5.41750E-001	8.15923E-005	8	..........a	-327.66
	46	0.0094	-5.31553E-001	-3.95023E-007	0.00000E+000	-5.31750E-001	8.15923E-005	8	..........a	-327.66
	47	0.0096	-5.21953E-001	1.54998E-007	0.00000E+000	-5.21750E-001	8.15923E-005	8	..........a	-327.66
	48	0.0098	-5.11753E-001	6.75018E-007	0.00000E+000	-5.11750E-001	8.15923E-005	8	..........a	-327.66
	49	0.01	-5.01753E-001	1.14504E-006	0.00000E+000	-5.01750E-001	8.15923E-005	8	..........a	-327.66
	50	0.0102	-4.91653E-001	1.59505E-006	0.00000E+000	-4.91750E-001	8.15923E-005	8	..........a	-327.66
	51	0.0104	-4.81553E-001	1.94507E-006	0.00000E+000	-4.81750E-001	8.15923E-005	8	..........a	-327.66
	52	0.0106	-4.72003E-001	2.25508E-006	0.00000E+000	-4.71750E-001	8.15923E-005	8	..........a	-327.66
	53	0.0108	-4.61553E-001	2.62509E-006	0.00000E+000	-4.61750E-001	8.15923E-005	8	..........a	-327.66
	54	0.011	-4.51653E-001	2.84510E-006	0.00000E+000	-4.51750E-001	8.15923E-005	8	..........a	-327.66
	55	0.0112	-4.41853E-001	3.13511E-006	0.00000E+000	-4.41750E-001	8.15923E-005	8	..........a	-327.66
	56	0.0114	-4.31553E-001	3.39512E-006	0.00000E+000	-4.31750E-001	8.15923E-005	8	..........a	-327.66
	57	0.0116	-4.21453E-001	3.62513E-006	0.00000E+000	-4.21750E-001	-3.18408E-004	8	..........a	-327.66
	58	0.0118	-4.11753E-001	3.83514E-006	0.00000E+000	-4.11750E-001	8.15923E-005	8	..........a	-327.66
	59	0.012	-4.01653E-001	4.00515E-006	0.00000E+000	-4.01750E-001	-3.18408E-004	8	..........a	-327.66
	60	0.0122	-3.91703E-001	4.17515E-006	0.00000E+000	-3.91750E-001	8.15923E-005	8	..........a	-327.66
	61	0.0124	-3.81553E-001	4.32516E-006	0.00000E+000	-3.81750E-001	8.15923E-005	8	..........a	-327.66
	62	0.0126	-3.71753E-001	4.49516E-006	0.00000E+000	-3.71750E-001	8.15923E-005	8	..........a	-327.66
	63	0.0128	-3.61653E-001	4.65517E-006	0.00000E+000	-3.61750E-001	8.15923E-005	8	..........a	-327.66
	64	0.013	-3.51653E-001	4.76517E-006	0.00000E+000	-3.51750E-001	8.15923E-005	8	..........a	-327.66
	65	0.0132	-3.41653E-001	4.91518E-006	0.00000E+000	-3.41750E-001	8.15923E-005	8	..........a	-327.66
	66	0.0134	-3.31553E-001	5.03519E-006	0.00000E+000	-3.31750E-001	8.15923E-005	8	..........a	-327.66
	67	0.0136	-3.21553E-001	5.12519E-006	0.00000E+000	-3.21750E-001	8.15923E-005	8	..........a	-327.66
	68	0.0138	-3.11803E-001	5.17519E-006	0.00000E+000	-3.11750E-001	8.15923E-005	8	..........a	-327.66
	69	0.014	-3.01653E-001	5.29520E-006	0.00000E+000	-3.01750E-001	8.15923E-005	8	..........a	-327.66
	70	0.0142	-2.91553E-001	5.39520E-006	0.00000E+000	-2.91750E-001	8.15923E-005	8	..........a	-327.66
	71	0.0144	-2.81653E-001	5.48520E-006	0.00000E+000	-2.81750E-001	8.15923E-005	8	..........a	-327.66
	72	0.0146	-2.71653E-001	5.54520E-006	0.00000E+000	-2.71750E-001	8.15923E-005	8	..........a	-327.66
	73	0.0148	-2.61553E-001	5.63521E-006	0.00000E+000	-2.61750E-001	8.15923E-005	8	..........a	-327.66
	74	0.015	-2.51653E-001	5.69521E-006	0.00000E+000	-2.51750E-001	8.15923E-005	8	..........a	-327.66
	75	0.0152	-2.41753E-001	5.76521E-006	0.00000E+000	-2.41750E-001	8.15923E-005	8	..........a	-327.66
	76	0.0154	-2.31753E-001	5.85522E-006	0.00000E+000	-2.31750E-001	8.15923E-005	8	..........a	-327.66
	77	0.0156	-2.21653E-001	5.90522E-006	0.00000E+000	-2.21750E-001	8.15923E-005	8	..........a	-327.66
	78	0.0158	-2.11653E-001	5.98522E-006	0.00000E+000	-2.11750E-001	8.15923E-005	8	..........a	-327.66
	79	0.016	-2.01653E-001	6.01522E-006	0.00000E+000	-2.01750E-001	8.15923E-005	8	..........a	-327.66
	80	0.0162	-1.91753E-001	6.02522E-006	0.00000E+000	-1.91750E-001	8.15923E-005	8	..........a	-327.66
	81	0.0164	-1.81853E-001	6.11523E-006	0.00000E+000	-1.81750E-001	8.15923E-005	8	..........a	-327.66
	82	0.0166	-1.71803E-001	6.15523E-006	0.00000E+000	-1.71750E-001	8.15923E-005	8	..........a	-327.66
	83	0.0168	-1.61903E-001	6.22523E-006	0.00000E+000	-1.61750E-001	8.15923E-005	8	..........a	-327.66
	84	0.017	-1.51953E-001	6.31523E-006	0.00000E+000	-1.51750E-001	8.15923E-005	8	..........a	-327.66
	85	0.0172	-1.41653E-001	6.35524E-006	0.00000E+000	-1.41750E-001	8.15923E-005	8	..........a	-327.66
	86	0.0174	-1.31753E-001	6.41524E-006	0.00000E+000	-1.31750E-001	8.15923E-005	8	..........a	-327.66
	87	0.0176	-1.21653E-001	6.47524E-006	0.00000E+000	-1.21750E-001	8.15923E-005	8	..........a	-327.66
	88	0.0178	-1.11853E-001	6.50524E-006	0.00000E+000	-1.11750E-001	8.15923E-005	8	..........a	-327.66
	89	0.018	-1.01753E-001	6.55524E-006	0.00000E+000	-1.01750E-001	8.15923E-005	8	..........a	-327.66
	90	0.0182	-9.16529E-002	6.70525E-006	0.00000E+000	-9.17500E-002	8.15923E-005	8	..........a	-327.66
	91	0.0184	-8.17529E-002	6.71525E-006	0.00000E+000	-8.17500E-002	-3.18408E-004	8	..........a	-327.66
	92	0.0186	-7.17529E-002	6.74525E-006	0.00000E+000	-7.17500E-002	8.15923E-005	8	..........a	-327.66
	93	0.0188	-6.15529E-002	6.84525E-006	0.00000E+000	-6.17500E-002	8.15923E-005	8	..........a	-327.66
	94	0.019	-5.16529E-002	6.87526E-006	0.00000E+000	-5.17500E-002	8.15923E-005	8	..........a	-327.66
	95	0.0192	-4.17529E-002	6.95526E-006	0.00000E+000	-4.17500E-002	8.15923E-005	8	..........a	-327.66
	96	0.0194	-3.16529E-002	6.97526E-006	0.00000E+000	-3.17500E-002	8.15923E-005	8	..........a	-327.66
	97	0.0196	-2.18529E-002	7.07526E-006	0.00000E+000	-2.17500E-002	8.15923E-005	8	..........a	-327.66
	98	0.0198	-1.17529E-002	7.16527E-006	0.00000E+000	-1.17500E-002	8.15923E-005	8	..........a	-327.66
	99	0.02	-1.85289E-003	7.23527E-006	0.00000E+000	-1.74999E-003	8.15923E-005	8	..........a	-327.66
	100	0.0202	8.24711E-003	7.30527E-006	0.00000E+000	8.25001E-003	8.15923E-005	8	..........a	-327.66
	101	0.0204	1.82471E-002	7.38527E-006	0.00000E+000	1.82500E-002	8.15923E-005	8	..........a	-327.66
	102	0.0206	2.81471E-002	7.49528E-006	0.00000E+000	2.82500E-002	8.15923E-005	8	..........a	-327.66
	103	0.0208	3.83471E-002	7.62528E-006	0.00000E+000	3.82500E-002	8.15923E-005	8	..........a	-327.66
	104	0.021	4.84471E-002	7.71529E-006	0.00000E+000	4.82500E-002	8.15923E-005	8	..........a	-327.66
	105	0.0212	5.82471E-002	7.84529E-006	0.00000E+000	5.82500E-002	8.15923E-005	8	..........a	-327.66
	106	0.0214	6.81471E-002	7.95530E-006	0.00000E+000	6.82500E-002	8.15923E-005	8	..........a	-327.66
	107	0.0216	7.82471E-002	8.07530E-006	0.00000E+000	7.82500E-002	8.15923E-005	8	..........a	-327.66
	108	0.0218	8.82471E-002	8.20531E-006	0.00000E+000	8.82500E-002	8.15923E-005	8	..........a	-327.66
	109	0.022	9.82471E-002	8.34531E-006	0.00000E+000	9.82500E-002	8.15923E-005	8	..........a	-327.66
	110	0.0222	1.08347E-001	8.44531E-006	0.00000E+000	1.08250E-001	8.15923E-005	8	..........a	-327.66
	111	0.0224	1.18247E-001	8.65532E-006	0.00000E+000	1.18250E-001	8.15923E-005	8	..........a	-327.66
	112	0.0226	1.28347E-001	8.79533E-006	0.00000E+000	1.28250E-001	8.15923E-005	8	..........a	-327.66
	113	0.0228	1.38447E-001	8.95534E-006	0.00000E+000	1.38250E-001	8.15923E-005	8	..........a	-327.66
	114	0.023	1.48247E-001	9.13534E-006	0.00000E+000	1.48250E-001	8.15923E-005	8	..........a	-327.66
	115	0.0232	1.58147E-001	9.39535E-006	0.00000E+000	1.58250E-001	8.15923E-005	8	..........a	-327.66
	116	0.0234	1.68447E-001	9.61536E-006	0.00000E+000	1.68250E-001	8.15923E-005	8	..........a	-327.66
	117	0.0236	1.78147E-001	9.78537E-006	0.00000E+000	1.78250E-001	8.15923E-005	8	..........a	-327.66
	118	0.0238	1.88347E-001	9.90537E-006	0.00000E+000	1.88250E-001	8.15923E-005	8	..........a	-327.66
	119	0.024	1.98197E-001	1.00554E-005	0.00000E+000	1.98250E-001	8.15923E-005	8	..........a	-327.66
	120	0.0242	2.08247E-001	1.02754E-005	0.00000E+000	2.08250E-001	8.15923E-005	8	..........a	-327.66
	121	0.0244	2.18597E-001	1.04354E-005	0.00000E+000	2.18250E-001	8.15923E-005	8	..........a	-327.66
	122	0.0246	2.28347E-001	1.06054E-005	0.00000E+000	2.28250E-001	-3.18408E-004	8	..........a	-327.66
	123	0.0248	2.38347E-001	1.07554E-005	0.00000E+000	2.38250E-001	8.15923E-005	8	..........a	-327.66
	124	0.025	2.48347E-001	1.09554E-005	0.00000E+000	2.48250E-001	8.15923E-005	8	..........a	-327.66
	125	0.0252	2.58247E-001	1.11954E-005	0.00000E+000	2.58250E-001	8.15923E-005	8	..........a	-327.66
	126	0.0254	2.68447E-001	1.14054E-005	0.00000E+000	2.68250E-001	8.15923E-005	8	..........a	-327.66
	127	0.0256	2.78247E-001	1.15954E-005	0.00000E+000	2.78250E-001	-1.18408E-004	8	..........a	-327.66
	128	0.0258	2.88247E-001	1.18254E-005	0.00000E+000	2.88250E-001	8.15923E-005	8	..........a	-327.66
	129	0.026	2.98047E-001	1.20455E-005	0.00000E+000	2.98250E-001	8.15923E-005	8	..........a	-327.66
	130	0.0262	3.08247E-001	1.22455E-005	0.00000E+000	3.08250E-001	8.15923E-005	8	..........a	-327.66
	131	0.0264	3.18147E-001	1.24055E-005	0.00000E+000	3.18250E-001	8.15923E-005	8	..........a	-327.66
	132	0.0266	3.28197E-001	1.26155E-005	0.00000E+000	3.28250E-001	8.15923E-005	8	..........a	-327.66
	133	0.0268	3.38297E-001	1.27755E-005	0.00000E+000	3.38250E-001	-3.18408E-004	8	..........a	-327.66
	134	0.027	3.48197E-001	1.29855E-005	0.00000E+000	3.48250E-001	-3.18408E-004	8	..........a	-327.66
	135	0.0272	3.58197E-001	1.31955E-005	0.00000E+000	3.58250E-001	8.15923E-005	8	..........a	-327.66
	136	0.0274	3.68347E-001	1.33755E-005	0.00000E+000	3.68250E-001	8.15923E-005	8	..........a	-327.66
	137	0.0276	3.78147E-001	1.35455E-005	0.00000E+000	3.78250E-001	8.15923E-005	8	..........a	-327.66
	138	0.0278	3.88347E-001	1.37455E-005	0.00000E+000	3.88250E-001	8.15923E-005	8	..........a	-327.66
	139	0.028	3.98047E-001	1.39455E-005	0.00000E+000	3.98250E-001	8.15923E-005	8	..........a	-327.66
	140	0.0282	4.08197E-001	1.41155E-005	0.00000E+000	4.08250E-001	8.15923E-005	8	..........a	-327.66
	141	0.0284	4.18247E-001	1.43455E-005	0.00000E+000	4.18250E-001	8.15923E-005	8	..........a	-327.66
	142	0.0286	4.28197E-001	1.44655E-005	0.00000E+000	4.28250E-001	8.15923E-005	8	..........a	-327.66
	143	0.0288	4.38147E-001	1.46856E-005	0.00000E+000	4.38250E-001	8.15923E-005	8	..........a	-327.66
	144	0.029	4.48147E-001	1.48956E-005	0.00000E+000	4.48250E-001	8.15923E-005	8	..........a	-327.66
	145	0.0292	4.58147E-001	1.50956E-005	0.00000E+000	4.58250E-001	-2.18408E-004	8	..........a	-327.66
	146	0.0294	4.68247E-001	1.52756E-005	0.00000E+000	4.68250E-001	8.15923E-005	8	..........a	-327.66
	147	0.0296	4.78047E-001	1.54356E-005	0.00000E+000	4.78250E-001	8.15923E-005	8	..........a	-327.66
	148	0.0298	4.88247E-001	1.56056E-005	0.00000E+000	4.88250E-001	8.15923E-005	8	..........a	-327.66
	149	0.03	4.98247E-001	1.58456E-005	0.00000E+000	4.98250E-001	8.15923E-005	8	..........a	-327.66
	150	0.0302	5.08147E-001	1.59956E-005	0.00000E+000	5.08250E-001	8.15923E-005	8	..........a	-327.66
	151	0.0304	5.18147E-001	1.61156E-005	0.00000E+000	5.18250E-001	8.15923E-005	8	..........a	-327.66
	152	0.0306	5.28297E-001	1.62656E-005	0.00000E+000	5.28250E-001	8.15923E-005	8	..........a	-327.66
	153	0.0308	5.38247E-001	1.63456E-005	0.00000E+000	5.38250E-001	-2.18408E-004	8	..........a	-327.66
	154	0.031	5.48347E-001	1.64856E-005	0.00000E+000	5.48250E-001	8.15923E-005	8	..........a	-327.66
	155	0.0312	5.58147E-001	1.65956E-005	0.00000E+000	5.58250E-001	8.15923E-005	8	..........a	-327.66
	156	0.0314	5.68147E-001	1.67256E-005	0.00000E+000	5.68250E-001	8.15923E-005	8	..........a	-327.66
	157	0.0316	5.78047E-001	1.68056E-005	0.00000E+000	5.78250E-001	8.15923E-005	8	..........a	-327.66
	158	0.0318	5.88247E-001	1.69556E-005	0.00000E+000	5.88250E-001	8.15923E-005	8	..........a	-327.66
	159	0.032	5.98147E-001	1.70756E-005	0.00000E+000	5.98250E-001	8.15923E-005	8	..........a	-327.66
	160	0.0322	6.08347E-001	1.71356E-005	0.00000E+000	6.08250E-001	8.15923E-005	8	..........a	-327.66
	161	0.0324	6.18147E-001	1.72457E-005	0.00000E+000	6.18250E-001	8.15923E-005	8	..........a	-327.66
	162	0.0326	6.28247E-001	1.73457E-005	0.00000E+000	6.28250E-001	8.15923E-005	8	..........a	-327.66
	163	0.0328	6.38047E-001	1.74657E-005	0.00000E+000	6.38250E-001	8.15923E-005	8	..........a	-327.66
	164	0.033	6.48347E-001	1.75957E-005	0.00000E+000	6.48250E-001	8.15923E-005	8	..........a	-327.66
	165	0.0332	6.58247E-001	1.76657E-005	0.00000E+000	6.58250E-001	8.15923E-005	8	..........a	-327.66
	166	0.0334	6.68147E-001	1.77757E-005	0.00000E+000	6.68250E-001	8.15923E-005	8	..........a	-327.66
	167	0.0336	6.78147E-001	1.78657E-005	0.00000E+000	6.78250E-001	-4.18408E-004	8	..........a	-327.66
	168	0.0338	6.88097E-001	1.79457E-005	0.00000E+000	6.88250E-001	8.15923E-005	8	..........a	-327.66
	169	0.034	6.98047E-001	1.80157E-005	0.00000E+000	6.98250E-001	8.15923E-005	8	..........a	-327.66
	170	0.0342	7.08247E-001	1.81057E-005	0.00000E+000	7.08250E-001	-3.18408E-004	8	..........a	-327.66
	171	0.0344	7.18147E-001	1.81657E-005	0.00000E+000	7.18250E-001	8.15923E-005	8	..........a	-327.66
	172	0.0346	7.28147E-001	1.81857E-005	0.00000E+000	7.28250E-001	8.15923E-005	8	..........a	-327.66
	173	0.0348	7.38147E-001	1.82757E-005	0.00000E+000	7.38250E-001	8.15923E-005	8	..........a	-327.66
	174	0.035	7.48247E-001	1.82957E-005	0.00000E+000	7.48250E-001	8.15923E-005	8	..........a	-327.66
	175	0.0352	7.58097E-001	1.83557E-005	0.00000E+000	7.58250E-001	8.15923E-005	8	..........a	-327.66
	176	0.0354	7.68147E-001	1.83557E-005	0.00000E+000	7.68250E-001	8.15923E-005	8	..........a	-327.66
	177	0.0356	7.78047E-001	1.83657E-005	0.00000E+000	7.78250E-001	-3.18408E-004	8	..........a	-327.66
	178	0.0358	7.88247E-001	1.83857E-005	0.00000E+000	7.88250E-001	8.15923E-005	8	..........a	-327.66
	179	0.036	7.98247E-001	1.84057E-005	0.00000E+000	7.98250E-001	8.15923E-005	8	..........a	-327.66
CURVE2	TABLE
	Pt	T	Vf	Im	Vu	Sig	Ach	IERange	Over	Temp
	#	s	V vs. Ref.	A	V	V	V	#	bits	deg C
	180	0.0362	7.90147E-001	1.65056E-005	0.00000E+000	7.90000E-001	8.15923E-005	8	..........a	-327.66
	181	0.0364	7.79947E-001	1.47656E-005	0.00000E+000	7.80000E-001	8.15923E-005	8	..........a	-327.66
	182	0.0366	7.69847E-001	1.32555E-005	0.00000E+000	7.70000E-001	8.15923E-005	8	..........a	-327.66
	183	0.0368	7.59947E-001	1.19054E-005	0.00000E+000	7.60000E-001	8.15923E-005	8	..........a	-327.66
	184	0.037	7.49947E-001	1.06654E-005	0.00000E+000	7.50000E-001	8.15923E-005	8	..........a	-327.66
	185	0.0372	7.39947E-001	9.56536E-006	0.00000E+000	7.40000E-001	8.15923E-005	8	..........a	-327.66
	186	0.0374	7.29847E-001	8.49532E-006	0.00000E+000	7.30000E-001	8.15923E-005	8	..........a	-327.66
	187	0.0376	7.19747E-001	7.50528E-006	0.00000E+000	7.20000E-001	-3.18408E-004	8	..........a	-327.66
	188	0.0378	7.09947E-001	6.66525E-006	0.00000E+000	7.10000E-001	8.15923E-005	8	..........a	-327.66
	189	0.038	7.00047E-001	5.85522E-006	0.00000E+000	7.00000E-001	8.15923E-005	8	..........a	-327.66
	190	0.0382	6.89747E-001	5.03519E-006	0.00000E+000	6.90000E-001	8.15923E-005	8	..........a	-327.66
	191	0.0384	6.79847E-001	4.35516E-006	0.00000E+000	6.80000E-001	8.15923E-005	8	..........a	-327.66
	192	0.0386	6.69847E-001	3.64513E-006	0.00000E+000	6.70000E-001	-3.18408E-004	8	..........a	-327.66
	193	0.0388	6.60247E-001	3.02511E-006	0.00000E+000	6.60000E-001	8.15923E-005	8	..........a	-327.66
	194	0.039	6.50047E-001	2.34508E-006	0.00000E+000	6.50000E-001	8.15923E-005	8	..........a	-327.66
	195	0.0392	6.39997E-001	1.77506E-006	0.00000E+000	6.40000E-001	8.15923E-005	8	..........a	-327.66
	196	0.0394	6.29947E-001	1.28504E-006	0.00000E+000	6.30000E-001	8.15923E-005	8	..........a	-327.66
	197	0.0396	6.20147E-001	7.25020E-007	0.00000E+000	6.20000E-001	8.15923E-005	8	..........a	-327.66
	198	0.0398	6.10047E-001	2.65002E-007	0.00000E+000	6.10000E-001	8.15923E-005	8	..........a	-327.66
	199	0.04	6.00047E-001	-2.25017E-007	0.00000E+000	6.00000E-001	8.15923E-005	8	..........a	-327.66
	200	0.0402	5.89947E-001	-6.55033E-007	0.00000E+000	5.90000E-001	8.15923E-005	8	..........a	-327.66
	201	0.0404	5.80147E-001	-1.05505E-006	0.00000E+000	5.80000E-001	8.15923E-005	8	..........a	-327.66
	202	0.0406	5.70047E-001	-1.48506E-006	0.00000E+000	5.70000E-001	8.15923E-005	8	..........a	-327.66
	203	0.0408	5.59897E-001	-1.89508E-006	0.00000E+000	5.60000E-001	-3.18408E-004	8	..........a	-327.66
	204	0.041	5.50047E-001	-2.26509E-006	0.00000E+000	5.50000E-001	8.15923E-005	8	..........a	-327.66
	205	0.0412	5.39947E-001	-2.53511E-006	0.00000E+000	5.40000E-001	8.15923E-005	8	..........a	-327.66
	206	0.0414	5.30047E-001	-2.95512E-006	0.00000E+000	5.30000E-001	8.15923E-005	8	..........a	-327.66
	207	0.0416	5.20047E-001	-3.28513E-006	0.00000E+000	5.20000E-001	8.15923E-005	8	..........a	-327.66
	208	0.0418	5.10047E-001	-3.52514E-006	0.00000E+000	5.10000E-001	8.15923E-005	8	..........a	-327.66
	209	0.042	4.99847E-001	-3.87516E-006	0.00000E+000	5.00000E-001	8.15923E-005	8	..........a	-327.66
	210	0.0422	4.89947E-001	-4.21517E-006	0.00000E+000	4.90000E-001	8.15923E-005	8	..........a	-327.66
	211	0.0424	4.79947E-001	-4.46518E-006	0.00000E+000	4.80000E-001	8.15923E-005	8	..........a	-327.66
	212	0.0426	4.70047E-001	-4.75519E-006	0.00000E+000	4.70000E-001	8.15923E-005	8	..........a	-327.66
	213	0.0428	4.59947E-001	-5.02520E-006	0.00000E+000	4.60000E-001	8.15923E-005	8	..........a	-327.66
	214	0.043	4.49847E-001	-5.27521E-006	0.00000E+000	4.50000E-001	8.15923E-005	8	..........a	-327.66
	215	0.0432	4.40047E-001	-5.57522E-006	0.00000E+000	4.40000E-001	8.15923E-005	8	..........a	-327.66
	216	0.0434	4.29947E-001	-5.85523E-006	0.00000E+000	4.30000E-001	8.15923E-005	8	..........a	-327.66
	217	0.0436	4.20047E-001	-6.04524E-006	0.00000E+000	4.20000E-001	8.15923E-005	8	..........a	-327.66
	218	0.0438	4.09847E-001	-6.35525E-006	0.00000E+000	4.10000E-001	8.15923E-005	8	..........a	-327.66
	219	0.044	3.99947E-001	-6.59526E-006	0.00000E+000	4.00000E-001	8.15923E-005	8	..........a	-327.66
	220	0.0442	3.90047E-001	-6.85527E-006	0.00000E+000	3.90000E-001	8.15923E-005	8	..........a	-327.66
	221	0.0444	3.80147E-001	-7.07528E-006	0.00000E+000	3.80000E-001	8.15923E-005	8	..........a	-327.66
	222	0.0446	3.69947E-001	-7.34529E-006	0.00000E+000	3.70000E-001	8.15923E-005	8	..........a	-327.66
	223	0.0448	3.60147E-001	-7.60530E-006	0.00000E+000	3.60000E-001	8.15923E-005	8	..........a	-327.66
	224	0.045	3.49847E-001	-7.84531E-006	0.00000E+000	3.50000E-001	8.15923E-005	8	..........a	-327.66
	225	0.0452	3.40047E-001	-8.07532E-006	0.00000E+000	3.40000E-001	8.15923E-005	8	..........a	-327.66
	226	0.0454	3.30047E-001	-8.35533E-006	0.00000E+000	3.30000E-001	8.15923E-005	8	..........a	-327.66
	227	0.0456	3.20047E-001	-8.56534E-006	0.00000E+000	3.20000E-001	8.15923E-005	8	..........a	-327.66
	228	0.0458	3.10047E-001	-8.80534E-006	0.00000E+000	3.10000E-001	8.15923E-005	8	..........a	-327.66
	229	0.046	3.00147E-001	-9.05535E-006	0.00000E+000	3.00000E-001	8.15923E-005	8	..........a	-327.66
	230	0.0462	2.90047E-001	-9.33536E-006	0.00000E+000	2.90000E-001	8.15923E-005	8	..........a	-327.66
	231	0.0464	2.79847E-001	-9.58537E-006	0.00000E+000	2.80000E-001	-3.18408E-004	8	..........a	-327.66
	232	0.0466	2.70047E-001	-9.81538E-006	0.00000E+000	2.70000E-001	8.15923E-005	8	..........a	-327.66
	233	0.0468	2.60147E-001	-1.00054E-005	0.00000E+000	2.60000E-001	8.15923E-005	8	..........a	-327.66
	234	0.047	2.50047E-001	-1.02954E-005	0.00000E+000	2.50000E-001	8.15923E-005	8	..........a	-327.66
	235	0.0472	2.40147E-001	-1.05054E-005	0.00000E+000	2.40000E-001	8.15923E-005	8	..........a	-327.66
	236	0.0474	2.30047E-001	-1.07554E-005	0.00000E+000	2.30000E-001	8.15923E-005	8	..........a	-327.66
	237	0.0476	2.20147E-001	-1.09854E-005	0.00000E+000	2.20000E-001	8.15923E-005	8	..........a	-327.66
	238	0.0478	2.09947E-001	-1.11954E-005	0.00000E+000	2.10000E-001	8.15923E-005	8	..........a	-327.66
	239	0.048	2.00047E-001	-1.14254E-005	0.00000E+000	2.00000E-001	-3.18408E-004	8	..........a	-327.66
	240	0.0482	1.90047E-001	-1.15955E-005	0.00000E+000	1.90000E-001	8.15923E-005	8	..........a	-327.66
	241	0.0484	1.80147E-001	-1.18055E-005	0.00000E+000	1.80000E-001	8.15923E-005	8	..........a	-327.66
	242	0.0486	1.70047E-001	-1.19755E-005	0.00000E+000	1.70000E-001	8.15923E-005	8	..........a	-327.66
	243	0.0488	1.60047E-001	-1.21055E-005	0.00000E+000	1.60000E-001	8.15923E-005	8	..........a	-327.66
	244	0.049	1.50047E-001	-1.22755E-005	0.00000E+000	1.50000E-001	8.15923E-005	8	..........a	-327.66
	245	0.0492	1.40047E-001	-1.24255E-005	0.00000E+000	1.40000E-001	8.15923E-005	8	..........a	-327.66
	246	0.0494	1.29947E-001	-1.25655E-005	0.00000E+000	1.30000E-001	8.15923E-005	8	..........a	-327.66
	247	0.0496	1.20147E-001	-1.26755E-005	0.00000E+000	1.20000E-001	8.15923E-005	8	..........a	-327.66
	248	0.0498	1.09947E-001	-1.28355E-005	0.00000E+000	1.10000E-001	8.15923E-005	8	..........a	-327.66
	249	0.05	1.00147E-001	-1.29555E-005	0.00000E+000	1.00000E-001	8.15923E-005	8	..........a	-327.66
	250	0.0502	9.01471E-002	-1.30755E-005	0.00000E+000	9.00000E-002	8.15923E-005	8	..........a	-327.66
	251	0.0504	8.01471E-002	-1.32155E-005	0.00000E+000	8.00000E-002	8.15923E-005	8	..........a	-327.66
	252	0.0506	7.01471E-002	-1.32855E-005	0.00000E+000	7.00000E-002	8.15923E-005	8	..........a	-327.66
	253	0.0508	5.99471E-002	-1.33955E-005	0.00000E+000	6.00000E-002	8.15923E-005	8	..........a	-327.66
	254	0.051	5.01471E-002	-1.34855E-005	0.00000E+000	5.00000E-002	8.15923E-005	8	..........a	-327.66
	255	0.0512	4.00471E-002	-1.35255E-005	0.00000E+000	4.00000E-002	8.15923E-005	8	..........a	-327.66
	256	0.0514	3.00471E-002	-1.35955E-005	0.00000E+000	3.00000E-002	8.15923E-005	8	..........a	-327.66
	257	0.0516	1.99471E-002	-1.36755E-005	0.00000E+000	2.00000E-002	8.15923E-005	8	..........a	-327.66
	258	0.0518	1.00471E-002	-1.37455E-005	0.00000E+000	1.00000E-002	8.15923E-005	8	..........a	-327.66
	259	0.052	1.47114E-004	-1.37255E-005	0.00000E+000	7.45058E-009	8.15923E-005	8	..........a	-327.66
	260	0.0522	-1.01529E-002	-1.38055E-005	0.00000E+000	-1.00000E-002	8.15923E-005	8	..........a	-327.66
	261	0.0524	-1.99529E-002	-1.38755E-005	0.00000E+000	-2.00000E-002	8.15923E-005	8	..........a	-327.66
	262	0.0526	-2.99529E-002	-1.38555E-005	0.00000E+000	-3.00000E-002	8.15923E-005	8	..........a	-327.66
	263	0.0528	-3.98529E-002	-1.37655E-005	0.00000E+000	-4.00000E-002	8.15923E-005	8	..........a	-327.66
	264	0.053	-4.99529E-002	-1.38055E-005	0.00000E+000	-5.00000E-002	8.15923E-005	8	..........a	-327.66
	265	0.0532	-5.97529E-002	-1.37955E-005	0.00000E+000	-6.00000E-002	8.15923E-005	8	..........a	-327.66
	266	0.0534	-6.99529E-002	-1.37955E-005	0.00000E+000	-7.00000E-002	8.15923E-005	8	..........a	-327.66
	267	0.0536	-7.98529E-002	-1.36955E-005	0.00000E+000	-8.00000E-002	8.15923E-005	8	..........a	-327.66
	268	0.0538	-8.99529E-002	-1.36355E-005	0.00000E+000	-9.00000E-002	8.15923E-005	8	..........a	-327.66
	269	0.054	-9.99529E-002	-1.36055E-005	0.00000E+000	-1.00000E-001	-3.18408E-004	8	..........a	-327.66
	270	0.0542	-1.10053E-001	-1.35355E-005	0.00000E+000	-1.10000E-001	8.15923E-005	8	..........a	-327.66
	271	0.0544	-1.19853E-001	-1.34755E-005	0.00000E+000	-1.20000E-001	-2.18408E-004	8	..........a	-327.66
	272	0.0546	-1.29953E-001	-1.34155E-005	0.00000E+000	-1.30000E-001	8.15923E-005	8	..........a	-327.66
	273	0.0548	-1.39853E-001	-1.33755E-005	0.00000E+000	-1.40000E-001	8.15923E-005	8	..........a	-327.66
	274	0.055	-1.49953E-001	-1.32455E-005	0.00000E+000	-1.50000E-001	8.15923E-005	8	..........a	-327.66
	275	0.0552	-1.59953E-001	-1.31755E-005	0.00000E+000	-1.60000E-001	8.15923E-005	8	..........a	-327.66
	276	0.0554	-1.69953E-001	-1.30755E-005	0.00000E+000	-1.70000E-001	8.15923E-005	8	..........a	-327.66
	277	0.0556	-1.79953E-001	-1.29155E-005	0.00000E+000	-1.80000E-001	8.15923E-005	8	..........a	-327.66
	278	0.0558	-1.89953E-001	-1.28355E-005	0.00000E+000	-1.90000E-001	8.15923E-005	8	..........a	-327.66
	279	0.056	-1.99953E-001	-1.27355E-005	0.00000E+000	-2.00000E-001	8.15923E-005	8	..........a	-327.66
	280	0.0562	-2.10053E-001	-1.26355E-005	0.00000E+000	-2.10000E-001	-1.18408E-004	8	..........a	-327.66
	281	0.0564	-2.20053E-001	-1.25455E-005	0.00000E+000	-2.20000E-001	8.15923E-005	8	..........a	-327.66
	282	0.0566	-2.29953E-001	-1.23755E-005	0.00000E+000	-2.30000E-001	8.15923E-005	8	..........a	-327.66
	283	0.0568	-2.40053E-001	-1.22855E-005	0.00000E+000	-2.40000E-001	8.15923E-005	8	..........a	-327.66
	284	0.057	-2.50053E-001	-1.21555E-005	0.00000E+000	-2.50000E-001	8.15923E-005	8	..........a	-327.66
	285	0.0572	-2.59753E-001	-1.20655E-005	0.00000E+000	-2.60000E-001	8.15923E-005	8	..........a	-327.66
	286	0.0574	-2.69953E-001	-1.19655E-005	0.00000E+000	-2.70000E-001	8.15923E-005	8	..........a	-327.66
	287	0.0576	-2.79853E-001	-1.18255E-005	0.00000E+000	-2.80000E-001	8.15923E-005	8	..........a	-327.66
	288	0.0578	-2.89853E-001	-1.17555E-005	0.00000E+000	-2.90000E-001	8.15923E-005	8	..........a	-327.66
	289	0.058	-2.99953E-001	-1.16755E-005	0.00000E+000	-3.00000E-001	8.15923E-005	8	..........a	-327.66
	290	0.0582	-3.09953E-001	-1.15655E-005	0.00000E+000	-3.10000E-001	8.15923E-005	8	..........a	-327.66
	291	0.0584	-3.19853E-001	-1.14554E-005	0.00000E+000	-3.20000E-001	8.15923E-005	8	..........a	-327.66
	292	0.0586	-3.29953E-001	-1.13954E-005	0.00000E+000	-3.30000E-001	-3.18408E-004	8	..........a	-327.66
	293	0.0588	-3.39853E-001	-1.13054E-005	0.00000E+000	-3.40000E-001	8.15923E-005	8	..........a	-327.66
	294	0.059	-3.49953E-001	-1.12054E-005	0.00000E+000	-3.50000E-001	8.15923E-005	8	..........a	-327.66
	295	0.0592	-3.60053E-001	-1.11554E-005	0.00000E+000	-3.60000E-001	8.15923E-005	8	..........a	-327.66
	296	0.0594	-3.69653E-001	-1.10754E-005	0.00000E+000	-3.70000E-001	8.15923E-005	8	..........a	-327.66
	297	0.0596	-3.79853E-001	-1.09954E-005	0.00000E+000	-3.80000E-001	8.15923E-005	8	..........a	-327.66
	298	0.0598	-3.89953E-001	-1.09054E-005	0.00000E+000	-3.90000E-001	8.15923E-005	8	..........a	-327.66
	299	0.06	-3.99953E-001	-1.08554E-005	0.00000E+000	-4.00000E-001	8.15923E-005	8	..........a	-327.66
	300	0.0602	-4.09953E-001	-1.08354E-005	0.00000E+000	-4.10000E-001	-4.18408E-004	8	..........a	-327.66
	301	0.0604	-4.19853E-001	-1.07554E-005	0.00000E+000	-4.20000E-001	8.15923E-005	8	..........a	-327.66
	302	0.0606	-4.29953E-001	-1.07254E-005	0.00000E+000	-4.30000E-001	8.15923E-005	8	..........a	-327.66
	303	0.0608	-4.39853E-001	-1.06354E-005	0.00000E+000	-4.40000E-001	-3.18408E-004	8	..........a	-327.66
	304	0.061	-4.49903E-001	-1.06154E-005	0.00000E+000	-4.50000E-001	8.15923E-005	8	..........a	-327.66
	305	0.0612	-4.59853E-001	-1.06154E-005	0.00000E+000	-4.60000E-001	8.15923E-005	8	..........a	-327.66
	306	0.0614	-4.69853E-001	-1.06054E-005	0.00000E+000	-4.70000E-001	8.15923E-005	8	..........a	-327.66
	307	0.0616	-4.79853E-001	-1.05254E-005	0.00000E+000	-4.80000E-001	8.15923E-005	8	..........a	-327.66
	308	0.0618	-4.89853E-001	-1.04954E-005	0.00000E+000	-4.90000E-001	8.15923E-005	8	..........a	-327.66
	309	0.062	-4.99853E-001	-1.05154E-005	0.00000E+000	-5.00000E-001	-3.18408E-004	8	..........a	-327.66
	310	0.0622	-5.09953E-001	-1.05354E-005	0.00000E+000	-5.10000E-001	8.15923E-005	8	..........a	-327.66
	311	0.0624	-5.19853E-001	-1.04954E-005	0.00000E+000	-5.20000E-001	8.15923E-005	8	..........a	-327.66
	312	0.0626	-5.29853E-001	-1.04654E-005	0.00000E+000	-5.30000E-001	8.15923E-005	8	..........a	-327.66
	313	0.0628	-5.39853E-001	-1.04454E-005	0.00000E+000	-5.40000E-001	8.15923E-005	8	..........a	-327.66
	314	0.063	-5.50053E-001	-1.04854E-005	0.00000E+000	-5.50000E-001	8.15923E-005	8	..........a	-327.66
	315	0.0632	-5.59953E-001	-1.04654E-005	0.00000E+000	-5.60000E-001	-4.18408E-004	8	..........a	-327.66
	316	0.0634	-5.69753E-001	-1.04654E-005	0.00000E+000	-5.70000E-001	8.15923E-005	8	..........a	-327.66
	317	0.0636	-5.79753E-001	-1.04854E-005	0.00000E+000	-5.80000E-001	8.15923E-005	8	..........a	-327.66
	318	0.0638	-5.89853E-001	-1.05454E-005	0.00000E+000	-5.90000E-001	8.15923E-005	8	..........a	-327.66
	319	0.064	-5.99853E-001	-1.05454E-005	0.00000E+000	-6.00000E-001	8.15923E-005	8	..........a	-327.66
	320	0.0642	-5.89953E-001	-8.73534E-006	0.00000E+000	-5.90000E-001	8.15923E-005	8	..........a	-327.66
	321	0.0644	-5.79953E-001	-7.34529E-006	0.00000E+000	-5.80000E-001	8.15923E-005	8	..........a	-327.66
	322	0.0646	-5.69853E-001	-6.13524E-006	0.00000E+000	-5.70000E-001	8.15923E-005	8	..........a	-327.66
	323	0.0648	-5.59953E-001	-5.13520E-006	0.00000E+000	-5.60000E-001	8.15923E-005	8	..........a	-327.66
	324	0.065	-5.49953E-001	-4.23517E-006	0.00000E+000	-5.50000E-001	8.15923E-005	8	..........a	-327.66
	325	0.0652	-5.39853E-001	-3.43514E-006	0.00000E+000	-5.40000E-001	8.15923E-005	8	..........a	-327.66
	326	0.0654	-5.29953E-001	-2.67511E-006	0.00000E+000	-5.30000E-001	8.15923E-005	8	..........a	-327.66
	327	0.0656	-5.20003E-001	-1.99508E-006	0.00000E+000	-5.20000E-001	8.15923E-005	8	..........a	-327.66
	328	0.0658	-5.10053E-001	-1.37506E-006	0.00000E+000	-5.10000E-001	-3.18408E-004	8	..........a	-327.66
	329	0.066	-4.99753E-001	-8.25040E-007	0.00000E+000	-5.00000E-001	8.15923E-005	8	..........a	-327.66
	330	0.0662	-4.90053E-001	-3.25020E-007	0.00000E+000	-4.90000E-001	8.15923E-005	8	..........a	-327.66
	331	0.0664	-4.79853E-001	1.74999E-007	0.00000E+000	-4.80000E-001	8.15923E-005	8	..........a	-327.66
	332	0.0666	-4.69853E-001	6.05015E-007	0.00000E+000	-4.70000E-001	8.15923E-005	8	..........a	-327.66
	333	0.0668	-4.59753E-001	1.00503E-006	0.00000E+000	-4.60000E-001	-1.18408E-004	8	..........a	-327.66
	334	0.067	-4.49953E-001	1.35504E-006	0.00000E+000	-4.50000E-001	8.15923E-005	8	..........a	-327.66
	335	0.0672	-4.39853E-001	1.71506E-006	0.00000E+000	-4.40000E-001	8.15923E-005	8	..........a	-327.66
	336	0.0674	-4.29953E-001	2.02507E-006	0.00000E+000	-4.30000E-001	8.15923E-005	8	..........a	-327.66
	337	0.0676	-4.19653E-001	2.30508E-006	0.00000E+000	-4.20000E-001	8.15923E-005	8	..........a	-327.66
	338	0.0678	-4.09953E-001	2.59509E-006	0.00000E+000	-4.10000E-001	8.15923E-005	8	..........a	-327.66
	339	0.068	-3.99853E-001	2.88510E-006	0.00000E+000	-4.00000E-001	8.15923E-005	8	..........a	-327.66
	340	0.0682	-3.89853E-001	3.07511E-006	0.00000E+000	-3.90000E-001	8.15923E-005	8	..........a	-327.66
	341	0.0684	-3.79853E-001	3.31512E-006	0.00000E+000	-3.80000E-001	8.15923E-005	8	..........a	-327.66
	342	0.0686	-3.69953E-001	3.54513E-006	0.00000E+000	-3.70000E-001	8.15923E-005	8	..........a	-327.66
	343	0.0688	-3.59953E-001	3.71513E-006	0.00000E+000	-3.60000E-001	8.15923E-005	8	..........a	-327.66
	344	0.069	-3.49853E-001	3.92514E-006	0.00000E+000	-3.50000E-001	8.15923E-005	8	..........a	-327.66
[...]
	2604	0.521	-1.49953E-001	6.42524E-006	0.00000E+000	-1.50000E-001	8.15923E-005	8	..........a	-327.66
	2605	0.5212	-1.39853E-001	6.52524E-006	0.00000E+000	-1.40000E-001	1.81592E-004	8	..........a	-327.66
	2606	0.5214	-1.29953E-001	6.70525E-006	0.00000E+000	-1.30000E-001	8.15923E-005	8	..........a	-327.66
	2607	0.5216	-1.19953E-001	6.74525E-006	0.00000E+000	-1.20000E-001	8.15923E-005	8	..........a	-327.66
	2608	0.5218	-1.10053E-001	6.80525E-006	0.00000E+000	-1.10000E-001	8.15923E-005	8	..........a	-327.66
	2609	0.522	-9.99529E-002	6.90526E-006	0.00000E+000	-1.00000E-001	8.15923E-005	8	..........a	-327.66
	2610	0.5222	-8.98529E-002	7.03526E-006	0.00000E+000	-9.00000E-002	8.15923E-005	8	..........a	-327.66
	2611	0.5224	-7.99529E-002	7.07526E-006	0.00000E+000	-8.00000E-002	8.15923E-005	8	..........a	-327.66
	2612	0.5226	-7.00529E-002	7.16527E-006	0.00000E+000	-7.00000E-002	8.15923E-005	8	..........a	-327.66
	2613	0.5228	-5.98529E-002	7.24527E-006	0.00000E+000	-6.00000E-002	8.15923E-005	8	..........a	-327.66
	2614	0.523	-4.99529E-002	7.36527E-006	0.00000E+000	-5.00000E-002	8.15923E-005	8	..........a	-327.66
	2615	0.5232	-3.99529E-002	7.47528E-006	0.00000E+000	-4.00000E-002	8.15923E-005	8	..........a	-327.66
	2616	0.5234	-2.99529E-002	7.56528E-006	0.00000E+000	-3.00000E-002	8.15923E-005	8	..........a	-327.66
	2617	0.5236	-2.00029E-002	7.65529E-006	0.00000E+000	-2.00000E-002	-2.18408E-004	8	..........a	-327.66
	2618	0.5238	-1.00529E-002	7.77529E-006	0.00000E+000	-1.00000E-002	8.15923E-005	8	..........a	-327.66
	2619	0.524	-5.28858E-005	7.89529E-006	0.00000E+000	7.45058E-009	8.15923E-005	8	..........a	-327.66
	2620	0.5242	9.94711E-003	7.97530E-006	0.00000E+000	1.00000E-002	8.15923E-005	8	..........a	-327.66
	2621	0.5244	2.01471E-002	8.07530E-006	0.00000E+000	2.00000E-002	8.15923E-005	8	..........a	-327.66
	2622	0.5246	2.99971E-002	8.18531E-006	0.00000E+000	3.00000E-002	8.15923E-005	8	..........a	-327.66
	2623	0.5248	4.00471E-002	8.30531E-006	0.00000E+000	4.00000E-002	8.15923E-005	8	..........a	-327.66
	2624	0.525	5.00471E-002	8.41531E-006	0.00000E+000	5.00000E-002	8.15923E-005	8	..........a	-327.66
	2625	0.5252	5.99471E-002	8.50532E-006	0.00000E+000	6.00000E-002	8.15923E-005	8	..........a	-327.66
	2626	0.5254	7.00471E-002	8.68532E-006	0.00000E+000	7.00000E-002	8.15923E-005	8	..........a	-327.66
	2627	0.5256	7.99971E-002	8.78533E-006	0.00000E+000	8.00000E-002	8.15923E-005	8	..........a	-327.66
	2628	0.5258	9.00471E-002	8.91533E-006	0.00000E+000	9.00000E-002	8.15923E-005	8	..........a	-327.66
	2629	0.526	1.00247E-001	9.07534E-006	0.00000E+000	1.00000E-001	8.15923E-005	8	..........a	-327.66
	2630	0.5262	1.10047E-001	9.20534E-006	0.00000E+000	1.10000E-001	8.15923E-005	8	..........a	-327.66
	2631	0.5264	1.19947E-001	9.44535E-006	0.00000E+000	1.20000E-001	8.15923E-005	8	..........a	-327.66
	2632	0.5266	1.30047E-001	1.00754E-005	0.00000E+000	1.30000E-001	8.15923E-005	8	..........a	-327.66
	2633	0.5268	1.39947E-001	1.06754E-005	0.00000E+000	1.40000E-001	8.15923E-005	8	..........a	-327.66
	2634	0.527	1.50047E-001	1.07654E-005	0.00000E+000	1.50000E-001	8.15923E-005	8	..........a	-327.66
	2635	0.5272	1.59947E-001	1.07854E-005	0.00000E+000	1.60000E-001	8.15923E-005	8	..........a	-327.66
	2636	0.5274	1.69947E-001	1.07354E-005	0.00000E+000	1.70000E-001	8.15923E-005	8	..........a	-327.66
	2637	0.5276	1.80147E-001	1.06954E-005	0.00000E+000	1.80000E-001	8.15923E-005	8	..........a	-327.66
	2638	0.5278	1.90047E-001	1.06354E-005	0.00000E+000	1.90000E-001	8.15923E-005	8	..........a	-327.66
	2639	0.528	1.99847E-001	1.06654E-005	0.00000E+000	2.00000E-001	8.15923E-005	8	..........a	-327.66
	2640	0.5282	2.09947E-001	1.07954E-005	0.00000E+000	2.10000E-001	8.15923E-005	8	..........a	-327.66
	2641	0.5284	2.19247E-001	1.09054E-005	0.00000E+000	2.20000E-001	8.15923E-005	8	..........a	-327.66
	2642	0.5286	2.29947E-001	1.10854E-005	0.00000E+000	2.30000E-001	8.15923E-005	8	..........a	-327.66
	2643	0.5288	2.40047E-001	1.13154E-005	0.00000E+000	2.40000E-001	8.15923E-005	8	..........a	-327.66
	2644	0.529	2.50047E-001	1.14754E-005	0.00000E+000	2.50000E-001	8.15923E-005	8	..........a	-327.66
	2645	0.5292	2.60247E-001	1.16254E-005	0.00000E+000	2.60000E-001	8.15923E-005	8	..........a	-327.66
	2646	0.5294	2.70047E-001	1.18354E-005	0.00000E+000	2.70000E-001	8.15923E-005	8	..........a	-327.66
	2647	0.5296	2.79947E-001	1.19554E-005	0.00000E+000	2.80000E-001	8.15923E-005	8	..........a	-327.66
	2648	0.5298	2.89847E-001	1.20655E-005	0.00000E+000	2.90000E-001	8.15923E-005	8	..........a	-327.66
	2649	0.53	3.00047E-001	1.22755E-005	0.00000E+000	3.00000E-001	8.15923E-005	8	..........a	-327.66
	2650	0.5302	3.10047E-001	1.23555E-005	0.00000E+000	3.10000E-001	8.15923E-005	8	..........a	-327.66
	2651	0.5304	3.20047E-001	1.25255E-005	0.00000E+000	3.20000E-001	8.15923E-005	8	..........a	-327.66
	2652	0.5306	3.30047E-001	1.26855E-005	0.00000E+000	3.30000E-001	8.15923E-005	8	..........a	-327.66
	2653	0.5308	3.40197E-001	1.28655E-005	0.00000E+000	3.40000E-001	-2.18408E-004	8	..........a	-327.66
	2654	0.531	3.49897E-001	1.30355E-005	0.00000E+000	3.50000E-001	8.15923E-005	8	..........a	-327.66
	2655	0.5312	3.59747E-001	1.31755E-005	0.00000E+000	3.60000E-001	8.15923E-005	8	..........a	-327.66
	2656	0.5314	3.70047E-001	1.33455E-005	0.00000E+000	3.70000E-001	8.15923E-005	8	..........a	-327.66
	2657	0.5316	3.79897E-001	1.34755E-005	0.00000E+000	3.80000E-001	8.15923E-005	8	..........a	-327.66
	2658	0.5318	3.90047E-001	1.36655E-005	0.00000E+000	3.90000E-001	8.15923E-005	8	..........a	-327.66
	2659	0.532	3.99947E-001	1.38155E-005	0.00000E+000	4.00000E-001	8.15923E-005	8	..........a	-327.66
	2660	0.5322	4.09847E-001	1.39555E-005	0.00000E+000	4.10000E-001	8.15923E-005	8	..........a	-327.66
	2661	0.5324	4.19947E-001	1.41455E-005	0.00000E+000	4.20000E-001	-2.18408E-004	8	..........a	-327.66
	2662	0.5326	4.29947E-001	1.42755E-005	0.00000E+000	4.30000E-001	8.15923E-005	8	..........a	-327.66
	2663	0.5328	4.39947E-001	1.44155E-005	0.00000E+000	4.40000E-001	8.15923E-005	8	..........a	-327.66
	2664	0.533	4.49947E-001	1.45756E-005	0.00000E+000	4.50000E-001	8.15923E-005	8	..........a	-327.66
	2665	0.5332	4.60047E-001	1.47356E-005	0.00000E+000	4.60000E-001	8.15923E-005	8	..........a	-327.66
	2666	0.5334	4.70047E-001	1.49056E-005	0.00000E+000	4.70000E-001	8.15923E-005	8	..........a	-327.66
	2667	0.5336	4.79997E-001	1.50056E-005	0.00000E+000	4.80000E-001	8.15923E-005	8	..........a	-327.66
	2668	0.5338	4.89947E-001	1.51656E-005	0.00000E+000	4.90000E-001	8.15923E-005	8	..........a	-327.66
	2669	0.534	4.99847E-001	1.52756E-005	0.00000E+000	5.00000E-001	8.15923E-005	8	..........a	-327.66
	2670	0.5342	5.09847E-001	1.53756E-005	0.00000E+000	5.10000E-001	8.15923E-005	8	..........a	-327.66
	2671	0.5344	5.19947E-001	1.55356E-005	0.00000E+000	5.20000E-001	8.15923E-005	8	..........a	-327.66
	2672	0.5346	5.30047E-001	1.55956E-005	0.00000E+000	5.30000E-001	8.15923E-005	8	..........a	-327.66
	2673	0.5348	5.40147E-001	1.57256E-005	0.00000E+000	5.40000E-001	8.15923E-005	8	..........a	-327.66
	2674	0.535	5.50047E-001	1.58056E-005	0.00000E+000	5.50000E-001	8.15923E-005	8	..........a	-327.66
	2675	0.5352	5.60047E-001	1.59156E-005	0.00000E+000	5.60000E-001	8.15923E-005	8	..........a	-327.66
	2676	0.5354	5.69897E-001	1.59956E-005	0.00000E+000	5.70000E-001	8.15923E-005	8	..........a	-327.66
	2677	0.5356	5.80047E-001	1.61156E-005	0.00000E+000	5.80000E-001	8.15923E-005	8	..........a	-327.66
	2678	0.5358	5.89947E-001	1.62056E-005	0.00000E+000	5.90000E-001	8.15923E-005	8	..........a	-327.66
	2679	0.536	6.00047E-001	1.62656E-005	0.00000E+000	6.00000E-001	8.15923E-005	8	..........a	-327.66
	2680	0.5362	6.09997E-001	1.63856E-005	0.00000E+000	6.10000E-001	8.15923E-005	8	..........a	-327.66
	2681	0.5364	6.19947E-001	1.64656E-005	0.00000E+000	6.20000E-001	8.15923E-005	8	..........a	-327.66
	2682	0.5366	6.29897E-001	1.65756E-005	0.00000E+000	6.30000E-001	8.15923E-005	8	..........a	-327.66
	2683	0.5368	6.39847E-001	1.66256E-005	0.00000E+000	6.40000E-001	8.15923E-005	8	..........a	-327.66
	2684	0.537	6.50047E-001	1.66756E-005	0.00000E+000	6.50000E-001	8.15923E-005	8	..........a	-327.66
	2685	0.5372	6.59947E-001	1.67456E-005	0.00000E+000	6.60000E-001	8.15923E-005	8	..........a	-327.66
	2686	0.5374	6.70047E-001	1.67956E-005	0.00000E+000	6.70000E-001	8.15923E-005	8	..........a	-327.66
	2687	0.5376	6.79847E-001	1.68756E-005	0.00000E+000	6.80000E-001	8.15923E-005	8	..........a	-327.66
	2688	0.5378	6.90047E-001	1.69556E-005	0.00000E+000	6.90000E-001	8.15923E-005	8	..........a	-327.66
	2689	0.538	6.99847E-001	1.69556E-005	0.00000E+000	7.00000E-001	8.15923E-005	8	..........a	-327.66
	2690	0.5382	7.09947E-001	1.69056E-005	0.00000E+000	7.10000E-001	-4.18408E-004	8	..........a	-327.66
	2691	0.5384	7.19847E-001	1.69556E-005	0.00000E+000	7.20000E-001	8.15923E-005	8	..........a	-327.66
	2692	0.5386	7.30047E-001	1.69956E-005	0.00000E+000	7.30000E-001	8.15923E-005	8	..........a	-327.66
	2693	0.5388	7.39847E-001	1.69856E-005	0.00000E+000	7.40000E-001	8.15923E-005	8	..........a	-327.66
	2694	0.539	7.50047E-001	1.69856E-005	0.00000E+000	7.50000E-001	8.15923E-005	8	..........a	-327.66
	2695	0.5392	7.59847E-001	1.69856E-005	0.00000E+000	7.60000E-001	8.15923E-005	8	..........a	-327.66
	2696	0.5394	7.69947E-001	1.69656E-005	0.00000E+000	7.70000E-001	8.15923E-005	8	..........a	-327.66
	2697	0.5396	7.79847E-001	1.69556E-005	0.00000E+000	7.80000E-001	8.15923E-005	8	..........a	-327.66
	2698	0.5398	7.89947E-001	1.69556E-005	0.00000E+000	7.90000E-001	8.15923E-005	8	..........a	-327.66
	2699	0.54	7.99847E-001	1.69556E-005	0.00000E+000	8.00000E-001	8.15923E-005	8	..........a	-327.66
CURVE11	TABLE
	Pt	T	Vf	Im	Vu	Sig	Ach	IERange	Over	Temp
	#	s	V vs. Ref.	A	V	V	V	#	bits	deg C
	2700	0.5402	7.89947E-001	1.48056E-005	0.00000E+000	7.90000E-001	8.15923E-005	8	..........a	-327.66
	2701	0.5404	7.79847E-001	1.31455E-005	0.00000E+000	7.80000E-001	8.15923E-005	8	..........a	-327.66
	2702	0.5406	7.70047E-001	1.16054E-005	0.00000E+000	7.70000E-001	8.15923E-005	8	..........a	-327.66
	2703	0.5408	7.59947E-001	1.03254E-005	0.00000E+000	7.60000E-001	8.15923E-005	8	..........a	-327.66
	2704	0.541	7.50047E-001	9.16534E-006	0.00000E+000	7.50000E-001	8.15923E-005	8	..........a	-327.66
	2705	0.5412	7.39897E-001	8.02530E-006	0.00000E+000	7.40000E-001	8.15923E-005	8	..........a	-327.66
	2706	0.5414	7.29947E-001	7.07526E-006	0.00000E+000	7.30000E-001	8.15923E-005	8	..........a	-327.66
	2707	0.5416	7.19947E-001	6.14523E-006	0.00000E+000	7.20000E-001	-3.18408E-004	8	..........a	-327.66
	2708	0.5418	7.09847E-001	5.28519E-006	0.00000E+000	7.10000E-001	-2.18408E-004	8	..........a	-327.66
	2709	0.542	7.00047E-001	4.52517E-006	0.00000E+000	7.00000E-001	8.15923E-005	8	..........a	-327.66
	2710	0.5422	6.89847E-001	3.76514E-006	0.00000E+000	6.90000E-001	8.15923E-005	8	..........a	-327.66
	2711	0.5424	6.80147E-001	3.08511E-006	0.00000E+000	6.80000E-001	8.15923E-005	8	..........a	-327.66
	2712	0.5426	6.69847E-001	2.46509E-006	0.00000E+000	6.70000E-001	8.15923E-005	8	..........a	-327.66
	2713	0.5428	6.59947E-001	1.84506E-006	0.00000E+000	6.60000E-001	-2.18408E-004	8	..........a	-327.66
	2714	0.543	6.50047E-001	1.27504E-006	0.00000E+000	6.50000E-001	8.15923E-005	8	..........a	-327.66
	2715	0.5432	6.39947E-001	7.25020E-007	0.00000E+000	6.40000E-001	8.15923E-005	8	..........a	-327.66
	2716	0.5434	6.29947E-001	2.15000E-007	0.00000E+000	6.30000E-001	8.15923E-005	8	..........a	-327.66
	2717	0.5436	6.20047E-001	-2.15016E-007	0.00000E+000	6.20000E-001	8.15923E-005	8	..........a	-327.66
	2718	0.5438	6.09847E-001	-6.75034E-007	0.00000E+000	6.10000E-001	8.15923E-005	8	..........a	-327.66
	2719	0.544	5.99847E-001	-1.09505E-006	0.00000E+000	6.00000E-001	8.15923E-005	8	..........a	-327.66
	2720	0.5442	5.89947E-001	-1.51507E-006	0.00000E+000	5.90000E-001	8.15923E-005	8	..........a	-327.66
	2721	0.5444	5.79947E-001	-1.91508E-006	0.00000E+000	5.80000E-001	8.15923E-005	8	..........a	-327.66
	2722	0.5446	5.69947E-001	-2.30510E-006	0.00000E+000	5.70000E-001	8.15923E-005	8	..........a	-327.66
	2723	0.5448	5.59947E-001	-2.62511E-006	0.00000E+000	5.60000E-001	8.15923E-005	8	..........a	-327.66
	2724	0.545	5.49947E-001	-2.96512E-006	0.00000E+000	5.50000E-001	8.15923E-005	8	..........a	-327.66
	2725	0.5452	5.39847E-001	-3.29513E-006	0.00000E+000	5.40000E-001	8.15923E-005	8	..........a	-327.66
	2726	0.5454	5.29947E-001	-3.63515E-006	0.00000E+000	5.30000E-001	8.15923E-005	8	..........a	-327.66
	2727	0.5456	5.19847E-001	-3.91516E-006	0.00000E+000	5.20000E-001	8.15923E-005	8	..........a	-327.66
	2728	0.5458	5.09947E-001	-4.23517E-006	0.00000E+000	5.10000E-001	8.15923E-005	8	..........a	-327.66
	2729	0.546	5.00047E-001	-4.53518E-006	0.00000E+000	5.00000E-001	-3.18408E-004	8	..........a	-327.66
	2730	0.5462	4.90047E-001	-4.79519E-006	0.00000E+000	4.90000E-001	8.15923E-005	8	..........a	-327.66
	2731	0.5464	4.79847E-001	-5.07520E-006	0.00000E+000	4.80000E-001	8.15923E-005	8	..........a	-327.66
	2732	0.5466	4.70047E-001	-5.32521E-006	0.00000E+000	4.70000E-001	8.15923E-005	8	..........a	-327.66
	2733	0.5468	4.60047E-001	-5.55522E-006	0.00000E+000	4.60000E-001	8.15923E-005	8	..........a	-327.66
	2734	0.547	4.49947E-001	-5.82523E-006	0.00000E+000	4.50000E-001	8.15923E-005	8	..........a	-327.66
	2735	0.5472	4.39947E-001	-6.05524E-006	0.00000E+000	4.40000E-001	8.15923E-005	8	..........a	-327.66
	2736	0.5474	4.30047E-001	-6.31525E-006	0.00000E+000	4.30000E-001	8.15923E-005	8	..........a	-327.66
	2737	0.5476	4.19847E-001	-6.55526E-006	0.00000E+000	4.20000E-001	8.15923E-005	8	..........a	-327.66
	2738	0.5478	4.10047E-001	-6.83527E-006	0.00000E+000	4.10000E-001	8.15923E-005	8	..........a	-327.66
	2739	0.548	3.99697E-001	-7.02528E-006	0.00000E+000	4.00000E-001	8.15923E-005	8	..........a	-327.66
	2740	0.5482	3.89947E-001	-7.24528E-006	0.00000E+000	3.90000E-001	8.15923E-005	8	..........a	-327.66
	2741	0.5484	3.80147E-001	-7.49529E-006	0.00000E+000	3.80000E-001	8.15923E-005	8	..........a	-327.66
	2742	0.5486	3.70047E-001	-7.73530E-006	0.00000E+000	3.70000E-001	8.15923E-005	8	..........a	-327.66
	2743	0.5488	3.59947E-001	-7.99531E-006	0.00000E+000	3.60000E-001	-3.18408E-004	8	..........a	-327.66
	2744	0.549	3.50047E-001	-8.20532E-006	0.00000E+000	3.50000E-001	8.15923E-005	8	..........a	-327.66
	2745	0.5492	3.40047E-001	-8.41533E-006	0.00000E+000	3.40000E-001	8.15923E-005	8	..........a	-327.66
	2746	0.5494	3.30047E-001	-8.64534E-006	0.00000E+000	3.30000E-001	8.15923E-005	8	..........a	-327.66
	2747	0.5496	3.20047E-001	-8.89535E-006	0.00000E+000	3.20000E-001	8.15923E-005	8	..........a	-327.66
	2748	0.5498	3.10047E-001	-9.15536E-006	0.00000E+000	3.10000E-001	8.15923E-005	8	..........a	-327.66
	2749	0.55	3.00047E-001	-9.39537E-006	0.00000E+000	3.00000E-001	8.15923E-005	8	..........a	-327.66
	2750	0.5502	2.89947E-001	-9.59537E-006	0.00000E+000	2.90000E-001	8.15923E-005	8	..........a	-327.66
	2751	0.5504	2.80147E-001	-9.84538E-006	0.00000E+000	2.80000E-001	8.15923E-005	8	..........a	-327.66
	2752	0.5506	2.69947E-001	-1.00254E-005	0.00000E+000	2.70000E-001	8.15923E-005	8	..........a	-327.66
	2753	0.5508	2.60047E-001	-1.02954E-005	0.00000E+000	2.60000E-001	8.15923E-005	8	..........a	-327.66
	2754	0.551	2.49947E-001	-1.05154E-005	0.00000E+000	2.50000E-001	8.15923E-005	8	..........a	-327.66
	2755	0.5512	2.40147E-001	-1.07554E-005	0.00000E+000	2.40000E-001	8.15923E-005	8	..........a	-327.66
	2756	0.5514	2.29947E-001	-1.09554E-005	0.00000E+000	2.30000E-001	8.15923E-005	8	..........a	-327.66
	2757	0.5516	2.20247E-001	-1.11554E-005	0.00000E+000	2.20000E-001	8.15923E-005	8	..........a	-327.66
	2758	0.5518	2.09947E-001	-1.13854E-005	0.00000E+000	2.10000E-001	-2.18408E-004	8	..........a	-327.66
	2759	0.552	2.00047E-001	-1.15855E-005	0.00000E+000	2.00000E-001	-3.18408E-004	8	..........a	-327.66
	2760	0.5522	1.90097E-001	-1.17455E-005	0.00000E+000	1.90000E-001	8.15923E-005	8	..........a	-327.66
	2761	0.5524	1.80247E-001	-1.19555E-005	0.00000E+000	1.80000E-001	8.15923E-005	8	..........a	-327.66
	2762	0.5526	1.69947E-001	-1.21355E-005	0.00000E+000	1.70000E-001	-1.18408E-004	8	..........a	-327.66
	2763	0.5528	1.60047E-001	-1.22855E-005	0.00000E+000	1.60000E-001	8.15923E-005	8	..........a	-327.66
	2764	0.553	1.49997E-001	-1.24255E-005	0.00000E+000	1.50000E-001	8.15923E-005	8	..........a	-327.66
	2765	0.5532	1.40147E-001	-1.25855E-005	0.00000E+000	1.40000E-001	8.15923E-005	8	..........a	-327.66
	2766	0.5534	1.29847E-001	-1.27155E-005	0.00000E+000	1.30000E-001	8.15923E-005	8	..........a	-327.66
	2767	0.5536	1.20047E-001	-1.28555E-005	0.00000E+000	1.20000E-001	8.15923E-005	8	..........a	-327.66
	2768	0.5538	1.10147E-001	-1.29955E-005	0.00000E+000	1.10000E-001	8.15923E-005	8	..........a	-327.66
	2769	0.554	1.00047E-001	-1.31155E-005	0.00000E+000	1.00000E-001	8.15923E-005	8	..........a	-327.66
	2770	0.5542	9.00471E-002	-1.32355E-005	0.00000E+000	9.00000E-002	8.15923E-005	8	..........a	-327.66
	2771	0.5544	8.00471E-002	-1.33655E-005	0.00000E+000	8.00000E-002	8.15923E-005	8	..........a	-327.66
	2772	0.5546	6.99471E-002	-1.34755E-005	0.00000E+000	7.00000E-002	8.15923E-005	8	..........a	-327.66
	2773	0.5548	6.01471E-002	-1.35555E-005	0.00000E+000	6.00000E-002	8.15923E-005	8	..........a	-327.66
	2774	0.555	5.01471E-002	-1.36755E-005	0.00000E+000	5.00000E-002	8.15923E-005	8	..........a	-327.66
	2775	0.5552	3.99471E-002	-1.37355E-005	0.00000E+000	4.00000E-002	-4.18408E-004	8	..........a	-327.66
	2776	0.5554	3.01471E-002	-1.38055E-005	0.00000E+000	3.00000E-002	8.15923E-005	8	..........a	-327.66
	2777	0.5556	2.02471E-002	-1.38855E-005	0.00000E+000	2.00000E-002	8.15923E-005	8	..........a	-327.66
	2778	0.5558	1.01471E-002	-1.40055E-005	0.00000E+000	1.00000E-002	8.15923E-005	8	..........a	-327.66
	2779	0.556	1.47114E-004	-1.41155E-005	0.00000E+000	7.45058E-009	8.15923E-005	8	..........a	-327.66
	2780	0.5562	-9.95289E-003	-1.42556E-005	0.00000E+000	-1.00000E-002	8.15923E-005	8	..........a	-327.66
	2781	0.5564	-1.98529E-002	-1.43756E-005	0.00000E+000	-2.00000E-002	8.15923E-005	8	..........a	-327.66
	2782	0.5566	-2.99529E-002	-1.45156E-005	0.00000E+000	-3.00000E-002	8.15923E-005	8	..........a	-327.66
	2783	0.5568	-3.99529E-002	-1.45956E-005	0.00000E+000	-4.00000E-002	8.15923E-005	8	..........a	-327.66
	2784	0.557	-4.99529E-002	-1.46356E-005	0.00000E+000	-5.00000E-002	8.15923E-005	8	..........a	-327.66
	2785	0.5572	-5.97529E-002	-1.46956E-005	0.00000E+000	-6.00000E-002	8.15923E-005	8	..........a	-327.66
	2786	0.5574	-6.99529E-002	-1.46956E-005	0.00000E+000	-7.00000E-002	8.15923E-005	8	..........a	-327.66
	2787	0.5576	-7.98529E-002	-1.46356E-005	0.00000E+000	-8.00000E-002	8.15923E-005	8	..........a	-327.66
	2788	0.5578	-9.00529E-002	-1.45156E-005	0.00000E+000	-9.00000E-002	8.15923E-005	8	..........a	-327.66
	2789	0.558	-9.99529E-002	-1.42556E-005	0.00000E+000	-1.00000E-001	8.15923E-005	8	..........a	-327.66
	2790	0.5582	-1.10053E-001	-1.40355E-005	0.00000E+000	-1.10000E-001	8.15923E-005	8	..........a	-327.66
	2791	0.5584	-1.19853E-001	-1.38455E-005	0.00000E+000	-1.20000E-001	8.15923E-005	8	..........a	-327.66
	2792	0.5586	-1.30053E-001	-1.38355E-005	0.00000E+000	-1.30000E-001	8.15923E-005	8	..........a	-327.66
	2793	0.5588	-1.40153E-001	-1.37555E-005	0.00000E+000	-1.40000E-001	8.15923E-005	8	..........a	-327.66
	2794	0.559	-1.49953E-001	-1.37155E-005	0.00000E+000	-1.50000E-001	8.15923E-005	8	..........a	-327.66
	2795	0.5592	-1.59853E-001	-1.35955E-005	0.00000E+000	-1.60000E-001	8.15923E-005	8	..........a	-327.66
	2796	0.5594	-1.70053E-001	-1.35555E-005	0.00000E+000	-1.70000E-001	8.15923E-005	8	..........a	-327.66
	2797	0.5596	-1.79853E-001	-1.34355E-005	0.00000E+000	-1.80000E-001	8.15923E-005	8	..........a	-327.66
	2798	0.5598	-1.89953E-001	-1.33755E-005	0.00000E+000	-1.90000E-001	8.15923E-005	8	..........a	-327.66
	2799	0.56	-1.99953E-001	-1.32755E-005	0.00000E+000	-2.00000E-001	-3.18408E-004	8	..........a	-327.66
	2800	0.5602	-2.09953E-001	-1.31755E-005	0.00000E+000	-2.10000E-001	8.15923E-005	8	..........a	-327.66