File: data/raw/batch_data/20240424_C2_GM0016_HL03_E01_CV50.DTA
EXPLAIN
TAG	CV
TITLE	LABEL	Cyclic Voltammetry	Test &Identifier
DATE	LABEL	4/24/2024	Date
TIME	LABEL	16:47:50	Time
NOTES	NOTES	1	&Notes...

PSTAT	PSTAT	REF600P-43058	Potentiostat
VINIT	POTEN	0.00000E+000	T	Initial &E (V)
VLIMIT1	POTEN	-6.00000E-001	F	Scan Limit &1 (V)
VLIMIT2	POTEN	8.00000E-001	F	Scan Limit &2 (V)
VFINAL	POTEN	0.00000E+000	T	Final &E (V)
SCANRATE	QUANT	4.99999E+001	&Scan Rate (mV/s)
STEPSIZE	QUANT	1.00000E+001	St&ep Size (mV)
CYCLES	IQUANT	4	C&ycles (#)
IMODE	SELECTOR	0	I/E Range &Mode
IRANGE	QUANT	1.00000E-005	&Max Current (mA)
AREA	QUANT	1.00000E+000	Electrode &Area (cm^2)
ELECTRODETYPE	SELECTOR	0	Electrode Type
STRIPPING	TOGGLE	F	Used for Stripping
POLARITY	TOGGLE	F	Signal Polarity
CONDIT	TWOPARAM	F	1.50000E+001	0.00000E+000	Conditionin&g	Time(s)	E(V)
DELAY	TWOPARAM	T	1.00000E+001	0.00000E+000	Init. De&lay	Time(s)	Stab.(mV/s)
EQDELAY	QUANT	1.00000E+001	Equil. &Time (s)
IRCOMP	SELECTOR	0	IRCom&p
PFCOR	QUANT	5.00000E+001	PF Corr. (ohm)
SAMPLINGMODE	SELECTOR	1	Sampling &Mode
OCVCURVE	TABLE	39
	Pt	T	Vf	Vm	Ach	Over	Temp
	#	s	V vs. Ref.	V	V	bits	deg C
	0	0.258333	2.29930E-001	2.29930E-001	2.08126E-004	..........a	-327.66
	1	0.516667	2.29855E-001	2.26036E-001	2.02392E-004	..........a	-327.66
	2	0.775	2.29397E-001	2.22240E-001	2.05992E-004	..........a	-327.66
	3	1.03333	2.28091E-001	2.18526E-001	2.01192E-004	..........a	-327.66
	4	1.29167	2.25734E-001	2.14872E-001	2.02992E-004	..........a	-327.66
	5	1.55	2.22558E-001	2.11265E-001	2.08792E-004	..........a	-327.66
	6	1.80833	2.18972E-001	2.07696E-001	2.11392E-004	..........a	-327.66
	7	2.06667	2.15276E-001	2.04153E-001	2.03326E-004	..........a	-327.66
	8	2.325	2.11609E-001	2.00622E-001	2.01592E-004	..........a	-327.66
	9	2.58333	2.08000E-001	1.97105E-001	2.00459E-004	..........a	-327.66
	10	2.84167	2.04437E-001	1.93591E-001	2.12126E-004	..........a	-327.66
	11	3.1	2.00901E-001	1.90074E-001	1.99659E-004	..........a	-327.66
	12	3.35833	1.97378E-001	1.86556E-001	2.06126E-004	..........a	-327.66
	13	3.61667	1.93861E-001	1.83039E-001	2.07059E-004	..........a	-327.66
	14	3.875	1.90345E-001	1.79508E-001	2.06192E-004	..........a	-327.66
	15	4.13333	1.86827E-001	1.75973E-001	2.11259E-004	..........a	-327.66
	16	4.39167	1.83305E-001	1.72426E-001	2.12126E-004	..........a	-327.66
	17	4.65	1.79776E-001	1.68871E-001	2.13792E-004	..........a	-327.66
	18	4.90833	1.76240E-001	1.65305E-001	2.05926E-004	..........a	-327.66
	19	5.16667	1.72695E-001	1.61742E-001	2.08392E-004	..........a	-327.66
	20	5.425	1.69141E-001	1.58171E-001	2.07726E-004	..........a	-327.66
	21	5.68333	1.65581E-001	1.54590E-001	2.06259E-004	..........a	-327.66
	22	5.94167	1.62015E-001	1.51010E-001	2.11792E-004	..........a	-327.66
	23	6.2	1.58443E-001	1.47431E-001	2.09059E-004	..........a	-327.66
	24	6.45833	1.54867E-001	1.43861E-001	2.08326E-004	..........a	-327.66
	25	6.71667	1.51290E-001	1.40295E-001	2.05326E-004	..........a	-327.66
	26	6.975	1.47715E-001	1.36741E-001	2.03726E-004	..........a	-327.66
	27	7.23333	1.44144E-001	1.33204E-001	1.98926E-004	..........a	-327.66
	28	7.49167	1.40581E-001	1.29681E-001	2.04592E-004	..........a	-327.66
	29	7.75	1.37030E-001	1.26190E-001	2.03792E-004	..........a	-327.66
	30	8.00833	1.33493E-001	1.22726E-001	2.06192E-004	..........a	-327.66
	31	8.26667	1.29976E-001	1.19291E-001	2.07659E-004	..........a	-327.66
	32	8.525	1.26484E-001	1.15893E-001	2.00926E-004	..........a	-327.66
	33	8.78333	1.23019E-001	1.12528E-001	2.10792E-004	..........a	-327.66
	34	9.04167	1.19585E-001	1.09206E-001	2.05659E-004	..........a	-327.66
	35	9.3	1.16184E-001	1.05924E-001	2.07459E-004	..........a	-327.66
	36	9.5583	1.12820E-001	1.02688E-001	2.03392E-004	..........a	-327.66
	37	9.8167	1.09496E-001	9.94983E-002	2.16192E-004	..........a	-327.66
	38	10.075	1.06213E-001	9.63532E-002	2.09592E-004	..........a	-327.66
EOC	QUANT	0.1062132	Open Circuit (V)
PSTATMODEL	IQUANT	7	Pstat Model
PSTATSECTION	LABEL	REF600P-43058	Pstat Section
PSTATSERIALNO	LABEL	43058	Pstat Serial Number
CTRLMODE	IQUANT	1	Control Mode
ELECTROMETER	IQUANT	0	RE=0 or CS=1
IESTAB	IQUANT	2	I/E Stability
CASPEED	IQUANT	4	Control Amp Speed
CONVENTION	IQUANT	1	Current Convention
ICHRANGE	IQUANT	2	Ich Range
ICHRANGEMODE	TOGGLE	F	Ich Auto Range
ICHOFFSETENABLE	TOGGLE	F	Ich Offset Enable
ICHOFFSET	QUANT	0	Ich Offset (V)
ICHFILTER	IQUANT	2	Ich Filter
VCHRANGE	IQUANT	2	Vch Range
VCHRANGEMODE	TOGGLE	F	Vch Auto Range
VCHOFFSETENABLE	TOGGLE	F	Vch Offset Enable
VCHOFFSET	QUANT	0	Vch Offset (V)
VCHFILTER	IQUANT	2	Vch Filter
ACHRANGE	IQUANT	2	Ach Range
ACHOFFSETENABLE	TOGGLE	F	Ach Offset Enable
ACHOFFSET	QUANT	0	Ach Offset (V)
ACHFILTER	IQUANT	1	Ach Filter
IERANGELOWERLIMIT	IQUANT	1	I/E Range Lower Limit
IERANGEMODE	TOGGLE	T	I/E AutoRange
IERANGE	IQUANT	4	I/E Range
POSFEEDENABLE	TOGGLE	F	Positive Feedback IR Comp
POSFEEDRESISTANCE	QUANT	0	Positive Feedback Resistance (ohm)
ACHSELECT	IQUANT	4	Ach Select
SENSECABLEID	IQUANT	7	Sense Cable ID
PWRCABLEID	IQUANT	7	Power Cable ID
DCCALDATE	LABEL	3/22/2024	DC Calibration Date
ACCALDATE	LABEL	3/22/2024	AC Calibration Date
THERMOSELECT	IQUANT	1	Thermo Select
FRAMEWORKVERSION	LABEL	7.8.4	Framework Version
INSTRUMENTVERSION	LABEL	4.42	Instrument Version
CURVE1	TABLE
	Pt	T	Vf	Im	Vu	Sig	Ach	IERange	Over	Temp
	#	s	V vs. Ref.	A	V	V	V	#	bits	deg C
	0	0.2	1.06239E-001	1.31811E-008	0.00000E+000	1.06200E-001	9.49692E-004	5	..........a	-327.66
	1	0.4	9.62358E-002	9.27526E-009	0.00000E+000	9.62000E-002	9.53392E-004	5	..........a	-327.66
	2	0.6	8.62477E-002	6.77119E-009	0.00000E+000	8.62000E-002	9.42192E-004	5	..........a	-327.66
	3	0.8	7.63340E-002	4.62538E-009	0.00000E+000	7.62000E-002	9.55792E-004	5	..........a	-327.66
	4	1	6.61406E-002	2.67253E-009	0.00000E+000	6.62000E-002	9.47892E-004	5	..........a	-327.66
	5	1.2	5.62180E-002	8.14637E-010	0.00000E+000	5.62000E-002	9.59292E-004	5	..........a	-327.66
	6	1.4	4.62697E-002	-9.72680E-010	0.00000E+000	4.62000E-002	9.61292E-004	5	..........a	-327.66
	7	1.6	3.62975E-002	-2.68003E-009	0.00000E+000	3.62000E-002	9.56392E-004	5	..........a	-327.66
	8	1.8	2.62338E-002	-4.35338E-009	0.00000E+000	2.62000E-002	9.49592E-004	5	..........a	-327.66
	9	2	1.63269E-002	-5.99099E-009	0.00000E+000	1.62000E-002	9.38892E-004	5	..........a	-327.66
	10	2.2	6.24634E-003	-7.59313E-009	0.00000E+000	6.20000E-003	9.50892E-004	5	..........a	-327.66
	11	2.4	-3.68596E-003	-9.14699E-009	0.00000E+000	-3.80000E-003	9.48192E-004	5	..........a	-327.66
	12	2.6	-1.37826E-002	-1.07150E-008	0.00000E+000	-1.38000E-002	9.33392E-004	5	..........a	-327.66
	13	2.8	-2.37449E-002	-1.21853E-008	0.00000E+000	-2.38000E-002	9.60492E-004	5	..........a	-327.66
	14	3	-3.37585E-002	-1.36781E-008	0.00000E+000	-3.38000E-002	9.35492E-004	5	..........a	-327.66
	15	3.2	-4.37366E-002	-1.51526E-008	0.00000E+000	-4.38000E-002	9.43492E-004	5	..........a	-327.66
	16	3.4	-5.37586E-002	-1.65818E-008	0.00000E+000	-5.38000E-002	9.45992E-004	5	..........a	-327.66
	17	3.6	-6.37225E-002	-1.80243E-008	0.00000E+000	-6.38000E-002	9.39192E-004	5	..........a	-327.66
	18	3.8	-7.37571E-002	-1.94353E-008	0.00000E+000	-7.38000E-002	9.47192E-004	5	..........a	-327.66
	19	4	-8.36701E-002	-2.08732E-008	0.00000E+000	-8.38000E-002	9.44592E-004	5	..........a	-327.66
	20	4.2	-9.37641E-002	-2.22133E-008	0.00000E+000	-9.38000E-002	9.41292E-004	5	..........a	-327.66
	21	4.4	-1.03714E-001	-2.35356E-008	0.00000E+000	-1.03800E-001	9.48192E-004	5	..........a	-327.66
	22	4.6	-1.13704E-001	-2.48286E-008	0.00000E+000	-1.13800E-001	9.45692E-004	5	..........a	-327.66
	23	4.8	-1.23719E-001	-2.60724E-008	0.00000E+000	-1.23800E-001	9.51192E-004	5	..........a	-327.66
	24	5	-1.33774E-001	-2.72597E-008	0.00000E+000	-1.33800E-001	9.60692E-004	5	..........a	-327.66
	25	5.2	-1.43759E-001	-2.84267E-008	0.00000E+000	-1.43800E-001	9.47992E-004	5	..........a	-327.66
	26	5.4	-1.53774E-001	-2.95631E-008	0.00000E+000	-1.53800E-001	9.62792E-004	5	..........a	-327.66
	27	5.6	-1.63672E-001	-3.06923E-008	0.00000E+000	-1.63800E-001	9.49692E-004	5	..........a	-327.66
	28	5.8	-1.73763E-001	-3.18035E-008	0.00000E+000	-1.73800E-001	9.30792E-004	5	..........a	-327.66
	29	6	-1.83751E-001	-3.29085E-008	0.00000E+000	-1.83800E-001	9.55192E-004	5	..........a	-327.66
	30	6.2	-1.93773E-001	-3.39854E-008	0.00000E+000	-1.93800E-001	9.52592E-004	5	..........a	-327.66
	31	6.4	-2.03702E-001	-3.50558E-008	0.00000E+000	-2.03800E-001	9.41792E-004	5	..........a	-327.66
	32	6.6	-2.13742E-001	-3.61143E-008	0.00000E+000	-2.13800E-001	9.38092E-004	5	..........a	-327.66
	33	6.8	-2.23705E-001	-3.71460E-008	0.00000E+000	-2.23800E-001	9.49892E-004	5	..........a	-327.66
	34	7	-2.33721E-001	-3.81951E-008	0.00000E+000	-2.33800E-001	9.58692E-004	5	..........a	-327.66
	35	7.2	-2.43718E-001	-3.92031E-008	0.00000E+000	-2.43800E-001	9.49192E-004	5	..........a	-327.66
	36	7.4	-2.53732E-001	-4.02213E-008	0.00000E+000	-2.53800E-001	9.40292E-004	5	..........a	-327.66
	37	7.6	-2.63694E-001	-4.12779E-008	0.00000E+000	-2.63800E-001	9.50092E-004	5	..........a	-327.66
	38	7.8	-2.73727E-001	-4.22669E-008	0.00000E+000	-2.73800E-001	9.59292E-004	5	..........a	-327.66
	39	8	-2.83647E-001	-4.32831E-008	0.00000E+000	-2.83800E-001	9.45592E-004	5	..........a	-327.66
	40	8.2	-2.93728E-001	-4.42800E-008	0.00000E+000	-2.93800E-001	9.44492E-004	5	..........a	-327.66
	41	8.4	-3.03678E-001	-4.52585E-008	0.00000E+000	-3.03800E-001	9.58392E-004	5	..........a	-327.66
	42	8.6	-3.13735E-001	-4.62785E-008	0.00000E+000	-3.13800E-001	9.45792E-004	5	..........a	-327.66
	43	8.8	-3.23693E-001	-4.72548E-008	0.00000E+000	-3.23800E-001	9.43092E-004	5	..........a	-327.66
	44	9	-3.33730E-001	-4.82506E-008	0.00000E+000	-3.33800E-001	9.35092E-004	5	..........a	-327.66
	45	9.2	-3.43773E-001	-4.92358E-008	0.00000E+000	-3.43800E-001	9.39192E-004	5	..........a	-327.66
	46	9.4	-3.53724E-001	-5.02259E-008	0.00000E+000	-3.53800E-001	9.49592E-004	5	..........a	-327.66
	47	9.6	-3.63623E-001	-5.12333E-008	0.00000E+000	-3.63800E-001	9.43992E-004	5	..........a	-327.66
	48	9.8	-3.73716E-001	-5.22215E-008	0.00000E+000	-3.73800E-001	9.43192E-004	5	..........a	-327.66
	49	10	-3.83713E-001	-5.32239E-008	0.00000E+000	-3.83800E-001	9.56192E-004	5	..........a	-327.66
	50	10.2	-3.93705E-001	-5.42193E-008	0.00000E+000	-3.93800E-001	9.57492E-004	5	..........a	-327.66
	51	10.4	-4.03655E-001	-5.52249E-008	0.00000E+000	-4.03800E-001	9.58492E-004	5	..........a	-327.66
	52	10.6	-4.13703E-001	-5.62268E-008	0.00000E+000	-4.13800E-001	9.44392E-004	5	..........a	-327.66
	53	10.8	-4.23648E-001	-5.72240E-008	0.00000E+000	-4.23800E-001	9.64192E-004	5	..........a	-327.66
	54	11	-4.33705E-001	-5.82148E-008	0.00000E+000	-4.33800E-001	9.44792E-004	5	..........a	-327.66
	55	11.2	-4.43618E-001	-5.92000E-008	0.00000E+000	-4.43800E-001	9.78392E-004	5	..........a	-327.66
	56	11.4	-4.53677E-001	-6.02129E-008	0.00000E+000	-4.53800E-001	9.52792E-004	5	..........a	-327.66
	57	11.6	-4.63642E-001	-6.11708E-008	0.00000E+000	-4.63800E-001	9.55092E-004	5	..........a	-327.66
	58	11.8	-4.73688E-001	-6.22147E-008	0.00000E+000	-4.73800E-001	9.56492E-004	5	..........a	-327.66
	59	12	-4.83609E-001	-6.32269E-008	0.00000E+000	-4.83800E-001	9.51592E-004	5	..........a	-327.66
	60	12.2	-4.93675E-001	-6.42676E-008	0.00000E+000	-4.93800E-001	9.47392E-004	5	..........a	-327.66
	61	12.4	-5.03637E-001	-6.52942E-008	0.00000E+000	-5.03800E-001	9.52392E-004	5	..........a	-327.66
	62	12.6	-5.13702E-001	-6.63832E-008	0.00000E+000	-5.13800E-001	9.49492E-004	5	..........a	-327.66
	63	12.8	-5.23603E-001	-6.74915E-008	0.00000E+000	-5.23800E-001	9.41292E-004	5	..........a	-327.66
	64	13	-5.33688E-001	-6.86110E-008	0.00000E+000	-5.33800E-001	9.59592E-004	5	..........a	-327.66
	65	13.2	-5.43679E-001	-6.97670E-008	0.00000E+000	-5.43800E-001	9.73292E-004	5	..........a	-327.66
	66	13.4	-5.53679E-001	-7.09611E-008	0.00000E+000	-5.53800E-001	9.53392E-004	5	..........a	-327.66
	67	13.6	-5.63606E-001	-7.22088E-008	0.00000E+000	-5.63800E-001	9.47192E-004	5	..........a	-327.66
	68	13.8	-5.73705E-001	-7.34923E-008	0.00000E+000	-5.73800E-001	9.41392E-004	5	..........a	-327.66
	69	14	-5.83671E-001	-7.48483E-008	0.00000E+000	-5.83800E-001	9.67192E-004	5	..........a	-327.66
	70	14.2	-5.93682E-001	-7.62514E-008	0.00000E+000	-5.93800E-001	9.63992E-004	5	..........a	-327.66
	71	14.4	-6.03631E-001	-7.77262E-008	0.00000E+000	-6.03800E-001	9.56392E-004	5	..........a	-327.66
	72	14.6	-5.93675E-001	-6.68169E-008	0.00000E+000	-5.93800E-001	9.52392E-004	5	..........a	-327.66
	73	14.8	-5.83663E-001	-5.97953E-008	0.00000E+000	-5.83800E-001	9.66292E-004	5	..........a	-327.66
	74	15	-5.73724E-001	-5.44655E-008	0.00000E+000	-5.73800E-001	9.42492E-004	5	..........a	-327.66
	75	15.2	-5.63617E-001	-5.00911E-008	0.00000E+000	-5.63800E-001	9.63992E-004	5	..........a	-327.66
	76	15.4	-5.53681E-001	-4.63196E-008	0.00000E+000	-5.53800E-001	9.51792E-004	5	..........a	-327.66
	77	15.6	-5.43712E-001	-4.30013E-008	0.00000E+000	-5.43800E-001	9.54392E-004	5	..........a	-327.66
	78	15.8	-5.33677E-001	-3.99688E-008	0.00000E+000	-5.33800E-001	9.55692E-004	5	..........a	-327.66
	79	16	-5.23597E-001	-3.72111E-008	0.00000E+000	-5.23800E-001	9.41892E-004	5	..........a	-327.66
	80	16.2	-5.13711E-001	-3.46823E-008	0.00000E+000	-5.13800E-001	9.55092E-004	5	..........a	-327.66
	81	16.4	-5.03643E-001	-3.23151E-008	0.00000E+000	-5.03800E-001	9.62792E-004	5	..........a	-327.66
	82	16.6	-4.93665E-001	-3.00633E-008	0.00000E+000	-4.93800E-001	9.51392E-004	5	..........a	-327.66
	83	16.8	-4.83637E-001	-2.79288E-008	0.00000E+000	-4.83800E-001	9.59692E-004	5	..........a	-327.66
	84	17	-4.73708E-001	-2.59209E-008	0.00000E+000	-4.73800E-001	9.32992E-004	5	..........a	-327.66
	85	17.2	-4.63596E-001	-2.39643E-008	0.00000E+000	-4.63800E-001	9.62492E-004	5	..........a	-327.66
	86	17.4	-4.53706E-001	-2.21293E-008	0.00000E+000	-4.53800E-001	9.37292E-004	5	..........a	-327.66
	87	17.6	-4.43612E-001	-2.03514E-008	0.00000E+000	-4.43800E-001	9.65592E-004	5	..........a	-327.66
	88	17.8	-4.33686E-001	-1.86564E-008	0.00000E+000	-4.33800E-001	9.53092E-004	5	..........a	-327.66
	89	18	-4.23656E-001	-1.70237E-008	0.00000E+000	-4.23800E-001	9.35892E-004	5	..........a	-327.66
	90	18.2	-4.13699E-001	-1.54306E-008	0.00000E+000	-4.13800E-001	9.39692E-004	5	..........a	-327.66
	91	18.4	-4.03675E-001	-1.38515E-008	0.00000E+000	-4.03800E-001	9.54292E-004	5	..........a	-327.66
	92	18.6	-3.93747E-001	-1.23240E-008	0.00000E+000	-3.93800E-001	9.59792E-004	5	..........a	-327.66
	93	18.8	-3.83700E-001	-1.08811E-008	0.00000E+000	-3.83800E-001	9.67592E-004	5	..........a	-327.66
	94	19	-3.73724E-001	-9.42026E-009	0.00000E+000	-3.73800E-001	9.43292E-004	5	..........a	-327.66
	95	19.2	-3.63642E-001	-8.01414E-009	0.00000E+000	-3.63800E-001	9.44592E-004	5	..........a	-327.66
	96	19.4	-3.53758E-001	-6.61421E-009	0.00000E+000	-3.53800E-001	9.53392E-004	5	..........a	-327.66
	97	19.6	-3.43695E-001	-5.28556E-009	0.00000E+000	-3.43800E-001	9.57692E-004	5	..........a	-327.66
	98	19.8	-3.33757E-001	-3.94163E-009	0.00000E+000	-3.33800E-001	9.58092E-004	5	..........a	-327.66
	99	20	-3.23710E-001	-2.65340E-009	0.00000E+000	-3.23800E-001	9.34692E-004	5	..........a	-327.66
	100	20.2	-3.13749E-001	-1.36136E-009	0.00000E+000	-3.13800E-001	9.59992E-004	5	..........a	-327.66
	101	20.4	-3.03809E-001	-1.20508E-010	0.00000E+000	-3.03800E-001	9.53392E-004	5	..........a	-327.66
	102	20.6	-2.93730E-001	1.16369E-009	0.00000E+000	-2.93800E-001	9.58692E-004	5	..........a	-327.66
	103	20.8	-2.83684E-001	2.39599E-009	0.00000E+000	-2.83800E-001	9.58092E-004	5	..........a	-327.66
	104	21	-2.73744E-001	3.58084E-009	0.00000E+000	-2.73800E-001	9.44592E-004	5	..........a	-327.66
	105	21.2	-2.63671E-001	4.77042E-009	0.00000E+000	-2.63800E-001	9.59792E-004	5	..........a	-327.66
	106	21.4	-2.53754E-001	5.92013E-009	0.00000E+000	-2.53800E-001	9.51692E-004	5	..........a	-327.66
	107	21.6	-2.43728E-001	7.09075E-009	0.00000E+000	-2.43800E-001	9.42492E-004	5	..........a	-327.66
	108	21.8	-2.33763E-001	8.24370E-009	0.00000E+000	-2.33800E-001	9.52192E-004	5	..........a	-327.66
	109	22	-2.23725E-001	9.37965E-009	0.00000E+000	-2.23800E-001	9.54392E-004	5	..........a	-327.66
	110	22.2	-2.13772E-001	1.04778E-008	0.00000E+000	-2.13800E-001	9.41992E-004	5	..........a	-327.66
	111	22.4	-2.03692E-001	1.16601E-008	0.00000E+000	-2.03800E-001	9.34292E-004	5	..........a	-327.66
	112	22.6	-1.93775E-001	1.27208E-008	0.00000E+000	-1.93800E-001	9.61692E-004	5	..........a	-327.66
	113	22.8	-1.83727E-001	1.38601E-008	0.00000E+000	-1.83800E-001	9.57492E-004	5	..........a	-327.66
	114	23	-1.73772E-001	1.49315E-008	0.00000E+000	-1.73800E-001	9.51192E-004	5	..........a	-327.66
	115	23.2	-1.63677E-001	1.60174E-008	0.00000E+000	-1.63800E-001	9.35992E-004	5	..........a	-327.66
	116	23.4	-1.53784E-001	1.71034E-008	0.00000E+000	-1.53800E-001	9.50192E-004	5	..........a	-327.66
	117	23.6	-1.43793E-001	1.81634E-008	0.00000E+000	-1.43800E-001	9.47492E-004	5	..........a	-327.66
	118	23.8	-1.33786E-001	1.92325E-008	0.00000E+000	-1.33800E-001	9.51792E-004	5	..........a	-327.66
	119	24	-1.23722E-001	2.02882E-008	0.00000E+000	-1.23800E-001	9.51992E-004	5	..........a	-327.66
	120	24.2	-1.13764E-001	2.13562E-008	0.00000E+000	-1.13800E-001	9.44192E-004	5	..........a	-327.66
	121	24.4	-1.03756E-001	2.24154E-008	0.00000E+000	-1.03800E-001	9.58392E-004	5	..........a	-327.66
	122	24.6	-9.37894E-002	2.34594E-008	0.00000E+000	-9.38000E-002	9.54292E-004	5	..........a	-327.66
	123	24.8	-8.36680E-002	2.45262E-008	0.00000E+000	-8.38000E-002	9.54892E-004	5	..........a	-327.66
	124	25	-7.37731E-002	2.55583E-008	0.00000E+000	-7.38000E-002	9.59992E-004	5	..........a	-327.66
	125	25.2	-6.37125E-002	2.66192E-008	0.00000E+000	-6.38000E-002	9.55592E-004	5	..........a	-327.66
	126	25.4	-5.37750E-002	2.76433E-008	0.00000E+000	-5.38000E-002	9.55292E-004	5	..........a	-327.66
	127	25.6	-4.37331E-002	2.86667E-008	0.00000E+000	-4.38000E-002	9.40792E-004	5	..........a	-327.66
	128	25.8	-3.37803E-002	2.96855E-008	0.00000E+000	-3.38000E-002	9.46292E-004	5	..........a	-327.66
	129	26	-2.38041E-002	3.06705E-008	0.00000E+000	-2.38000E-002	9.61792E-004	5	..........a	-327.66
	130	26.2	-1.37910E-002	3.16734E-008	0.00000E+000	-1.38000E-002	9.47492E-004	5	..........a	-327.66
	131	26.4	-3.69861E-003	3.27047E-008	0.00000E+000	-3.80000E-003	9.40792E-004	5	..........a	-327.66
	132	26.6	6.22029E-003	3.37056E-008	0.00000E+000	6.20000E-003	9.47392E-004	5	..........a	-327.66
	133	26.8	1.62836E-002	3.47052E-008	0.00000E+000	1.62000E-002	9.58092E-004	5	..........a	-327.66
	134	27	2.62411E-002	3.56986E-008	0.00000E+000	2.62000E-002	9.49492E-004	5	..........a	-327.66
	135	27.2	3.62940E-002	3.67294E-008	0.00000E+000	3.62000E-002	9.41792E-004	5	..........a	-327.66
	136	27.4	4.62580E-002	3.77874E-008	0.00000E+000	4.62000E-002	9.47892E-004	5	..........a	-327.66
	137	27.6	5.62139E-002	3.88505E-008	0.00000E+000	5.62000E-002	9.57692E-004	5	..........a	-327.66
	138	27.8	6.62376E-002	3.99321E-008	0.00000E+000	6.62000E-002	9.35592E-004	5	..........a	-327.66
	139	28	7.63252E-002	4.10251E-008	0.00000E+000	7.62000E-002	9.70792E-004	5	..........a	-327.66
	140	28.2	8.62351E-002	4.22280E-008	0.00000E+000	8.62000E-002	9.57792E-004	5	..........a	-327.66
	141	28.4	9.61825E-002	4.33524E-008	0.00000E+000	9.62000E-002	9.60692E-004	5	..........a	-327.66
	142	28.6	1.06242E-001	4.45364E-008	0.00000E+000	1.06200E-001	9.68092E-004	5	..........a	-327.66
	143	28.8	1.16337E-001	4.57029E-008	0.00000E+000	1.16200E-001	9.52092E-004	5	..........a	-327.66
	144	29	1.26240E-001	4.68121E-008	0.00000E+000	1.26200E-001	9.59692E-004	5	..........a	-327.66
	145	29.2	1.36252E-001	4.79464E-008	0.00000E+000	1.36200E-001	9.63292E-004	5	..........a	-327.66
	146	29.4	1.46225E-001	4.90285E-008	0.00000E+000	1.46200E-001	9.49292E-004	5	..........a	-327.66
	147	29.6	1.56315E-001	5.01195E-008	0.00000E+000	1.56200E-001	9.54692E-004	5	..........a	-327.66
	148	29.8	1.66211E-001	5.11713E-008	0.00000E+000	1.66200E-001	9.47392E-004	5	..........a	-327.66
	149	30	1.76254E-001	5.22223E-008	0.00000E+000	1.76200E-001	9.48892E-004	5	..........a	-327.66
	150	30.2	1.86228E-001	5.32315E-008	0.00000E+000	1.86200E-001	9.46892E-004	5	..........a	-327.66
	151	30.4	1.96320E-001	5.42689E-008	0.00000E+000	1.96200E-001	9.61792E-004	5	..........a	-327.66
	152	30.6	2.06194E-001	5.52486E-008	0.00000E+000	2.06200E-001	9.51292E-004	5	..........a	-327.66
	153	30.8	2.16197E-001	5.62227E-008	0.00000E+000	2.16200E-001	9.47092E-004	5	..........a	-327.66
	154	31	2.26201E-001	5.71614E-008	0.00000E+000	2.26200E-001	9.46992E-004	5	..........a	-327.66
	155	31.2	2.36262E-001	5.81098E-008	0.00000E+000	2.36200E-001	9.53492E-004	5	..........a	-327.66
	156	31.4	2.46190E-001	5.89519E-008	0.00000E+000	2.46200E-001	9.52692E-004	5	..........a	-327.66
	157	31.6	2.56202E-001	5.98267E-008	0.00000E+000	2.56200E-001	9.50692E-004	5	..........a	-327.66
	158	31.8	2.66197E-001	6.07323E-008	0.00000E+000	2.66200E-001	9.49092E-004	5	..........a	-327.66
	159	32	2.76290E-001	6.16206E-008	0.00000E+000	2.76200E-001	9.52992E-004	5	..........a	-327.66
	160	32.2	2.86183E-001	6.25729E-008	0.00000E+000	2.86200E-001	9.41492E-004	5	..........a	-327.66
	161	32.4	2.96169E-001	6.35035E-008	0.00000E+000	2.96200E-001	9.48492E-004	5	..........a	-327.66
	162	32.6	3.06173E-001	6.44476E-008	0.00000E+000	3.06200E-001	9.49992E-004	5	..........a	-327.66
	163	32.8	3.16237E-001	6.54432E-008	0.00000E+000	3.16200E-001	9.46992E-004	5	..........a	-327.66
	164	33	3.26189E-001	6.64457E-008	0.00000E+000	3.26200E-001	9.55292E-004	5	..........a	-327.66
	165	33.2	3.36208E-001	6.75277E-008	0.00000E+000	3.36200E-001	9.67492E-004	5	..........a	-327.66
	166	33.4	3.46210E-001	6.85828E-008	0.00000E+000	3.46200E-001	9.35892E-004	5	..........a	-327.66
	167	33.6	3.56286E-001	6.96676E-008	0.00000E+000	3.56200E-001	9.44992E-004	5	..........a	-327.66
	168	33.8	3.66183E-001	7.07453E-008	0.00000E+000	3.66200E-001	9.46892E-004	5	..........a	-327.66
	169	34	3.76195E-001	7.18438E-008	0.00000E+000	3.76200E-001	9.52992E-004	5	..........a	-327.66
	170	34.2	3.86186E-001	7.29996E-008	0.00000E+000	3.86200E-001	9.45692E-004	5	..........a	-327.66
	171	34.4	3.96205E-001	7.41482E-008	0.00000E+000	3.96200E-001	9.36992E-004	5	..........a	-327.66
	172	34.6	4.06174E-001	7.53453E-008	0.00000E+000	4.06200E-001	9.49092E-004	5	..........a	-327.66
	173	34.8	4.16164E-001	7.65369E-008	0.00000E+000	4.16200E-001	9.50292E-004	5	..........a	-327.66
	174	35	4.26173E-001	7.78226E-008	0.00000E+000	4.26200E-001	9.48692E-004	5	..........a	-327.66
	175	35.2	4.36229E-001	7.90650E-008	0.00000E+000	4.36200E-001	9.33292E-004	5	..........a	-327.66
	176	35.4	4.46166E-001	8.04168E-008	0.00000E+000	4.46200E-001	9.42392E-004	5	..........a	-327.66
	177	35.6	4.56155E-001	8.17725E-008	0.00000E+000	4.56200E-001	9.52892E-004	5	..........a	-327.66
	178	35.8	4.66139E-001	8.32174E-008	0.00000E+000	4.66200E-001	9.46792E-004	5	..........a	-327.66
	179	36	4.76171E-001	8.46880E-008	0.00000E+000	4.76200E-001	9.45592E-004	5	..........a	-327.66
	180	36.2	4.86110E-001	8.61465E-008	0.00000E+000	4.86200E-001	9.59492E-004	5	..........a	-327.66
	181	36.4	4.96164E-001	8.76579E-008	0.00000E+000	4.96200E-001	9.42092E-004	5	..........a	-327.66
	182	36.6	5.06138E-001	8.91576E-008	0.00000E+000	5.06200E-001	9.37392E-004	5	..........a	-327.66
	183	36.8	5.16217E-001	9.06453E-008	0.00000E+000	5.16200E-001	9.40892E-004	5	..........a	-327.66
	184	37	5.26112E-001	9.21398E-008	0.00000E+000	5.26200E-001	9.46492E-004	5	..........a	-327.66
	185	37.2	5.36136E-001	9.36185E-008	0.00000E+000	5.36200E-001	9.57492E-004	5	..........a	-327.66
	186	37.4	5.46147E-001	9.50508E-008	0.00000E+000	5.46200E-001	9.34192E-004	5	..........a	-327.66
	187	37.6	5.56247E-001	9.64894E-008	0.00000E+000	5.56200E-001	9.38792E-004	5	..........a	-327.66
	188	37.8	5.66142E-001	9.78476E-008	0.00000E+000	5.66200E-001	9.58992E-004	5	..........a	-327.66
	189	38	5.76156E-001	9.91732E-008	0.00000E+000	5.76200E-001	9.46392E-004	5	..........a	-327.66
	190	38.2	5.86122E-001	1.00520E-007	0.00000E+000	5.86200E-001	9.51992E-004	5	..........a	-327.66
	191	38.4	5.96178E-001	1.01828E-007	0.00000E+000	5.96200E-001	9.29792E-004	5	..........a	-327.66
	192	38.6	6.06134E-001	1.03153E-007	0.00000E+000	6.06200E-001	9.51392E-004	5	..........a	-327.66
	193	38.8	6.16097E-001	1.04501E-007	0.00000E+000	6.16200E-001	9.49792E-004	5	..........a	-327.66
	194	39	6.26107E-001	1.05866E-007	0.00000E+000	6.26200E-001	9.48092E-004	5	..........a	-327.66
	195	39.2	6.36192E-001	1.07277E-007	0.00000E+000	6.36200E-001	9.37192E-004	5	..........a	-327.66
	196	39.4	6.46117E-001	1.08644E-007	0.00000E+000	6.46200E-001	9.50692E-004	5	..........a	-327.66
	197	39.6	6.56076E-001	1.10122E-007	0.00000E+000	6.56200E-001	9.50992E-004	5	..........a	-327.66
	198	39.8	6.66075E-001	1.11646E-007	0.00000E+000	6.66200E-001	9.43192E-004	5	..........a	-327.66
	199	40	6.76122E-001	1.13215E-007	0.00000E+000	6.76200E-001	9.40192E-004	5	..........a	-327.66
	200	40.2	6.86095E-001	1.14865E-007	0.00000E+000	6.86200E-001	9.51192E-004	5	..........a	-327.66
	201	40.4	6.96085E-001	1.16671E-007	0.00000E+000	6.96200E-001	9.36292E-004	5	..........a	-327.66
	202	40.6	7.06140E-001	1.18555E-007	0.00000E+000	7.06200E-001	9.38192E-004	5	..........a	-327.66
	203	40.8	7.16119E-001	1.20570E-007	0.00000E+000	7.16200E-001	9.34492E-004	5	..........a	-327.66
	204	41	7.26134E-001	1.22798E-007	0.00000E+000	7.26200E-001	9.27992E-004	5	..........a	-327.66
	205	41.2	7.36048E-001	1.25302E-007	0.00000E+000	7.36200E-001	9.44792E-004	5	..........a	-327.66
	206	41.4	7.46097E-001	1.28045E-007	0.00000E+000	7.46200E-001	9.41592E-004	5	..........a	-327.66
	207	41.6	7.56141E-001	1.31240E-007	0.00000E+000	7.56200E-001	9.40592E-004	5	..........a	-327.66
	208	41.8	7.66108E-001	1.34810E-007	0.00000E+000	7.66200E-001	9.50992E-004	5	..........a	-327.66
	209	42	7.76114E-001	1.38720E-007	0.00000E+000	7.76200E-001	9.49092E-004	5	..........a	-327.66
	210	42.2	7.86065E-001	1.43193E-007	0.00000E+000	7.86200E-001	9.53692E-004	5	..........a	-327.66
	211	42.4	7.96106E-001	1.48327E-007	0.00000E+000	7.96200E-001	9.34392E-004	5	..........a	-327.66
CURVE2	TABLE
	Pt	T	Vf	Im	Vu	Sig	Ach	IERange	Over	Temp
	#	s	V vs. Ref.	A	V	V	V	#	bits	deg C
	212	42.6	7.89967E-001	1.29643E-007	0.00000E+000	7.90000E-001	9.38892E-004	5	..........a	-327.66
	213	42.8	7.79862E-001	1.13121E-007	0.00000E+000	7.80000E-001	9.41492E-004	5	..........a	-327.66
	214	43	7.69913E-001	1.01644E-007	0.00000E+000	7.70000E-001	9.53192E-004	5	..........a	-327.66
	215	43.2	7.59894E-001	9.30037E-008	0.00000E+000	7.60000E-001	9.49192E-004	5	..........a	-327.66
	216	43.4	7.49967E-001	8.61870E-008	0.00000E+000	7.50000E-001	9.39792E-004	5	..........a	-327.66
	217	43.6	7.39900E-001	8.05063E-008	0.00000E+000	7.40000E-001	9.44192E-004	5	..........a	-327.66
	218	43.8	7.29948E-001	7.57606E-008	0.00000E+000	7.30000E-001	9.40192E-004	5	..........a	-327.66
	219	44	7.19900E-001	7.16268E-008	0.00000E+000	7.20000E-001	9.40292E-004	5	..........a	-327.66
	220	44.2	7.09994E-001	6.79806E-008	0.00000E+000	7.10000E-001	9.51492E-004	5	..........a	-327.66
	221	44.4	6.99888E-001	6.46855E-008	0.00000E+000	7.00000E-001	9.46892E-004	5	..........a	-327.66
	222	44.6	6.89907E-001	6.16557E-008	0.00000E+000	6.90000E-001	9.53592E-004	5	..........a	-327.66
	223	44.8	6.79923E-001	5.88394E-008	0.00000E+000	6.80000E-001	9.42792E-004	5	..........a	-327.66
	224	45	6.69969E-001	5.62266E-008	0.00000E+000	6.70000E-001	9.54392E-004	5	..........a	-327.66
	225	45.2	6.59930E-001	5.37659E-008	0.00000E+000	6.60000E-001	9.38992E-004	5	..........a	-327.66
	226	45.4	6.49929E-001	5.14238E-008	0.00000E+000	6.50000E-001	9.44092E-004	5	..........a	-327.66
	227	45.6	6.39887E-001	4.92186E-008	0.00000E+000	6.40000E-001	9.38592E-004	5	..........a	-327.66
	228	45.8	6.30031E-001	4.70960E-008	0.00000E+000	6.30000E-001	9.39692E-004	5	..........a	-327.66
	229	46	6.19914E-001	4.50656E-008	0.00000E+000	6.20000E-001	9.46892E-004	5	..........a	-327.66
	230	46.2	6.09956E-001	4.31087E-008	0.00000E+000	6.10000E-001	9.43492E-004	5	..........a	-327.66
	231	46.4	5.99966E-001	4.12973E-008	0.00000E+000	6.00000E-001	9.46892E-004	5	..........a	-327.66
	232	46.6	5.90013E-001	3.95845E-008	0.00000E+000	5.90000E-001	9.48992E-004	5	..........a	-327.66
	233	46.8	5.79994E-001	3.79849E-008	0.00000E+000	5.80000E-001	9.40592E-004	5	..........a	-327.66
	234	47	5.69976E-001	3.64126E-008	0.00000E+000	5.70000E-001	9.53092E-004	5	..........a	-327.66
	235	47.2	5.59957E-001	3.48969E-008	0.00000E+000	5.60000E-001	9.61992E-004	5	..........a	-327.66
	236	47.4	5.50013E-001	3.33615E-008	0.00000E+000	5.50000E-001	9.63492E-004	5	..........a	-327.66
	237	47.6	5.39972E-001	3.18565E-008	0.00000E+000	5.40000E-001	9.47392E-004	5	..........a	-327.66
	238	47.8	5.29959E-001	3.04057E-008	0.00000E+000	5.30000E-001	9.53192E-004	5	..........a	-327.66
	239	48	5.19957E-001	2.90386E-008	0.00000E+000	5.20000E-001	9.55292E-004	5	..........a	-327.66
	240	48.2	5.09982E-001	2.77069E-008	0.00000E+000	5.10000E-001	9.50492E-004	5	..........a	-327.66
	241	48.4	5.00008E-001	2.64557E-008	0.00000E+000	5.00000E-001	9.42792E-004	5	..........a	-327.66
	242	48.6	4.89955E-001	2.51994E-008	0.00000E+000	4.90000E-001	9.53392E-004	5	..........a	-327.66
	243	48.8	4.79913E-001	2.39381E-008	0.00000E+000	4.80000E-001	9.49792E-004	5	..........a	-327.66
	244	49	4.70017E-001	2.26449E-008	0.00000E+000	4.70000E-001	9.47092E-004	5	..........a	-327.66
	245	49.2	4.59974E-001	2.12616E-008	0.00000E+000	4.60000E-001	9.41392E-004	5	..........a	-327.66
	246	49.4	4.49988E-001	1.99179E-008	0.00000E+000	4.50000E-001	9.52892E-004	5	..........a	-327.66
	247	49.6	4.39940E-001	1.85624E-008	0.00000E+000	4.40000E-001	9.62492E-004	5	..........a	-327.66
	248	49.8	4.29995E-001	1.71872E-008	0.00000E+000	4.30000E-001	9.60092E-004	5	..........a	-327.66
	249	50	4.20008E-001	1.57877E-008	0.00000E+000	4.20000E-001	9.61192E-004	5	..........a	-327.66
	250	50.2	4.09988E-001	1.44276E-008	0.00000E+000	4.10000E-001	9.55592E-004	5	..........a	-327.66
	251	50.4	3.99958E-001	1.30854E-008	0.00000E+000	4.00000E-001	9.45292E-004	5	..........a	-327.66
	252	50.6	3.90053E-001	1.17137E-008	0.00000E+000	3.90000E-001	9.63092E-004	5	..........a	-327.66
	253	50.8	3.80045E-001	1.03572E-008	0.00000E+000	3.80000E-001	9.25892E-004	5	..........a	-327.66
	254	51	3.70032E-001	8.96101E-009	0.00000E+000	3.70000E-001	9.55492E-004	5	..........a	-327.66
	255	51.2	3.59980E-001	7.62522E-009	0.00000E+000	3.60000E-001	9.59692E-004	5	..........a	-327.66
	256	51.4	3.50035E-001	6.25183E-009	0.00000E+000	3.50000E-001	9.65892E-004	5	..........a	-327.66
	257	51.6	3.40071E-001	4.84929E-009	0.00000E+000	3.40000E-001	9.39292E-004	5	..........a	-327.66
	258	51.8	3.30003E-001	3.50183E-009	0.00000E+000	3.30000E-001	9.57492E-004	5	..........a	-327.66
	259	52	3.20005E-001	2.09710E-009	0.00000E+000	3.20000E-001	9.63492E-004	5	..........a	-327.66
	260	52.2	3.10015E-001	6.29230E-010	0.00000E+000	3.10000E-001	9.64792E-004	5	..........a	-327.66
	261	52.4	3.00020E-001	-8.86677E-010	0.00000E+000	3.00000E-001	9.40492E-004	5	..........a	-327.66
	262	52.6	2.90023E-001	-2.41475E-009	0.00000E+000	2.90000E-001	9.48392E-004	5	..........a	-327.66
	263	52.8	2.80039E-001	-3.96008E-009	0.00000E+000	2.80000E-001	9.42392E-004	5	..........a	-327.66
	264	53	2.70098E-001	-5.68292E-009	0.00000E+000	2.70000E-001	9.38592E-004	5	..........a	-327.66
	265	53.2	2.60036E-001	-7.38084E-009	0.00000E+000	2.60000E-001	9.37792E-004	5	..........a	-327.66
	266	53.4	2.50062E-001	-9.18160E-009	0.00000E+000	2.50000E-001	9.54392E-004	5	..........a	-327.66
	267	53.6	2.40059E-001	-1.10701E-008	0.00000E+000	2.40000E-001	9.43692E-004	5	..........a	-327.66
	268	53.8	2.30023E-001	-1.29617E-008	0.00000E+000	2.30000E-001	9.66492E-004	5	..........a	-327.66
	269	54	2.20026E-001	-1.48403E-008	0.00000E+000	2.20000E-001	9.31692E-004	5	..........a	-327.66
	270	54.2	2.10038E-001	-1.67461E-008	0.00000E+000	2.10000E-001	9.50592E-004	5	..........a	-327.66
	271	54.4	2.00048E-001	-1.85499E-008	0.00000E+000	2.00000E-001	9.48992E-004	5	..........a	-327.66
	272	54.6	1.90113E-001	-2.02266E-008	0.00000E+000	1.90000E-001	9.41092E-004	5	..........a	-327.66
	273	54.8	1.80080E-001	-2.17376E-008	0.00000E+000	1.80000E-001	9.30292E-004	5	..........a	-327.66
	274	55	1.70086E-001	-2.29213E-008	0.00000E+000	1.70000E-001	9.50492E-004	5	..........a	-327.66
	275	55.2	1.60077E-001	-2.39006E-008	0.00000E+000	1.60000E-001	9.74192E-004	5	..........a	-327.66
	276	55.4	1.50111E-001	-2.45648E-008	0.00000E+000	1.50000E-001	9.54792E-004	5	..........a	-327.66
	277	55.6	1.40126E-001	-2.49628E-008	0.00000E+000	1.40000E-001	9.44892E-004	5	..........a	-327.66
	278	55.8	1.30080E-001	-2.51549E-008	0.00000E+000	1.30000E-001	9.52092E-004	5	..........a	-327.66
	279	56	1.20117E-001	-2.50823E-008	0.00000E+000	1.20000E-001	9.58892E-004	5	..........a	-327.66
	280	56.2	1.10124E-001	-2.48428E-008	0.00000E+000	1.10000E-001	9.55592E-004	5	..........a	-327.66
	281	56.4	1.00106E-001	-2.44843E-008	0.00000E+000	1.00000E-001	9.38692E-004	5	..........a	-327.66
	282	56.6	9.01196E-002	-2.40825E-008	0.00000E+000	9.00000E-002	9.39692E-004	5	..........a	-327.66
	283	56.8	8.00643E-002	-2.35857E-008	0.00000E+000	8.00000E-002	9.59392E-004	5	..........a	-327.66
	284	57	7.00478E-002	-2.32153E-008	0.00000E+000	7.00000E-002	9.53392E-004	5	..........a	-327.66
	285	57.2	6.01089E-002	-2.29130E-008	0.00000E+000	6.00000E-002	9.50292E-004	5	..........a	-327.66
	286	57.4	5.00560E-002	-2.27809E-008	0.00000E+000	5.00000E-002	9.53192E-004	5	..........a	-327.66
	287	57.6	4.00994E-002	-2.27758E-008	0.00000E+000	4.00000E-002	9.38792E-004	5	..........a	-327.66
	288	57.8	3.00668E-002	-2.29043E-008	0.00000E+000	3.00000E-002	9.45592E-004	5	..........a	-327.66
	289	58	2.01259E-002	-2.31325E-008	0.00000E+000	2.00000E-002	9.44992E-004	5	..........a	-327.66
	290	58.2	1.01086E-002	-2.34093E-008	0.00000E+000	1.00000E-002	9.45392E-004	5	..........a	-327.66
	291	58.4	6.72916E-005	-2.38539E-008	0.00000E+000	7.45058E-009	9.55092E-004	5	..........a	-327.66
	292	58.6	-9.88026E-003	-2.43933E-008	0.00000E+000	-1.00000E-002	9.48292E-004	5	..........a	-327.66
	293	58.8	-1.98989E-002	-2.50217E-008	0.00000E+000	-2.00000E-002	9.45892E-004	5	..........a	-327.66
	294	59	-2.99158E-002	-2.57236E-008	0.00000E+000	-3.00000E-002	9.42792E-004	5	..........a	-327.66
	295	59.2	-3.99157E-002	-2.64911E-008	0.00000E+000	-4.00000E-002	9.57892E-004	5	..........a	-327.66
	296	59.4	-4.99148E-002	-2.72822E-008	0.00000E+000	-5.00000E-002	9.53392E-004	5	..........a	-327.66
	297	59.6	-5.98914E-002	-2.81389E-008	0.00000E+000	-6.00000E-002	9.42692E-004	5	..........a	-327.66
	298	59.8	-6.98929E-002	-2.90357E-008	0.00000E+000	-7.00000E-002	9.59492E-004	5	..........a	-327.66
	299	60	-7.99337E-002	-2.99325E-008	0.00000E+000	-8.00000E-002	9.47592E-004	5	..........a	-327.66
	300	60.2	-8.99152E-002	-3.08789E-008	0.00000E+000	-9.00000E-002	9.40092E-004	5	..........a	-327.66
	301	60.4	-9.99000E-002	-3.17971E-008	0.00000E+000	-1.00000E-001	9.35492E-004	5	..........a	-327.66
	302	60.6	-1.09955E-001	-3.27375E-008	0.00000E+000	-1.10000E-001	9.54192E-004	5	..........a	-327.66
	303	60.8	-1.19931E-001	-3.36214E-008	0.00000E+000	-1.20000E-001	9.57592E-004	5	..........a	-327.66
	304	61	-1.29902E-001	-3.45103E-008	0.00000E+000	-1.30000E-001	9.50692E-004	5	..........a	-327.66
	305	61.2	-1.39946E-001	-3.54350E-008	0.00000E+000	-1.40000E-001	9.47692E-004	5	..........a	-327.66
	306	61.4	-1.49932E-001	-3.63332E-008	0.00000E+000	-1.50000E-001	9.48192E-004	5	..........a	-327.66
	307	61.6	-1.59949E-001	-3.72189E-008	0.00000E+000	-1.60000E-001	9.56692E-004	5	..........a	-327.66
	308	61.8	-1.69898E-001	-3.81050E-008	0.00000E+000	-1.70000E-001	9.39092E-004	5	..........a	-327.66
	309	62	-1.79890E-001	-3.90066E-008	0.00000E+000	-1.80000E-001	9.35792E-004	5	..........a	-327.66
	310	62.2	-1.89966E-001	-3.99085E-008	0.00000E+000	-1.90000E-001	9.41892E-004	5	..........a	-327.66
	311	62.4	-1.99914E-001	-4.08456E-008	0.00000E+000	-2.00000E-001	9.58092E-004	5	..........a	-327.66
	312	62.6	-2.09873E-001	-4.17703E-008	0.00000E+000	-2.10000E-001	9.46692E-004	5	..........a	-327.66
	313	62.8	-2.19870E-001	-4.26506E-008	0.00000E+000	-2.20000E-001	9.52592E-004	5	..........a	-327.66
	314	63	-2.29923E-001	-4.35572E-008	0.00000E+000	-2.30000E-001	9.45392E-004	5	..........a	-327.66
	315	63.2	-2.39845E-001	-4.44341E-008	0.00000E+000	-2.40000E-001	9.59892E-004	5	..........a	-327.66
	316	63.4	-2.49860E-001	-4.53489E-008	0.00000E+000	-2.50000E-001	9.43092E-004	5	..........a	-327.66
	317	63.6	-2.59837E-001	-4.62427E-008	0.00000E+000	-2.60000E-001	9.41692E-004	5	..........a	-327.66
	318	63.8	-2.69865E-001	-4.71418E-008	0.00000E+000	-2.70000E-001	9.43092E-004	5	..........a	-327.66
	319	64	-2.79910E-001	-4.80166E-008	0.00000E+000	-2.80000E-001	9.53192E-004	5	..........a	-327.66
	320	64.2	-2.89890E-001	-4.89278E-008	0.00000E+000	-2.90000E-001	9.53092E-004	5	..........a	-327.66
	321	64.4	-2.99849E-001	-4.98249E-008	0.00000E+000	-3.00000E-001	9.36192E-004	5	..........a	-327.66
	322	64.6	-3.09883E-001	-5.06975E-008	0.00000E+000	-3.10000E-001	9.52992E-004	5	..........a	-327.66
	323	64.8	-3.19860E-001	-5.16120E-008	0.00000E+000	-3.20000E-001	9.60592E-004	5	..........a	-327.66
	324	65	-3.29885E-001	-5.24851E-008	0.00000E+000	-3.30000E-001	9.72392E-004	5	..........a	-327.66
	325	65.2	-3.39830E-001	-5.33724E-008	0.00000E+000	-3.40000E-001	9.41192E-004	5	..........a	-327.66
	326	65.4	-3.49875E-001	-5.42725E-008	0.00000E+000	-3.50000E-001	9.47992E-004	5	..........a	-327.66
	327	65.6	-3.59864E-001	-5.51847E-008	0.00000E+000	-3.60000E-001	9.61192E-004	5	..........a	-327.66
	328	65.8	-3.69851E-001	-5.60737E-008	0.00000E+000	-3.70000E-001	9.49192E-004	5	..........a	-327.66
	329	66	-3.79831E-001	-5.69952E-008	0.00000E+000	-3.80000E-001	9.36992E-004	5	..........a	-327.66
	330	66.2	-3.89913E-001	-5.79261E-008	0.00000E+000	-3.90000E-001	9.57092E-004	5	..........a	-327.66
	331	66.4	-3.99878E-001	-5.88401E-008	0.00000E+000	-4.00000E-001	9.59092E-004	5	..........a	-327.66
	332	66.6	-4.09848E-001	-5.97450E-008	0.00000E+000	-4.10000E-001	9.54292E-004	5	..........a	-327.66
	333	66.8	-4.19818E-001	-6.06536E-008	0.00000E+000	-4.20000E-001	9.28892E-004	5	..........a	-327.66
	334	67	-4.29851E-001	-6.16144E-008	0.00000E+000	-4.30000E-001	9.45492E-004	5	..........a	-327.66
	335	67.2	-4.39828E-001	-6.25150E-008	0.00000E+000	-4.40000E-001	9.47992E-004	5	..........a	-327.66
	336	67.4	-4.49841E-001	-6.34264E-008	0.00000E+000	-4.50000E-001	9.36492E-004	5	..........a	-327.66
	337	67.6	-4.59822E-001	-6.43669E-008	0.00000E+000	-4.60000E-001	9.50492E-004	5	..........a	-327.66
	338	67.8	-4.69838E-001	-6.53122E-008	0.00000E+000	-4.70000E-001	9.53092E-004	5	..........a	-327.66
	339	68	-4.79826E-001	-6.62512E-008	0.00000E+000	-4.80000E-001	9.41792E-004	5	..........a	-327.66
	340	68.2	-4.89845E-001	-6.72090E-008	0.00000E+000	-4.90000E-001	9.66692E-004	5	..........a	-327.66
	341	68.4	-4.99830E-001	-6.81803E-008	0.00000E+000	-5.00000E-001	9.41492E-004	5	..........a	-327.66
	342	68.6	-5.09857E-001	-6.91735E-008	0.00000E+000	-5.10000E-001	9.47592E-004	5	..........a	-327.66
	343	68.8	-5.19833E-001	-7.01771E-008	0.00000E+000	-5.20000E-001	9.44992E-004	5	..........a	-327.66
	344	69	-5.29839E-001	-7.12428E-008	0.00000E+000	-5.30000E-001	9.60292E-004	5	..........a	-327.66
	345	69.2	-5.39794E-001	-7.23507E-008	0.00000E+000	-5.40000E-001	9.50792E-004	5	..........a	-327.66
	346	69.4	-5.49871E-001	-7.34969E-008	0.00000E+000	-5.50000E-001	9.42492E-004	5	..........a	-327.66
	347	69.6	-5.59874E-001	-7.46631E-008	0.00000E+000	-5.60000E-001	9.66192E-004	5	..........a	-327.66
	348	69.8	-5.69853E-001	-7.59474E-008	0.00000E+000	-5.70000E-001	9.65992E-004	5	..........a	-327.66
	349	70	-5.79823E-001	-7.73363E-008	0.00000E+000	-5.80000E-001	9.59992E-004	5	..........a	-327.66
	350	70.2	-5.89888E-001	-7.87906E-008	0.00000E+000	-5.90000E-001	9.58892E-004	5	..........a	-327.66
	351	70.4	-5.99909E-001	-8.02267E-008	0.00000E+000	-6.00000E-001	9.50792E-004	5	..........a	-327.66
	352	70.6	-5.89868E-001	-6.93868E-008	0.00000E+000	-5.90000E-001	9.44892E-004	5	..........a	-327.66
	353	70.8	-5.79830E-001	-6.23960E-008	0.00000E+000	-5.80000E-001	9.40392E-004	5	..........a	-327.66
[...]
	920	184.2	-5.09905E-001	-3.82560E-008	0.00000E+000	-5.10000E-001	9.55292E-004	5	..........a	-327.66
	921	184.4	-4.99840E-001	-3.57784E-008	0.00000E+000	-5.00000E-001	9.37992E-004	5	..........a	-327.66
	922	184.6	-4.89850E-001	-3.33810E-008	0.00000E+000	-4.90000E-001	9.55492E-004	5	..........a	-327.66
	923	184.8	-4.79832E-001	-3.11322E-008	0.00000E+000	-4.80000E-001	9.56492E-004	5	..........a	-327.66
	924	185	-4.69841E-001	-2.89857E-008	0.00000E+000	-4.70000E-001	9.43792E-004	5	..........a	-327.66
	925	185.2	-4.59840E-001	-2.69184E-008	0.00000E+000	-4.60000E-001	9.47292E-004	5	..........a	-327.66
	926	185.4	-4.49860E-001	-2.49376E-008	0.00000E+000	-4.50000E-001	9.39792E-004	5	..........a	-327.66
	927	185.6	-4.39919E-001	-2.30250E-008	0.00000E+000	-4.40000E-001	9.64892E-004	5	..........a	-327.66
	928	185.8	-4.29859E-001	-2.11838E-008	0.00000E+000	-4.30000E-001	9.53092E-004	5	..........a	-327.66
	929	186	-4.19842E-001	-1.93722E-008	0.00000E+000	-4.20000E-001	9.30892E-004	5	..........a	-327.66
	930	186.2	-4.09928E-001	-1.76417E-008	0.00000E+000	-4.10000E-001	9.61192E-004	5	..........a	-327.66
	931	186.4	-3.99868E-001	-1.59343E-008	0.00000E+000	-4.00000E-001	9.52292E-004	5	..........a	-327.66
	932	186.6	-3.89927E-001	-1.43005E-008	0.00000E+000	-3.90000E-001	9.82892E-004	5	..........a	-327.66
	933	186.8	-3.79879E-001	-1.26823E-008	0.00000E+000	-3.80000E-001	9.40292E-004	5	..........a	-327.66
	934	187	-3.69874E-001	-1.11105E-008	0.00000E+000	-3.70000E-001	9.41992E-004	5	..........a	-327.66
	935	187.2	-3.59872E-001	-9.58003E-009	0.00000E+000	-3.60000E-001	9.60292E-004	5	..........a	-327.66
	936	187.4	-3.49871E-001	-8.07729E-009	0.00000E+000	-3.50000E-001	9.43792E-004	5	..........a	-327.66
	937	187.6	-3.39874E-001	-6.62030E-009	0.00000E+000	-3.40000E-001	9.39592E-004	5	..........a	-327.66
	938	187.8	-3.29869E-001	-5.19960E-009	0.00000E+000	-3.30000E-001	9.66192E-004	5	..........a	-327.66
	939	188	-3.19889E-001	-3.76223E-009	0.00000E+000	-3.20000E-001	9.54092E-004	5	..........a	-327.66
	940	188.2	-3.09914E-001	-2.39537E-009	0.00000E+000	-3.10000E-001	9.42092E-004	5	..........a	-327.66
	941	188.4	-2.99881E-001	-1.05126E-009	0.00000E+000	-3.00000E-001	9.53092E-004	5	..........a	-327.66
	942	188.6	-2.89924E-001	2.03614E-010	0.00000E+000	-2.90000E-001	9.56292E-004	5	..........a	-327.66
	943	188.8	-2.79917E-001	1.51691E-009	0.00000E+000	-2.80000E-001	9.66092E-004	5	..........a	-327.66
	944	189	-2.69907E-001	2.79343E-009	0.00000E+000	-2.70000E-001	9.65292E-004	5	..........a	-327.66
	945	189.2	-2.59858E-001	4.05004E-009	0.00000E+000	-2.60000E-001	9.42692E-004	5	..........a	-327.66
	946	189.4	-2.49892E-001	5.25641E-009	0.00000E+000	-2.50000E-001	9.44592E-004	5	..........a	-327.66
	947	189.6	-2.39918E-001	6.49746E-009	0.00000E+000	-2.40000E-001	9.46892E-004	5	..........a	-327.66
	948	189.8	-2.30017E-001	7.69861E-009	0.00000E+000	-2.30000E-001	9.58192E-004	5	..........a	-327.66
	949	190	-2.19899E-001	8.89741E-009	0.00000E+000	-2.20000E-001	9.50992E-004	5	..........a	-327.66
	950	190.2	-2.09897E-001	1.00962E-008	0.00000E+000	-2.10000E-001	9.63192E-004	5	..........a	-327.66
	951	190.4	-1.99977E-001	1.12728E-008	0.00000E+000	-2.00000E-001	9.72692E-004	5	..........a	-327.66
	952	190.6	-1.90213E-001	1.24629E-008	0.00000E+000	-1.90000E-001	9.66492E-004	5	..........a	-327.66
	953	190.8	-1.79949E-001	1.36485E-008	0.00000E+000	-1.80000E-001	9.59492E-004	5	..........a	-327.66
	954	191	-1.69906E-001	1.48246E-008	0.00000E+000	-1.70000E-001	9.60892E-004	5	..........a	-327.66
	955	191.2	-1.59980E-001	1.59791E-008	0.00000E+000	-1.60000E-001	9.55692E-004	5	..........a	-327.66
	956	191.4	-1.49970E-001	1.71349E-008	0.00000E+000	-1.50000E-001	9.52292E-004	5	..........a	-327.66
	957	191.6	-1.39937E-001	1.82760E-008	0.00000E+000	-1.40000E-001	9.58792E-004	5	..........a	-327.66
	958	191.8	-1.29962E-001	1.94164E-008	0.00000E+000	-1.30000E-001	9.73192E-004	5	..........a	-327.66
	959	192	-1.19960E-001	2.05507E-008	0.00000E+000	-1.20000E-001	9.51392E-004	5	..........a	-327.66
	960	192.2	-1.10004E-001	2.16996E-008	0.00000E+000	-1.10000E-001	9.64292E-004	5	..........a	-327.66
	961	192.4	-9.99268E-002	2.28351E-008	0.00000E+000	-1.00000E-001	9.45892E-004	5	..........a	-327.66
	962	192.6	-8.99218E-002	2.39597E-008	0.00000E+000	-9.00000E-002	9.51992E-004	5	..........a	-327.66
	963	192.8	-7.99432E-002	2.51192E-008	0.00000E+000	-8.00000E-002	9.61492E-004	5	..........a	-327.66
	964	193	-6.99260E-002	2.62122E-008	0.00000E+000	-7.00000E-002	9.59992E-004	5	..........a	-327.66
	965	193.2	-5.99326E-002	2.73400E-008	0.00000E+000	-6.00000E-002	9.40192E-004	5	..........a	-327.66
	966	193.4	-4.99598E-002	2.84480E-008	0.00000E+000	-5.00000E-002	9.52792E-004	5	..........a	-327.66
	967	193.6	-3.99482E-002	2.95526E-008	0.00000E+000	-4.00000E-002	9.48192E-004	5	..........a	-327.66
	968	193.8	-3.00089E-002	3.06330E-008	0.00000E+000	-3.00000E-002	9.46992E-004	5	..........a	-327.66
	969	194	-1.99411E-002	3.17479E-008	0.00000E+000	-2.00000E-002	9.40392E-004	5	..........a	-327.66
	970	194.2	-9.88716E-003	3.28244E-008	0.00000E+000	-1.00000E-002	9.50592E-004	5	..........a	-327.66
	971	194.4	-2.42083E-005	3.39119E-008	0.00000E+000	7.45058E-009	9.84992E-004	5	..........a	-327.66
	972	194.6	1.00895E-002	3.50067E-008	0.00000E+000	1.00000E-002	9.51192E-004	5	..........a	-327.66
	973	194.8	2.01139E-002	3.60947E-008	0.00000E+000	2.00000E-002	9.73892E-004	5	..........a	-327.66
	974	195	3.00528E-002	3.71940E-008	0.00000E+000	3.00000E-002	9.58292E-004	5	..........a	-327.66
	975	195.2	3.99777E-002	3.83106E-008	0.00000E+000	4.00000E-002	9.52292E-004	5	..........a	-327.66
	976	195.4	5.00083E-002	3.94337E-008	0.00000E+000	5.00000E-002	9.65892E-004	5	..........a	-327.66
	977	195.6	6.00675E-002	4.05852E-008	0.00000E+000	6.00000E-002	9.53492E-004	5	..........a	-327.66
	978	195.8	7.00155E-002	4.17808E-008	0.00000E+000	7.00000E-002	9.60992E-004	5	..........a	-327.66
	979	196	7.99980E-002	4.29807E-008	0.00000E+000	8.00000E-002	9.75292E-004	5	..........a	-327.66
	980	196.2	9.00601E-002	4.41382E-008	0.00000E+000	9.00000E-002	9.46192E-004	5	..........a	-327.66
	981	196.4	1.00057E-001	4.53391E-008	0.00000E+000	1.00000E-001	9.56392E-004	5	..........a	-327.66
	982	196.6	1.10077E-001	4.65128E-008	0.00000E+000	1.10000E-001	9.47292E-004	5	..........a	-327.66
	983	196.8	1.20034E-001	4.76915E-008	0.00000E+000	1.20000E-001	9.44592E-004	5	..........a	-327.66
	984	197	1.29976E-001	4.88426E-008	0.00000E+000	1.30000E-001	9.70992E-004	5	..........a	-327.66
	985	197.2	1.40066E-001	5.00120E-008	0.00000E+000	1.40000E-001	9.47592E-004	5	..........a	-327.66
	986	197.4	1.50033E-001	5.10995E-008	0.00000E+000	1.50000E-001	9.54492E-004	5	..........a	-327.66
	987	197.6	1.60010E-001	5.22335E-008	0.00000E+000	1.60000E-001	9.65992E-004	5	..........a	-327.66
	988	197.8	1.70054E-001	5.33213E-008	0.00000E+000	1.70000E-001	9.52392E-004	5	..........a	-327.66
	989	198	1.80032E-001	5.43779E-008	0.00000E+000	1.80000E-001	9.40092E-004	5	..........a	-327.66
	990	198.2	1.90079E-001	5.54277E-008	0.00000E+000	1.90000E-001	9.57592E-004	5	..........a	-327.66
	991	198.4	1.99996E-001	5.64223E-008	0.00000E+000	2.00000E-001	9.62292E-004	5	..........a	-327.66
	992	198.6	2.09996E-001	5.74338E-008	0.00000E+000	2.10000E-001	9.66392E-004	5	..........a	-327.66
	993	198.8	2.19716E-001	5.83939E-008	0.00000E+000	2.20000E-001	9.42292E-004	5	..........a	-327.66
	994	199	2.29970E-001	5.93435E-008	0.00000E+000	2.30000E-001	9.65492E-004	5	..........a	-327.66
	995	199.2	2.40000E-001	6.02766E-008	0.00000E+000	2.40000E-001	9.77692E-004	5	..........a	-327.66
	996	199.4	2.49935E-001	6.11792E-008	0.00000E+000	2.50000E-001	9.65492E-004	5	..........a	-327.66
	997	199.6	2.60001E-001	6.21346E-008	0.00000E+000	2.60000E-001	9.54592E-004	5	..........a	-327.66
	998	199.8	2.70064E-001	6.30591E-008	0.00000E+000	2.70000E-001	9.51592E-004	5	..........a	-327.66
	999	200	2.79930E-001	6.39933E-008	0.00000E+000	2.80000E-001	9.70392E-004	5	..........a	-327.66
	1000	200.2	2.90000E-001	6.49481E-008	0.00000E+000	2.90000E-001	9.57892E-004	5	..........a	-327.66
	1001	200.4	3.00007E-001	6.58739E-008	0.00000E+000	3.00000E-001	9.44892E-004	5	..........a	-327.66
	1002	200.6	3.10027E-001	6.68496E-008	0.00000E+000	3.10000E-001	9.66092E-004	5	..........a	-327.66
	1003	200.8	3.19999E-001	6.78608E-008	0.00000E+000	3.20000E-001	9.66492E-004	5	..........a	-327.66
	1004	201	3.29962E-001	6.88664E-008	0.00000E+000	3.30000E-001	9.64092E-004	5	..........a	-327.66
	1005	201.2	3.40015E-001	6.99114E-008	0.00000E+000	3.40000E-001	9.50092E-004	5	..........a	-327.66
	1006	201.4	3.50020E-001	7.09471E-008	0.00000E+000	3.50000E-001	9.69592E-004	5	..........a	-327.66
	1007	201.6	3.59974E-001	7.20000E-008	0.00000E+000	3.60000E-001	9.76092E-004	5	..........a	-327.66
	1008	201.8	3.70025E-001	7.31165E-008	0.00000E+000	3.70000E-001	9.45992E-004	5	..........a	-327.66
	1009	202	3.79994E-001	7.42113E-008	0.00000E+000	3.80000E-001	9.45292E-004	5	..........a	-327.66
	1010	202.2	3.90019E-001	7.53258E-008	0.00000E+000	3.90000E-001	9.42592E-004	5	..........a	-327.66
	1011	202.4	3.99999E-001	7.64849E-008	0.00000E+000	4.00000E-001	9.52592E-004	5	..........a	-327.66
	1012	202.6	4.09990E-001	7.76684E-008	0.00000E+000	4.10000E-001	9.66992E-004	5	..........a	-327.66
	1013	202.8	4.19970E-001	7.88873E-008	0.00000E+000	4.20000E-001	9.52992E-004	5	..........a	-327.66
	1014	203	4.29977E-001	8.01530E-008	0.00000E+000	4.30000E-001	9.59992E-004	5	..........a	-327.66
	1015	203.2	4.39935E-001	8.14989E-008	0.00000E+000	4.40000E-001	9.63992E-004	5	..........a	-327.66
	1016	203.4	4.49786E-001	8.28832E-008	0.00000E+000	4.50000E-001	9.55992E-004	5	..........a	-327.66
	1017	203.6	4.59960E-001	8.42844E-008	0.00000E+000	4.60000E-001	9.62392E-004	5	..........a	-327.66
	1018	203.8	4.69995E-001	8.56928E-008	0.00000E+000	4.70000E-001	9.63092E-004	5	..........a	-327.66
	1019	204	4.79914E-001	8.71095E-008	0.00000E+000	4.80000E-001	9.66292E-004	5	..........a	-327.66
	1020	204.2	4.89924E-001	8.86234E-008	0.00000E+000	4.90000E-001	9.56392E-004	5	..........a	-327.66
	1021	204.4	4.99971E-001	9.01313E-008	0.00000E+000	5.00000E-001	9.45092E-004	5	..........a	-327.66
	1022	204.6	5.09986E-001	9.16962E-008	0.00000E+000	5.10000E-001	9.57492E-004	5	..........a	-327.66
	1023	204.8	5.19943E-001	9.32198E-008	0.00000E+000	5.20000E-001	9.59792E-004	5	..........a	-327.66
	1024	205	5.29912E-001	9.47641E-008	0.00000E+000	5.30000E-001	9.57992E-004	5	..........a	-327.66
	1025	205.2	5.39950E-001	9.62493E-008	0.00000E+000	5.40000E-001	9.44192E-004	5	..........a	-327.66
	1026	205.4	5.49974E-001	9.76803E-008	0.00000E+000	5.50000E-001	9.47992E-004	5	..........a	-327.66
	1027	205.6	5.59931E-001	9.91608E-008	0.00000E+000	5.60000E-001	9.59692E-004	5	..........a	-327.66
	1028	205.8	5.69950E-001	1.00553E-007	0.00000E+000	5.70000E-001	9.60292E-004	5	..........a	-327.66
	1029	206	5.79938E-001	1.01882E-007	0.00000E+000	5.80000E-001	9.39192E-004	5	..........a	-327.66
	1030	206.2	5.89995E-001	1.03221E-007	0.00000E+000	5.90000E-001	9.63292E-004	5	..........a	-327.66
	1031	206.4	5.99933E-001	1.04529E-007	0.00000E+000	6.00000E-001	9.53492E-004	5	..........a	-327.66
	1032	206.6	6.09937E-001	1.05926E-007	0.00000E+000	6.10000E-001	9.53492E-004	5	..........a	-327.66
	1033	206.8	6.19900E-001	1.07258E-007	0.00000E+000	6.20000E-001	9.42592E-004	5	..........a	-327.66
	1034	207	6.29997E-001	1.08509E-007	0.00000E+000	6.30000E-001	9.50392E-004	5	..........a	-327.66
	1035	207.2	6.39872E-001	1.09884E-007	0.00000E+000	6.40000E-001	9.57392E-004	5	..........a	-327.66
	1036	207.4	6.49907E-001	1.11284E-007	0.00000E+000	6.50000E-001	9.66292E-004	5	..........a	-327.66
	1037	207.6	6.59903E-001	1.12702E-007	0.00000E+000	6.60000E-001	9.51292E-004	5	..........a	-327.66
	1038	207.8	6.69954E-001	1.14237E-007	0.00000E+000	6.70000E-001	9.69692E-004	5	..........a	-327.66
	1039	208	6.79896E-001	1.15790E-007	0.00000E+000	6.80000E-001	9.48292E-004	5	..........a	-327.66
	1040	208.2	6.89907E-001	1.17410E-007	0.00000E+000	6.90000E-001	9.65992E-004	5	..........a	-327.66
	1041	208.4	6.99874E-001	1.19163E-007	0.00000E+000	7.00000E-001	9.61792E-004	5	..........a	-327.66
	1042	208.6	7.09958E-001	1.21056E-007	0.00000E+000	7.10000E-001	9.73492E-004	5	..........a	-327.66
	1043	208.8	7.19876E-001	1.23072E-007	0.00000E+000	7.20000E-001	9.66092E-004	5	..........a	-327.66
	1044	209	7.29874E-001	1.25316E-007	0.00000E+000	7.30000E-001	9.66692E-004	5	..........a	-327.66
	1045	209.2	7.39900E-001	1.27814E-007	0.00000E+000	7.40000E-001	9.45592E-004	5	..........a	-327.66
	1046	209.4	7.49956E-001	1.30641E-007	0.00000E+000	7.50000E-001	9.62492E-004	5	..........a	-327.66
	1047	209.6	7.59902E-001	1.34542E-007	0.00000E+000	7.60000E-001	9.62492E-004	5	..........a	-327.66
	1048	209.8	7.69898E-001	1.38134E-007	0.00000E+000	7.70000E-001	9.73892E-004	5	..........a	-327.66
	1049	210	7.79853E-001	1.42142E-007	0.00000E+000	7.80000E-001	9.67492E-004	5	..........a	-327.66
	1050	210.2	7.89952E-001	1.46789E-007	0.00000E+000	7.90000E-001	9.50492E-004	5	..........a	-327.66
	1051	210.4	7.99851E-001	1.52034E-007	0.00000E+000	8.00000E-001	9.66692E-004	5	..........a	-327.66
CURVE5	TABLE
	Pt	T	Vf	Im	Vu	Sig	Ach	IERange	Over	Temp
	#	s	V vs. Ref.	A	V	V	V	#	bits	deg C
	1052	210.6	7.89964E-001	1.28520E-007	0.00000E+000	7.90000E-001	9.72392E-004	5	..........a	-327.66
	1053	210.8	7.79880E-001	1.13682E-007	0.00000E+000	7.80000E-001	9.48992E-004	5	..........a	-327.66
	1054	211	7.69915E-001	1.03024E-007	0.00000E+000	7.70000E-001	9.60392E-004	5	..........a	-327.66
	1055	211.2	7.59880E-001	9.48519E-008	0.00000E+000	7.60000E-001	9.62492E-004	5	..........a	-327.66
	1056	211.4	7.49976E-001	8.83267E-008	0.00000E+000	7.50000E-001	9.54192E-004	5	..........a	-327.66
	1057	211.6	7.39894E-001	8.28692E-008	0.00000E+000	7.40000E-001	9.51392E-004	5	..........a	-327.66
	1058	211.8	7.29986E-001	7.80916E-008	0.00000E+000	7.30000E-001	9.62392E-004	5	..........a	-327.66
	1059	212	7.19907E-001	7.41033E-008	0.00000E+000	7.20000E-001	9.75092E-004	5	..........a	-327.66
	1060	212.2	7.09982E-001	7.04672E-008	0.00000E+000	7.10000E-001	9.61592E-004	5	..........a	-327.66
	1061	212.4	6.99904E-001	6.71444E-008	0.00000E+000	7.00000E-001	9.43792E-004	5	..........a	-327.66
	1062	212.6	6.89885E-001	6.40639E-008	0.00000E+000	6.90000E-001	9.58992E-004	5	..........a	-327.66
	1063	212.8	6.79960E-001	6.11370E-008	0.00000E+000	6.80000E-001	9.48092E-004	5	..........a	-327.66
	1064	213	6.69965E-001	5.84493E-008	0.00000E+000	6.70000E-001	9.55092E-004	5	..........a	-327.66
	1065	213.2	6.59916E-001	5.59292E-008	0.00000E+000	6.60000E-001	9.46492E-004	5	..........a	-327.66
	1066	213.4	6.49885E-001	5.36177E-008	0.00000E+000	6.50000E-001	9.57292E-004	5	..........a	-327.66
	1067	213.6	6.39892E-001	5.13495E-008	0.00000E+000	6.40000E-001	9.66092E-004	5	..........a	-327.66
	1068	213.8	6.30001E-001	4.91967E-008	0.00000E+000	6.30000E-001	9.62692E-004	5	..........a	-327.66
	1069	214	6.19924E-001	4.72134E-008	0.00000E+000	6.20000E-001	9.50692E-004	5	..........a	-327.66
	1070	214.2	6.09963E-001	4.52261E-008	0.00000E+000	6.10000E-001	9.66192E-004	5	..........a	-327.66
	1071	214.4	5.99945E-001	4.33840E-008	0.00000E+000	6.00000E-001	9.46592E-004	5	..........a	-327.66
	1072	214.6	5.90006E-001	4.16976E-008	0.00000E+000	5.90000E-001	9.49992E-004	5	..........a	-327.66
	1073	214.8	5.79962E-001	4.00433E-008	0.00000E+000	5.80000E-001	9.38592E-004	5	..........a	-327.66
	1074	215	5.69951E-001	3.84681E-008	0.00000E+000	5.70000E-001	9.46192E-004	5	..........a	-327.66
	1075	215.2	5.59938E-001	3.69010E-008	0.00000E+000	5.60000E-001	9.57192E-004	5	..........a	-327.66
	1076	215.4	5.50010E-001	3.53174E-008	0.00000E+000	5.50000E-001	9.50392E-004	5	..........a	-327.66
	1077	215.6	5.39957E-001	3.37870E-008	0.00000E+000	5.40000E-001	9.50592E-004	5	..........a	-327.66
	1078	215.8	5.29980E-001	3.23398E-008	0.00000E+000	5.30000E-001	9.60992E-004	5	..........a	-327.66
	1079	216	5.19974E-001	3.10624E-008	0.00000E+000	5.20000E-001	9.64792E-004	5	..........a	-327.66
	1080	216.2	5.09990E-001	2.98467E-008	0.00000E+000	5.10000E-001	9.69792E-004	5	..........a	-327.66
	1081	216.4	5.00046E-001	2.85052E-008	0.00000E+000	5.00000E-001	9.35892E-004	5	..........a	-327.66
	1082	216.6	4.89956E-001	2.71988E-008	0.00000E+000	4.90000E-001	9.54092E-004	5	..........a	-327.66
	1083	216.8	4.79927E-001	2.58286E-008	0.00000E+000	4.80000E-001	9.63392E-004	5	..........a	-327.66
	1084	217	4.70022E-001	2.44677E-008	0.00000E+000	4.70000E-001	9.64792E-004	5	..........a	-327.66
	1085	217.2	4.59975E-001	2.30691E-008	0.00000E+000	4.60000E-001	9.62992E-004	5	..........a	-327.66
	1086	217.4	4.49785E-001	2.16283E-008	0.00000E+000	4.50000E-001	9.61092E-004	5	..........a	-327.66
	1087	217.6	4.39949E-001	2.01937E-008	0.00000E+000	4.40000E-001	9.60992E-004	5	..........a	-327.66
	1088	217.8	4.29985E-001	1.88343E-008	0.00000E+000	4.30000E-001	9.57392E-004	5	..........a	-327.66
	1089	218	4.19995E-001	1.73559E-008	0.00000E+000	4.20000E-001	9.58392E-004	5	..........a	-327.66
	1090	218.2	4.09978E-001	1.58966E-008	0.00000E+000	4.10000E-001	9.72892E-004	5	..........a	-327.66
	1091	218.4	3.99978E-001	1.44310E-008	0.00000E+000	4.00000E-001	9.78492E-004	5	..........a	-327.66
	1092	218.6	3.90019E-001	1.29826E-008	0.00000E+000	3.90000E-001	9.54992E-004	5	..........a	-327.66
	1093	218.8	3.80037E-001	1.15808E-008	0.00000E+000	3.80000E-001	9.41392E-004	5	..........a	-327.66
	1094	219	3.70035E-001	1.01380E-008	0.00000E+000	3.70000E-001	9.68892E-004	5	..........a	-327.66
	1095	219.2	3.59961E-001	8.64380E-009	0.00000E+000	3.60000E-001	9.71992E-004	5	..........a	-327.66
	1096	219.4	3.49995E-001	7.16614E-009	0.00000E+000	3.50000E-001	9.68492E-004	5	..........a	-327.66
	1097	219.6	3.40068E-001	5.71441E-009	0.00000E+000	3.40000E-001	9.55792E-004	5	..........a	-327.66
	1098	219.8	3.30010E-001	4.23111E-009	0.00000E+000	3.30000E-001	9.62192E-004	5	..........a	-327.66
	1099	220	3.20010E-001	2.70824E-009	0.00000E+000	3.20000E-001	9.54492E-004	5	..........a	-327.66
	1100	220.2	3.10029E-001	1.18461E-009	0.00000E+000	3.10000E-001	9.63792E-004	5	..........a	-327.66
	1101	220.4	3.00064E-001	-4.54390E-010	0.00000E+000	3.00000E-001	9.61392E-004	5	..........a	-327.66
	1102	220.6	2.90012E-001	-2.10165E-009	0.00000E+000	2.90000E-001	9.76592E-004	5	..........a	-327.66
	1103	220.8	2.80042E-001	-3.77699E-009	0.00000E+000	2.80000E-001	9.72892E-004	5	..........a	-327.66
	1104	221	2.70100E-001	-5.53215E-009	0.00000E+000	2.70000E-001	9.52992E-004	5	..........a	-327.66
	1105	221.2	2.60058E-001	-7.32304E-009	0.00000E+000	2.60000E-001	9.45092E-004	5	..........a	-327.66
	1106	221.4	2.50059E-001	-9.20538E-009	0.00000E+000	2.50000E-001	9.64792E-004	5	..........a	-327.66
	1107	221.6	2.40058E-001	-1.11506E-008	0.00000E+000	2.40000E-001	9.52992E-004	5	..........a	-327.66
	1108	221.8	2.30022E-001	-1.31128E-008	0.00000E+000	2.30000E-001	9.60392E-004	5	..........a	-327.66
	1109	222	2.20018E-001	-1.50175E-008	0.00000E+000	2.20000E-001	9.41392E-004	5	..........a	-327.66
	1110	222.2	2.10027E-001	-1.68994E-008	0.00000E+000	2.10000E-001	9.42192E-004	5	..........a	-327.66
	1111	222.4	2.00072E-001	-1.86793E-008	0.00000E+000	2.00000E-001	9.61392E-004	5	..........a	-327.66
	1112	222.6	1.90115E-001	-2.02665E-008	0.00000E+000	1.90000E-001	9.57992E-004	5	..........a	-327.66
	1113	222.8	1.80102E-001	-2.16786E-008	0.00000E+000	1.80000E-001	9.37392E-004	5	..........a	-327.66
	1114	223	1.70087E-001	-2.27708E-008	0.00000E+000	1.70000E-001	9.51792E-004	5	..........a	-327.66
	1115	223.2	1.60069E-001	-2.36224E-008	0.00000E+000	1.60000E-001	9.66792E-004	5	..........a	-327.66
	1116	223.4	1.50112E-001	-2.41795E-008	0.00000E+000	1.50000E-001	9.66692E-004	5	..........a	-327.66
	1117	223.6	1.40128E-001	-2.45247E-008	0.00000E+000	1.40000E-001	9.44492E-004	5	..........a	-327.66
	1118	223.8	1.30098E-001	-2.46573E-008	0.00000E+000	1.30000E-001	9.60792E-004	5	..........a	-327.66
	1119	224	1.20098E-001	-2.46130E-008	0.00000E+000	1.20000E-001	9.59492E-004	5	..........a	-327.66
	1120	224.2	1.10134E-001	-2.43944E-008	0.00000E+000	1.10000E-001	9.53092E-004	5	..........a	-327.66