File: data/raw/batch_data/20240424_ZV_GM0016_HL03_E12_CV50K.DTA
EXPLAIN
TAG	CV
TITLE	LABEL	Cyclic Voltammetry	Test &Identifier
DATE	LABEL	4/24/2024	Date
TIME	LABEL	19:22:53	Time
NOTES	NOTES	1	&Notes...

PSTAT	PSTAT	REF600P-43058	Potentiostat
VINIT	POTEN	0.00000E+000	T	Initial &E (V)
VLIMIT1	POTEN	-6.00000E-001	F	Scan Limit &1 (V)
VLIMIT2	POTEN	8.00000E-001	F	Scan Limit &2 (V)
VFINAL	POTEN	0.00000E+000	T	Final &E (V)
SCANRATE	QUANT	4.99999E+004	&Scan Rate (mV/s)
STEPSIZE	QUANT	1.00000E+001	St&ep Size (mV)
CYCLES	IQUANT	10	C&ycles (#)
IMODE	SELECTOR	0	I/E Range &Mode
IRANGE	QUANT	1.00000E-005	&Max Current (mA)
AREA	QUANT	1.00000E+000	Electrode &Area (cm^2)
ELECTRODETYPE	SELECTOR	0	Electrode Type
STRIPPING	TOGGLE	F	Used for Stripping
POLARITY	TOGGLE	F	Signal Polarity
CONDIT	TWOPARAM	F	1.50000E+001	0.00000E+000	Conditionin&g	Time(s)	E(V)
DELAY	TWOPARAM	T	1.00000E+001	0.00000E+000	Init. De&lay	Time(s)	Stab.(mV/s)
EQDELAY	QUANT	1.00000E+001	Equil. &Time (s)
IRCOMP	SELECTOR	0	IRCom&p
PFCOR	QUANT	5.00000E+001	PF Corr. (ohm)
SAMPLINGMODE	SELECTOR	1	Sampling &Mode
OCVCURVE	TABLE	39
	Pt	T	Vf	Vm	Ach	Over	Temp
	#	s	V vs. Ref.	V	V	bits	deg C
	0	0.258333	2.61504E-002	2.61504E-002	2.39726E-004	..........a	-327.66
	1	0.516667	2.61437E-002	2.57994E-002	2.44259E-004	..........a	-327.66
	2	0.775	2.61023E-002	2.54505E-002	2.48259E-004	..........a	-327.66
	3	1.03333	2.59836E-002	2.51047E-002	2.46259E-004	..........a	-327.66
	4	1.29167	2.57684E-002	2.47672E-002	2.44459E-004	..........a	-327.66
	5	1.55	2.54766E-002	2.44141E-002	2.43126E-004	..........a	-327.66
	6	1.80833	2.51441E-002	2.40914E-002	2.37192E-004	..........a	-327.66
	7	2.06667	2.47987E-002	2.37468E-002	2.35459E-004	..........a	-327.66
	8	2.325	2.44538E-002	2.34093E-002	2.37659E-004	..........a	-327.66
	9	2.58333	2.41128E-002	2.30797E-002	2.50726E-004	..........a	-327.66
	10	2.84167	2.37749E-002	2.27537E-002	2.33792E-004	..........a	-327.66
	11	3.1	2.34399E-002	2.24215E-002	2.54926E-004	..........a	-327.66
	12	3.35833	2.31076E-002	2.20941E-002	2.27592E-004	..........a	-327.66
	13	3.61667	2.27774E-002	2.17655E-002	2.37726E-004	..........a	-327.66
	14	3.875	2.24482E-002	2.14397E-002	2.53459E-004	..........a	-327.66
	15	4.13333	2.21200E-002	2.11242E-002	2.40459E-004	..........a	-327.66
	16	4.39167	2.17937E-002	2.08112E-002	2.27392E-004	..........a	-327.66
	17	4.65	2.14706E-002	2.04974E-002	2.38592E-004	..........a	-327.66
	18	4.90833	2.11515E-002	2.01825E-002	2.27326E-004	..........a	-327.66
	19	5.16667	2.08355E-002	1.98712E-002	2.47792E-004	..........a	-327.66
	20	5.425	2.05213E-002	1.95591E-002	2.60326E-004	..........a	-327.66
	21	5.68333	2.02082E-002	1.92534E-002	2.38326E-004	..........a	-327.66
	22	5.94167	1.98963E-002	1.89463E-002	2.34792E-004	..........a	-327.66
	23	6.2	1.95861E-002	1.86417E-002	2.36326E-004	..........a	-327.66
	24	6.45833	1.92778E-002	1.83368E-002	2.51192E-004	..........a	-327.66
	25	6.71667	1.89711E-002	1.80360E-002	2.50792E-004	..........a	-327.66
	26	6.975	1.86660E-002	1.77351E-002	2.58659E-004	..........a	-327.66
	27	7.23333	1.83623E-002	1.74322E-002	2.45192E-004	..........a	-327.66
	28	7.49167	1.80598E-002	1.71367E-002	2.33392E-004	..........a	-327.66
	29	7.75	1.77586E-002	1.68426E-002	2.57859E-004	..........a	-327.66
	30	8.00833	1.74589E-002	1.65448E-002	2.51326E-004	..........a	-327.66
	31	8.26667	1.71611E-002	1.62519E-002	2.37659E-004	..........a	-327.66
	32	8.525	1.68649E-002	1.59676E-002	2.39459E-004	..........a	-327.66
	33	8.78333	1.65706E-002	1.56808E-002	2.46726E-004	..........a	-327.66
	34	9.04167	1.62791E-002	1.53956E-002	2.37926E-004	..........a	-327.66
	35	9.3	1.59902E-002	1.51073E-002	2.48326E-004	..........a	-327.66
	36	9.5583	1.57031E-002	1.48244E-002	2.41392E-004	..........a	-327.66
	37	9.8167	1.54170E-002	1.45447E-002	2.43726E-004	..........a	-327.66
	38	10.075	1.51321E-002	1.42662E-002	2.45059E-004	..........a	-327.66
EOC	QUANT	0.0151321	Open Circuit (V)
PSTATMODEL	IQUANT	7	Pstat Model
PSTATSECTION	LABEL	REF600P-43058	Pstat Section
PSTATSERIALNO	LABEL	43058	Pstat Serial Number
CTRLMODE	IQUANT	1	Control Mode
ELECTROMETER	IQUANT	0	RE=0 or CS=1
IESTAB	IQUANT	2	I/E Stability
CASPEED	IQUANT	4	Control Amp Speed
CONVENTION	IQUANT	1	Current Convention
ICHRANGE	IQUANT	2	Ich Range
ICHRANGEMODE	TOGGLE	F	Ich Auto Range
ICHOFFSETENABLE	TOGGLE	F	Ich Offset Enable
ICHOFFSET	QUANT	0	Ich Offset (V)
ICHFILTER	IQUANT	1	Ich Filter
VCHRANGE	IQUANT	2	Vch Range
VCHRANGEMODE	TOGGLE	F	Vch Auto Range
VCHOFFSETENABLE	TOGGLE	F	Vch Offset Enable
VCHOFFSET	QUANT	0	Vch Offset (V)
VCHFILTER	IQUANT	1	Vch Filter
ACHRANGE	IQUANT	2	Ach Range
ACHOFFSETENABLE	TOGGLE	F	Ach Offset Enable
ACHOFFSET	QUANT	0	Ach Offset (V)
ACHFILTER	IQUANT	1	Ach Filter
IERANGELOWERLIMIT	IQUANT	1	I/E Range Lower Limit
IERANGEMODE	TOGGLE	T	I/E AutoRange
IERANGE	IQUANT	4	I/E Range
POSFEEDENABLE	TOGGLE	F	Positive Feedback IR Comp
POSFEEDRESISTANCE	QUANT	0	Positive Feedback Resistance (ohm)
ACHSELECT	IQUANT	4	Ach Select
SENSECABLEID	IQUANT	7	Sense Cable ID
PWRCABLEID	IQUANT	7	Power Cable ID
DCCALDATE	LABEL	3/22/2024	DC Calibration Date
ACCALDATE	LABEL	3/22/2024	AC Calibration Date
THERMOSELECT	IQUANT	1	Thermo Select
FRAMEWORKVERSION	LABEL	7.8.4	Framework Version
INSTRUMENTVERSION	LABEL	4.42	Instrument Version
CURVE1	TABLE
	Pt	T	Vf	Im	Vu	Sig	Ach	IERange	Over	Temp
	#	s	V vs. Ref.	A	V	V	V	#	bits	deg C
	0	0.0002	1.43971E-002	2.05000E-007	0.00000E+000	1.51500E-002	8.15923E-005	8	..........a	-327.66
	1	0.0004	5.24711E-003	-9.85046E-007	0.00000E+000	5.15001E-003	8.15923E-005	8	..........a	-327.66
	2	0.0006	-4.95289E-003	-1.76508E-006	0.00000E+000	-4.84999E-003	8.15923E-005	8	..........a	-327.66
	3	0.0008	-1.48529E-002	-2.40510E-006	0.00000E+000	-1.48500E-002	8.15923E-005	8	..........a	-327.66
	4	0.001	-2.48529E-002	-2.95512E-006	0.00000E+000	-2.48500E-002	8.15923E-005	8	..........a	-327.66
	5	0.0012	-3.48529E-002	-3.33514E-006	0.00000E+000	-3.48500E-002	8.15923E-005	8	..........a	-327.66
	6	0.0014	-4.48529E-002	-3.71515E-006	0.00000E+000	-4.48500E-002	8.15923E-005	8	..........a	-327.66
	7	0.0016	-5.48529E-002	-4.10516E-006	0.00000E+000	-5.48500E-002	8.15923E-005	8	..........a	-327.66
	8	0.0018	-6.48529E-002	-4.39518E-006	0.00000E+000	-6.48500E-002	8.15923E-005	8	..........a	-327.66
	9	0.002	-7.48529E-002	-4.64519E-006	0.00000E+000	-7.48500E-002	8.15923E-005	8	..........a	-327.66
	10	0.0022	-8.46529E-002	-4.89520E-006	0.00000E+000	-8.48500E-002	8.15923E-005	8	..........a	-327.66
	11	0.0024	-9.47529E-002	-5.09520E-006	0.00000E+000	-9.48500E-002	8.15923E-005	8	..........a	-327.66
	12	0.0026	-1.04853E-001	-5.31521E-006	0.00000E+000	-1.04850E-001	8.15923E-005	8	..........a	-327.66
	13	0.0028	-1.14753E-001	-5.55522E-006	0.00000E+000	-1.14850E-001	8.15923E-005	8	..........a	-327.66
	14	0.003	-1.24953E-001	-5.70523E-006	0.00000E+000	-1.24850E-001	8.15923E-005	8	..........a	-327.66
	15	0.0032	-1.34953E-001	-5.83523E-006	0.00000E+000	-1.34850E-001	8.15923E-005	8	..........a	-327.66
	16	0.0034	-1.44853E-001	-6.05524E-006	0.00000E+000	-1.44850E-001	8.15923E-005	8	..........a	-327.66
	17	0.0036	-1.54853E-001	-6.16524E-006	0.00000E+000	-1.54850E-001	8.15923E-005	8	..........a	-327.66
	18	0.0038	-1.64953E-001	-6.35525E-006	0.00000E+000	-1.64850E-001	8.15923E-005	8	..........a	-327.66
	19	0.004	-1.74853E-001	-6.47526E-006	0.00000E+000	-1.74850E-001	8.15923E-005	8	..........a	-327.66
	20	0.0042	-1.84853E-001	-6.57526E-006	0.00000E+000	-1.84850E-001	8.15923E-005	8	..........a	-327.66
	21	0.0044	-1.94753E-001	-6.71527E-006	0.00000E+000	-1.94850E-001	8.15923E-005	8	..........a	-327.66
	22	0.0046	-2.04753E-001	-6.84527E-006	0.00000E+000	-2.04850E-001	8.15923E-005	8	..........a	-327.66
	23	0.0048	-2.14853E-001	-6.93527E-006	0.00000E+000	-2.14850E-001	8.15923E-005	8	..........a	-327.66
	24	0.005	-2.24853E-001	-7.09528E-006	0.00000E+000	-2.24850E-001	8.15923E-005	8	..........a	-327.66
	25	0.0052	-2.34853E-001	-7.21528E-006	0.00000E+000	-2.34850E-001	8.15923E-005	8	..........a	-327.66
	26	0.0054	-2.44853E-001	-7.33529E-006	0.00000E+000	-2.44850E-001	8.15923E-005	8	..........a	-327.66
	27	0.0056	-2.54753E-001	-7.44529E-006	0.00000E+000	-2.54850E-001	8.15923E-005	8	..........a	-327.66
	28	0.0058	-2.64753E-001	-7.55530E-006	0.00000E+000	-2.64850E-001	8.15923E-005	8	..........a	-327.66
	29	0.006	-2.74853E-001	-7.71530E-006	0.00000E+000	-2.74850E-001	8.15923E-005	8	..........a	-327.66
	30	0.0062	-2.84853E-001	-7.84531E-006	0.00000E+000	-2.84850E-001	-2.18408E-004	8	..........a	-327.66
	31	0.0064	-2.94853E-001	-7.95531E-006	0.00000E+000	-2.94850E-001	8.15923E-005	8	..........a	-327.66
	32	0.0066	-3.04753E-001	-8.09532E-006	0.00000E+000	-3.04850E-001	8.15923E-005	8	..........a	-327.66
	33	0.0068	-3.14753E-001	-8.15532E-006	0.00000E+000	-3.14850E-001	8.15923E-005	8	..........a	-327.66
	34	0.007	-3.24753E-001	-8.31533E-006	0.00000E+000	-3.24850E-001	8.15923E-005	8	..........a	-327.66
	35	0.0072	-3.34753E-001	-8.47533E-006	0.00000E+000	-3.34850E-001	8.15923E-005	8	..........a	-327.66
	36	0.0074	-3.44653E-001	-8.59534E-006	0.00000E+000	-3.44850E-001	8.15923E-005	8	..........a	-327.66
	37	0.0076	-3.54753E-001	-8.73534E-006	0.00000E+000	-3.54850E-001	8.15923E-005	8	..........a	-327.66
	38	0.0078	-3.64753E-001	-8.86535E-006	0.00000E+000	-3.64850E-001	8.15923E-005	8	..........a	-327.66
	39	0.008	-3.74753E-001	-9.00535E-006	0.00000E+000	-3.74850E-001	8.15923E-005	8	..........a	-327.66
	40	0.0082	-3.84753E-001	-9.21536E-006	0.00000E+000	-3.84850E-001	8.15923E-005	8	..........a	-327.66
	41	0.0084	-3.94753E-001	-9.26536E-006	0.00000E+000	-3.94850E-001	8.15923E-005	8	..........a	-327.66
	42	0.0086	-4.04653E-001	-9.43537E-006	0.00000E+000	-4.04850E-001	8.15923E-005	8	..........a	-327.66
	43	0.0088	-4.14753E-001	-9.60538E-006	0.00000E+000	-4.14850E-001	8.15923E-005	8	..........a	-327.66
	44	0.009	-4.24753E-001	-9.74538E-006	0.00000E+000	-4.24850E-001	8.15923E-005	8	..........a	-327.66
	45	0.0092	-4.34753E-001	-9.88539E-006	0.00000E+000	-4.34850E-001	8.15923E-005	8	..........a	-327.66
	46	0.0094	-4.44553E-001	-1.00754E-005	0.00000E+000	-4.44850E-001	8.15923E-005	8	..........a	-327.66
	47	0.0096	-4.54753E-001	-1.02354E-005	0.00000E+000	-4.54850E-001	8.15923E-005	8	..........a	-327.66
	48	0.0098	-4.64653E-001	-1.04054E-005	0.00000E+000	-4.64850E-001	8.15923E-005	8	..........a	-327.66
	49	0.01	-4.74753E-001	-1.05654E-005	0.00000E+000	-4.74850E-001	8.15923E-005	8	..........a	-327.66
	50	0.0102	-4.84753E-001	-1.06954E-005	0.00000E+000	-4.84850E-001	8.15923E-005	8	..........a	-327.66
	51	0.0104	-4.94753E-001	-1.08654E-005	0.00000E+000	-4.94850E-001	8.15923E-005	8	..........a	-327.66
	52	0.0106	-5.04803E-001	-1.10154E-005	0.00000E+000	-5.04850E-001	8.15923E-005	8	..........a	-327.66
	53	0.0108	-5.14753E-001	-1.11554E-005	0.00000E+000	-5.14850E-001	8.15923E-005	8	..........a	-327.66
	54	0.011	-5.24753E-001	-1.12954E-005	0.00000E+000	-5.24850E-001	8.15923E-005	8	..........a	-327.66
	55	0.0112	-5.34753E-001	-1.14654E-005	0.00000E+000	-5.34850E-001	8.15923E-005	8	..........a	-327.66
	56	0.0114	-5.44553E-001	-1.15955E-005	0.00000E+000	-5.44850E-001	8.15923E-005	8	..........a	-327.66
	57	0.0116	-5.54853E-001	-1.17755E-005	0.00000E+000	-5.54850E-001	8.15923E-005	8	..........a	-327.66
	58	0.0118	-5.64553E-001	-1.19055E-005	0.00000E+000	-5.64850E-001	8.15923E-005	8	..........a	-327.66
	59	0.012	-5.74753E-001	-1.19955E-005	0.00000E+000	-5.74850E-001	8.15923E-005	8	..........a	-327.66
	60	0.0122	-5.84653E-001	-1.21655E-005	0.00000E+000	-5.84850E-001	8.15923E-005	8	..........a	-327.66
	61	0.0124	-5.94853E-001	-1.22555E-005	0.00000E+000	-5.94850E-001	8.15923E-005	8	..........a	-327.66
	62	0.0126	-5.84653E-001	-9.87539E-006	0.00000E+000	-5.84850E-001	8.15923E-005	8	..........a	-327.66
	63	0.0128	-5.74853E-001	-8.14532E-006	0.00000E+000	-5.74850E-001	8.15923E-005	8	..........a	-327.66
	64	0.013	-5.64753E-001	-6.81527E-006	0.00000E+000	-5.64850E-001	8.15923E-005	8	..........a	-327.66
	65	0.0132	-5.54753E-001	-5.65522E-006	0.00000E+000	-5.54850E-001	8.15923E-005	8	..........a	-327.66
	66	0.0134	-5.45153E-001	-4.69519E-006	0.00000E+000	-5.44850E-001	8.15923E-005	8	..........a	-327.66
	67	0.0136	-5.34753E-001	-3.79515E-006	0.00000E+000	-5.34850E-001	8.15923E-005	8	..........a	-327.66
	68	0.0138	-5.24753E-001	-3.01512E-006	0.00000E+000	-5.24850E-001	8.15923E-005	8	..........a	-327.66
	69	0.014	-5.14853E-001	-2.34510E-006	0.00000E+000	-5.14850E-001	8.15923E-005	8	..........a	-327.66
	70	0.0142	-5.04653E-001	-1.65507E-006	0.00000E+000	-5.04850E-001	8.15923E-005	8	..........a	-327.66
	71	0.0144	-4.94753E-001	-1.08505E-006	0.00000E+000	-4.94850E-001	8.15923E-005	8	..........a	-327.66
	72	0.0146	-4.84653E-001	-5.65030E-007	0.00000E+000	-4.84850E-001	8.15923E-005	8	..........a	-327.66
	73	0.0148	-4.74653E-001	-8.50113E-008	0.00000E+000	-4.74850E-001	-3.18408E-004	8	..........a	-327.66
	74	0.015	-4.64753E-001	3.95007E-007	0.00000E+000	-4.64850E-001	8.15923E-005	8	..........a	-327.66
	75	0.0152	-4.54753E-001	8.35024E-007	0.00000E+000	-4.54850E-001	8.15923E-005	8	..........a	-327.66
	76	0.0154	-4.44653E-001	1.27504E-006	0.00000E+000	-4.44850E-001	8.15923E-005	8	..........a	-327.66
	77	0.0156	-4.34753E-001	1.63505E-006	0.00000E+000	-4.34850E-001	8.15923E-005	8	..........a	-327.66
	78	0.0158	-4.24753E-001	1.94507E-006	0.00000E+000	-4.24850E-001	8.15923E-005	8	..........a	-327.66
	79	0.016	-4.14753E-001	2.30508E-006	0.00000E+000	-4.14850E-001	8.15923E-005	8	..........a	-327.66
	80	0.0162	-4.04903E-001	2.57509E-006	0.00000E+000	-4.04850E-001	8.15923E-005	8	..........a	-327.66
	81	0.0164	-3.94753E-001	2.87510E-006	0.00000E+000	-3.94850E-001	8.15923E-005	8	..........a	-327.66
	82	0.0166	-3.84753E-001	3.18511E-006	0.00000E+000	-3.84850E-001	-4.18408E-004	8	..........a	-327.66
	83	0.0168	-3.74953E-001	3.46512E-006	0.00000E+000	-3.74850E-001	8.15923E-005	8	..........a	-327.66
	84	0.017	-3.64903E-001	3.66513E-006	0.00000E+000	-3.64850E-001	8.15923E-005	8	..........a	-327.66
	85	0.0172	-3.54853E-001	3.91514E-006	0.00000E+000	-3.54850E-001	8.15923E-005	8	..........a	-327.66
	86	0.0174	-3.44553E-001	4.16515E-006	0.00000E+000	-3.44850E-001	8.15923E-005	8	..........a	-327.66
	87	0.0176	-3.34753E-001	4.34516E-006	0.00000E+000	-3.34850E-001	-4.18408E-004	8	..........a	-327.66
	88	0.0178	-3.24753E-001	4.56517E-006	0.00000E+000	-3.24850E-001	8.15923E-005	8	..........a	-327.66
	89	0.018	-3.14753E-001	4.77518E-006	0.00000E+000	-3.14850E-001	8.15923E-005	8	..........a	-327.66
	90	0.0182	-3.04653E-001	4.96518E-006	0.00000E+000	-3.04850E-001	8.15923E-005	8	..........a	-327.66
	91	0.0184	-2.94853E-001	5.12519E-006	0.00000E+000	-2.94850E-001	8.15923E-005	8	..........a	-327.66
	92	0.0186	-2.84853E-001	5.28519E-006	0.00000E+000	-2.84850E-001	8.15923E-005	8	..........a	-327.66
	93	0.0188	-2.74753E-001	5.43520E-006	0.00000E+000	-2.74850E-001	8.15923E-005	8	..........a	-327.66
	94	0.019	-2.64853E-001	5.56521E-006	0.00000E+000	-2.64850E-001	-3.18408E-004	8	..........a	-327.66
	95	0.0192	-2.54853E-001	5.74521E-006	0.00000E+000	-2.54850E-001	8.15923E-005	8	..........a	-327.66
	96	0.0194	-2.44753E-001	5.90522E-006	0.00000E+000	-2.44850E-001	8.15923E-005	8	..........a	-327.66
	97	0.0196	-2.34753E-001	6.03522E-006	0.00000E+000	-2.34850E-001	8.15923E-005	8	..........a	-327.66
	98	0.0198	-2.24653E-001	6.16523E-006	0.00000E+000	-2.24850E-001	8.15923E-005	8	..........a	-327.66
	99	0.02	-2.14753E-001	6.32523E-006	0.00000E+000	-2.14850E-001	8.15923E-005	8	..........a	-327.66
	100	0.0202	-2.04753E-001	6.47524E-006	0.00000E+000	-2.04850E-001	8.15923E-005	8	..........a	-327.66
	101	0.0204	-1.94753E-001	6.53524E-006	0.00000E+000	-1.94850E-001	8.15923E-005	8	..........a	-327.66
	102	0.0206	-1.84753E-001	6.75525E-006	0.00000E+000	-1.84850E-001	-2.18408E-004	8	..........a	-327.66
	103	0.0208	-1.74753E-001	6.83525E-006	0.00000E+000	-1.74850E-001	8.15923E-005	8	..........a	-327.66
	104	0.021	-1.64853E-001	6.94526E-006	0.00000E+000	-1.64850E-001	-2.18408E-004	8	..........a	-327.66
	105	0.0212	-1.54803E-001	7.03526E-006	0.00000E+000	-1.54850E-001	8.15923E-005	8	..........a	-327.66
	106	0.0214	-1.44753E-001	7.15527E-006	0.00000E+000	-1.44850E-001	8.15923E-005	8	..........a	-327.66
	107	0.0216	-1.34653E-001	7.22527E-006	0.00000E+000	-1.34850E-001	8.15923E-005	8	..........a	-327.66
	108	0.0218	-1.25003E-001	7.36527E-006	0.00000E+000	-1.24850E-001	8.15923E-005	8	..........a	-327.66
	109	0.022	-1.14853E-001	7.45528E-006	0.00000E+000	-1.14850E-001	8.15923E-005	8	..........a	-327.66
	110	0.0222	-1.04603E-001	7.57528E-006	0.00000E+000	-1.04850E-001	8.15923E-005	8	..........a	-327.66
	111	0.0224	-9.47529E-002	7.68529E-006	0.00000E+000	-9.48500E-002	8.15923E-005	8	..........a	-327.66
	112	0.0226	-8.49029E-002	7.81529E-006	0.00000E+000	-8.48500E-002	8.15923E-005	8	..........a	-327.66
	113	0.0228	-7.48529E-002	7.86529E-006	0.00000E+000	-7.48500E-002	8.15923E-005	8	..........a	-327.66
	114	0.023	-6.47529E-002	8.00530E-006	0.00000E+000	-6.48500E-002	8.15923E-005	8	..........a	-327.66
	115	0.0232	-5.48529E-002	8.12530E-006	0.00000E+000	-5.48500E-002	8.15923E-005	8	..........a	-327.66
	116	0.0234	-4.48529E-002	8.20531E-006	0.00000E+000	-4.48500E-002	8.15923E-005	8	..........a	-327.66
	117	0.0236	-3.47529E-002	8.32531E-006	0.00000E+000	-3.48500E-002	8.15923E-005	8	..........a	-327.66
	118	0.0238	-2.46529E-002	8.40531E-006	0.00000E+000	-2.48500E-002	8.15923E-005	8	..........a	-327.66
	119	0.024	-1.48529E-002	8.51532E-006	0.00000E+000	-1.48500E-002	8.15923E-005	8	..........a	-327.66
	120	0.0242	-4.65289E-003	8.65532E-006	0.00000E+000	-4.84999E-003	8.15923E-005	8	..........a	-327.66
	121	0.0244	5.24711E-003	8.78533E-006	0.00000E+000	5.15001E-003	8.15923E-005	8	..........a	-327.66
	122	0.0246	1.53471E-002	8.86533E-006	0.00000E+000	1.51500E-002	8.15923E-005	8	..........a	-327.66
	123	0.0248	2.50971E-002	9.00534E-006	0.00000E+000	2.51500E-002	8.15923E-005	8	..........a	-327.66
	124	0.025	3.52471E-002	9.07534E-006	0.00000E+000	3.51500E-002	8.15923E-005	8	..........a	-327.66
	125	0.0252	4.51471E-002	9.21535E-006	0.00000E+000	4.51500E-002	8.15923E-005	8	..........a	-327.66
	126	0.0254	5.52471E-002	9.30535E-006	0.00000E+000	5.51500E-002	8.15923E-005	8	..........a	-327.66
	127	0.0256	6.52471E-002	9.45535E-006	0.00000E+000	6.51500E-002	8.15923E-005	8	..........a	-327.66
	128	0.0258	7.51471E-002	9.57536E-006	0.00000E+000	7.51500E-002	8.15923E-005	8	..........a	-327.66
	129	0.026	8.52471E-002	9.74536E-006	0.00000E+000	8.51500E-002	8.15923E-005	8	..........a	-327.66
	130	0.0262	9.53471E-002	9.87537E-006	0.00000E+000	9.51500E-002	8.15923E-005	8	..........a	-327.66
	131	0.0264	1.05047E-001	9.99537E-006	0.00000E+000	1.05150E-001	8.15923E-005	8	..........a	-327.66
	132	0.0266	1.15347E-001	1.01754E-005	0.00000E+000	1.15150E-001	8.15923E-005	8	..........a	-327.66
	133	0.0268	1.24897E-001	1.02854E-005	0.00000E+000	1.25150E-001	8.15923E-005	8	..........a	-327.66
	134	0.027	1.35247E-001	1.04254E-005	0.00000E+000	1.35150E-001	8.15923E-005	8	..........a	-327.66
	135	0.0272	1.45247E-001	1.05554E-005	0.00000E+000	1.45150E-001	8.15923E-005	8	..........a	-327.66
	136	0.0274	1.55247E-001	1.07154E-005	0.00000E+000	1.55150E-001	8.15923E-005	8	..........a	-327.66
	137	0.0276	1.65247E-001	1.08754E-005	0.00000E+000	1.65150E-001	-3.18408E-004	8	..........a	-327.66
	138	0.0278	1.75347E-001	1.10454E-005	0.00000E+000	1.75150E-001	8.15923E-005	8	..........a	-327.66
	139	0.028	1.85147E-001	1.12054E-005	0.00000E+000	1.85150E-001	8.15923E-005	8	..........a	-327.66
	140	0.0282	1.95247E-001	1.13554E-005	0.00000E+000	1.95150E-001	8.15923E-005	8	..........a	-327.66
	141	0.0284	2.05247E-001	1.15854E-005	0.00000E+000	2.05150E-001	8.15923E-005	8	..........a	-327.66
	142	0.0286	2.15247E-001	1.17554E-005	0.00000E+000	2.15150E-001	8.15923E-005	8	..........a	-327.66
	143	0.0288	2.25247E-001	1.19554E-005	0.00000E+000	2.25150E-001	8.15923E-005	8	..........a	-327.66
	144	0.029	2.35247E-001	1.21855E-005	0.00000E+000	2.35150E-001	8.15923E-005	8	..........a	-327.66
	145	0.0292	2.44847E-001	1.23655E-005	0.00000E+000	2.45150E-001	8.15923E-005	8	..........a	-327.66
	146	0.0294	2.55347E-001	1.26255E-005	0.00000E+000	2.55150E-001	8.15923E-005	8	..........a	-327.66
	147	0.0296	2.65097E-001	1.28755E-005	0.00000E+000	2.65150E-001	-3.18408E-004	8	..........a	-327.66
	148	0.0298	2.75097E-001	1.32055E-005	0.00000E+000	2.75150E-001	8.15923E-005	8	..........a	-327.66
	149	0.03	2.85047E-001	1.34655E-005	0.00000E+000	2.85150E-001	8.15923E-005	8	..........a	-327.66
	150	0.0302	2.95147E-001	1.37955E-005	0.00000E+000	2.95150E-001	8.15923E-005	8	..........a	-327.66
	151	0.0304	3.05147E-001	1.40755E-005	0.00000E+000	3.05150E-001	8.15923E-005	8	..........a	-327.66
	152	0.0306	3.15147E-001	1.44555E-005	0.00000E+000	3.15150E-001	8.15923E-005	8	..........a	-327.66
	153	0.0308	3.25247E-001	1.47356E-005	0.00000E+000	3.25150E-001	8.15923E-005	8	..........a	-327.66
	154	0.031	3.35247E-001	1.49256E-005	0.00000E+000	3.35150E-001	8.15923E-005	8	..........a	-327.66
	155	0.0312	3.45147E-001	1.52256E-005	0.00000E+000	3.45150E-001	8.15923E-005	8	..........a	-327.66
	156	0.0314	3.55247E-001	1.53856E-005	0.00000E+000	3.55150E-001	8.15923E-005	8	..........a	-327.66
	157	0.0316	3.65147E-001	1.55456E-005	0.00000E+000	3.65150E-001	8.15923E-005	8	..........a	-327.66
	158	0.0318	3.75347E-001	1.56856E-005	0.00000E+000	3.75150E-001	8.15923E-005	8	..........a	-327.66
	159	0.032	3.85247E-001	1.58956E-005	0.00000E+000	3.85150E-001	8.15923E-005	8	..........a	-327.66
	160	0.0322	3.95247E-001	1.60356E-005	0.00000E+000	3.95150E-001	8.15923E-005	8	..........a	-327.66
	161	0.0324	4.05047E-001	1.62056E-005	0.00000E+000	4.05150E-001	-3.18408E-004	8	..........a	-327.66
	162	0.0326	4.15247E-001	1.63456E-005	0.00000E+000	4.15150E-001	8.15923E-005	8	..........a	-327.66
	163	0.0328	4.25147E-001	1.65056E-005	0.00000E+000	4.25150E-001	8.15923E-005	8	..........a	-327.66
	164	0.033	4.34947E-001	1.67156E-005	0.00000E+000	4.35150E-001	8.15923E-005	8	..........a	-327.66
	165	0.0332	4.45147E-001	1.69656E-005	0.00000E+000	4.45150E-001	8.15923E-005	8	..........a	-327.66
	166	0.0334	4.55347E-001	1.71256E-005	0.00000E+000	4.55150E-001	8.15923E-005	8	..........a	-327.66
	167	0.0336	4.65147E-001	1.73157E-005	0.00000E+000	4.65150E-001	8.15923E-005	8	..........a	-327.66
	168	0.0338	4.74997E-001	1.74957E-005	0.00000E+000	4.75150E-001	8.15923E-005	8	..........a	-327.66
	169	0.034	4.85147E-001	1.77457E-005	0.00000E+000	4.85150E-001	8.15923E-005	8	..........a	-327.66
	170	0.0342	4.95047E-001	1.79357E-005	0.00000E+000	4.95150E-001	8.15923E-005	8	..........a	-327.66
	171	0.0344	5.05147E-001	1.80757E-005	0.00000E+000	5.05150E-001	8.15923E-005	8	..........a	-327.66
	172	0.0346	5.15047E-001	1.82857E-005	0.00000E+000	5.15150E-001	8.15923E-005	8	..........a	-327.66
	173	0.0348	5.25147E-001	1.84057E-005	0.00000E+000	5.25150E-001	8.15923E-005	8	..........a	-327.66
	174	0.035	5.34947E-001	1.85057E-005	0.00000E+000	5.35150E-001	8.15923E-005	8	..........a	-327.66
	175	0.0352	5.45247E-001	1.85957E-005	0.00000E+000	5.45150E-001	8.15923E-005	8	..........a	-327.66
	176	0.0354	5.55247E-001	1.87757E-005	0.00000E+000	5.55150E-001	8.15923E-005	8	..........a	-327.66
	177	0.0356	5.65147E-001	1.89057E-005	0.00000E+000	5.65150E-001	8.15923E-005	8	..........a	-327.66
	178	0.0358	5.75247E-001	1.90257E-005	0.00000E+000	5.75150E-001	8.15923E-005	8	..........a	-327.66
	179	0.036	5.85047E-001	1.91157E-005	0.00000E+000	5.85150E-001	8.15923E-005	8	..........a	-327.66
	180	0.0362	5.95147E-001	1.92257E-005	0.00000E+000	5.95150E-001	8.15923E-005	8	..........a	-327.66
	181	0.0364	6.05147E-001	1.93457E-005	0.00000E+000	6.05150E-001	8.15923E-005	8	..........a	-327.66
	182	0.0366	6.15247E-001	1.94657E-005	0.00000E+000	6.15150E-001	8.15923E-005	8	..........a	-327.66
	183	0.0368	6.25147E-001	1.95957E-005	0.00000E+000	6.25150E-001	8.15923E-005	8	..........a	-327.66
	184	0.037	6.35047E-001	1.97057E-005	0.00000E+000	6.35150E-001	8.15923E-005	8	..........a	-327.66
	185	0.0372	6.44947E-001	1.98558E-005	0.00000E+000	6.45150E-001	8.15923E-005	8	..........a	-327.66
	186	0.0374	6.55047E-001	1.99758E-005	0.00000E+000	6.55150E-001	8.15923E-005	8	..........a	-327.66
	187	0.0376	6.65097E-001	2.01258E-005	0.00000E+000	6.65150E-001	8.15923E-005	8	..........a	-327.66
	188	0.0378	6.75147E-001	2.02158E-005	0.00000E+000	6.75150E-001	8.15923E-005	8	..........a	-327.66
	189	0.038	6.85047E-001	2.03458E-005	0.00000E+000	6.85150E-001	8.15923E-005	8	..........a	-327.66
	190	0.0382	6.94947E-001	2.04458E-005	0.00000E+000	6.95150E-001	8.15923E-005	8	..........a	-327.66
	191	0.0384	7.05097E-001	2.05258E-005	0.00000E+000	7.05150E-001	8.15923E-005	8	..........a	-327.66
	192	0.0386	7.14947E-001	2.06758E-005	0.00000E+000	7.15150E-001	8.15923E-005	8	..........a	-327.66
	193	0.0388	7.25147E-001	2.07558E-005	0.00000E+000	7.25150E-001	8.15923E-005	8	..........a	-327.66
	194	0.039	7.35047E-001	2.08358E-005	0.00000E+000	7.35150E-001	8.15923E-005	8	..........a	-327.66
	195	0.0392	7.45047E-001	2.09458E-005	0.00000E+000	7.45150E-001	8.15923E-005	8	..........a	-327.66
	196	0.0394	7.54947E-001	2.10058E-005	0.00000E+000	7.55150E-001	8.15923E-005	8	..........a	-327.66
	197	0.0396	7.65047E-001	2.10058E-005	0.00000E+000	7.65150E-001	8.15923E-005	8	..........a	-327.66
	198	0.0398	7.75197E-001	2.10658E-005	0.00000E+000	7.75150E-001	8.15923E-005	8	..........a	-327.66
	199	0.04	7.85147E-001	2.11458E-005	0.00000E+000	7.85150E-001	8.15923E-005	8	..........a	-327.66
	200	0.0402	7.94947E-001	2.12058E-005	0.00000E+000	7.95150E-001	8.15923E-005	8	..........a	-327.66
CURVE2	TABLE
	Pt	T	Vf	Im	Vu	Sig	Ach	IERange	Over	Temp
	#	s	V vs. Ref.	A	V	V	V	#	bits	deg C
	201	0.0404	7.89947E-001	1.88657E-005	0.00000E+000	7.90000E-001	8.15923E-005	8	..........a	-327.66
	202	0.0406	7.79947E-001	1.62656E-005	0.00000E+000	7.80000E-001	8.15923E-005	8	..........a	-327.66
	203	0.0408	7.69847E-001	1.42955E-005	0.00000E+000	7.70000E-001	8.15923E-005	8	..........a	-327.66
	204	0.041	7.60047E-001	1.25655E-005	0.00000E+000	7.60000E-001	8.15923E-005	8	..........a	-327.66
	205	0.0412	7.50047E-001	1.10754E-005	0.00000E+000	7.50000E-001	8.15923E-005	8	..........a	-327.66
	206	0.0414	7.40047E-001	9.70536E-006	0.00000E+000	7.40000E-001	8.15923E-005	8	..........a	-327.66
	207	0.0416	7.29897E-001	8.51532E-006	0.00000E+000	7.30000E-001	8.15923E-005	8	..........a	-327.66
	208	0.0418	7.19947E-001	7.37527E-006	0.00000E+000	7.20000E-001	8.15923E-005	8	..........a	-327.66
	209	0.042	7.09947E-001	6.42524E-006	0.00000E+000	7.10000E-001	8.15923E-005	8	..........a	-327.66
	210	0.0422	7.00047E-001	5.50520E-006	0.00000E+000	7.00000E-001	8.15923E-005	8	..........a	-327.66
	211	0.0424	6.89847E-001	4.68517E-006	0.00000E+000	6.90000E-001	8.15923E-005	8	..........a	-327.66
	212	0.0426	6.79947E-001	3.84514E-006	0.00000E+000	6.80000E-001	8.15923E-005	8	..........a	-327.66
	213	0.0428	6.69947E-001	3.10511E-006	0.00000E+000	6.70000E-001	8.15923E-005	8	..........a	-327.66
	214	0.043	6.59997E-001	2.41508E-006	0.00000E+000	6.60000E-001	8.15923E-005	8	..........a	-327.66
	215	0.0432	6.49847E-001	1.75506E-006	0.00000E+000	6.50000E-001	8.15923E-005	8	..........a	-327.66
	216	0.0434	6.39997E-001	1.15504E-006	0.00000E+000	6.40000E-001	8.15923E-005	8	..........a	-327.66
	217	0.0436	6.29847E-001	5.25012E-007	0.00000E+000	6.30000E-001	8.15923E-005	8	..........a	-327.66
	218	0.0438	6.19747E-001	-4.50097E-008	0.00000E+000	6.20000E-001	8.15923E-005	8	..........a	-327.66
	219	0.044	6.09847E-001	-5.65030E-007	0.00000E+000	6.10000E-001	8.15923E-005	8	..........a	-327.66
	220	0.0442	6.00047E-001	-1.09505E-006	0.00000E+000	6.00000E-001	8.15923E-005	8	..........a	-327.66
	221	0.0444	5.90047E-001	-1.56507E-006	0.00000E+000	5.90000E-001	8.15923E-005	8	..........a	-327.66
	222	0.0446	5.79997E-001	-2.05509E-006	0.00000E+000	5.80000E-001	8.15923E-005	8	..........a	-327.66
	223	0.0448	5.69947E-001	-2.49510E-006	0.00000E+000	5.70000E-001	8.15923E-005	8	..........a	-327.66
	224	0.045	5.59947E-001	-2.93512E-006	0.00000E+000	5.60000E-001	8.15923E-005	8	..........a	-327.66
	225	0.0452	5.50047E-001	-3.31514E-006	0.00000E+000	5.50000E-001	8.15923E-005	8	..........a	-327.66
	226	0.0454	5.40147E-001	-3.71515E-006	0.00000E+000	5.40000E-001	8.15923E-005	8	..........a	-327.66
	227	0.0456	5.29947E-001	-4.11517E-006	0.00000E+000	5.30000E-001	8.15923E-005	8	..........a	-327.66
	228	0.0458	5.19947E-001	-4.40518E-006	0.00000E+000	5.20000E-001	8.15923E-005	8	..........a	-327.66
	229	0.046	5.10047E-001	-4.80519E-006	0.00000E+000	5.10000E-001	8.15923E-005	8	..........a	-327.66
	230	0.0462	5.00247E-001	-5.11520E-006	0.00000E+000	5.00000E-001	8.15923E-005	8	..........a	-327.66
	231	0.0464	4.90047E-001	-5.44522E-006	0.00000E+000	4.90000E-001	8.15923E-005	8	..........a	-327.66
	232	0.0466	4.80147E-001	-5.76523E-006	0.00000E+000	4.80000E-001	8.15923E-005	8	..........a	-327.66
	233	0.0468	4.69947E-001	-6.01524E-006	0.00000E+000	4.70000E-001	8.15923E-005	8	..........a	-327.66
	234	0.047	4.59947E-001	-6.27525E-006	0.00000E+000	4.60000E-001	8.15923E-005	8	..........a	-327.66
	235	0.0472	4.50047E-001	-6.59526E-006	0.00000E+000	4.50000E-001	8.15923E-005	8	..........a	-327.66
	236	0.0474	4.39747E-001	-6.82527E-006	0.00000E+000	4.40000E-001	8.15923E-005	8	..........a	-327.66
	237	0.0476	4.29847E-001	-7.11528E-006	0.00000E+000	4.30000E-001	8.15923E-005	8	..........a	-327.66
	238	0.0478	4.19947E-001	-7.38529E-006	0.00000E+000	4.20000E-001	8.15923E-005	8	..........a	-327.66
	239	0.048	4.09897E-001	-7.61530E-006	0.00000E+000	4.10000E-001	8.15923E-005	8	..........a	-327.66
	240	0.0482	4.00147E-001	-7.97531E-006	0.00000E+000	4.00000E-001	8.15923E-005	8	..........a	-327.66
	241	0.0484	3.89947E-001	-8.29533E-006	0.00000E+000	3.90000E-001	8.15923E-005	8	..........a	-327.66
	242	0.0486	3.80047E-001	-8.55534E-006	0.00000E+000	3.80000E-001	8.15923E-005	8	..........a	-327.66
	243	0.0488	3.70047E-001	-8.76534E-006	0.00000E+000	3.70000E-001	8.15923E-005	8	..........a	-327.66
	244	0.049	3.59947E-001	-9.13536E-006	0.00000E+000	3.60000E-001	8.15923E-005	8	..........a	-327.66
	245	0.0492	3.50047E-001	-9.44537E-006	0.00000E+000	3.50000E-001	8.15923E-005	8	..........a	-327.66
	246	0.0494	3.40047E-001	-9.73538E-006	0.00000E+000	3.40000E-001	8.15923E-005	8	..........a	-327.66
	247	0.0496	3.29947E-001	-1.00054E-005	0.00000E+000	3.30000E-001	8.15923E-005	8	..........a	-327.66
	248	0.0498	3.19947E-001	-1.03054E-005	0.00000E+000	3.20000E-001	8.15923E-005	8	..........a	-327.66
	249	0.05	3.09847E-001	-1.06354E-005	0.00000E+000	3.10000E-001	8.15923E-005	8	..........a	-327.66
	250	0.0502	3.00147E-001	-1.08654E-005	0.00000E+000	3.00000E-001	8.15923E-005	8	..........a	-327.66
	251	0.0504	2.89947E-001	-1.12054E-005	0.00000E+000	2.90000E-001	8.15923E-005	8	..........a	-327.66
	252	0.0506	2.79947E-001	-1.14854E-005	0.00000E+000	2.80000E-001	8.15923E-005	8	..........a	-327.66
	253	0.0508	2.70047E-001	-1.17255E-005	0.00000E+000	2.70000E-001	8.15923E-005	8	..........a	-327.66
	254	0.051	2.60147E-001	-1.19855E-005	0.00000E+000	2.60000E-001	8.15923E-005	8	..........a	-327.66
	255	0.0512	2.49947E-001	-1.22555E-005	0.00000E+000	2.50000E-001	8.15923E-005	8	..........a	-327.66
	256	0.0514	2.40047E-001	-1.25155E-005	0.00000E+000	2.40000E-001	8.15923E-005	8	..........a	-327.66
	257	0.0516	2.29797E-001	-1.27955E-005	0.00000E+000	2.30000E-001	8.15923E-005	8	..........a	-327.66
	258	0.0518	2.19747E-001	-1.30555E-005	0.00000E+000	2.20000E-001	8.15923E-005	8	..........a	-327.66
	259	0.052	2.09947E-001	-1.32355E-005	0.00000E+000	2.10000E-001	8.15923E-005	8	..........a	-327.66
	260	0.0522	2.00247E-001	-1.35155E-005	0.00000E+000	2.00000E-001	8.15923E-005	8	..........a	-327.66
	261	0.0524	1.90047E-001	-1.37155E-005	0.00000E+000	1.90000E-001	8.15923E-005	8	..........a	-327.66
	262	0.0526	1.80247E-001	-1.38855E-005	0.00000E+000	1.80000E-001	8.15923E-005	8	..........a	-327.66
	263	0.0528	1.70047E-001	-1.41255E-005	0.00000E+000	1.70000E-001	8.15923E-005	8	..........a	-327.66
	264	0.053	1.60147E-001	-1.43356E-005	0.00000E+000	1.60000E-001	8.15923E-005	8	..........a	-327.66
	265	0.0532	1.50047E-001	-1.44956E-005	0.00000E+000	1.50000E-001	8.15923E-005	8	..........a	-327.66
	266	0.0534	1.40147E-001	-1.45956E-005	0.00000E+000	1.40000E-001	8.15923E-005	8	..........a	-327.66
	267	0.0536	1.30047E-001	-1.47756E-005	0.00000E+000	1.30000E-001	8.15923E-005	8	..........a	-327.66
	268	0.0538	1.20047E-001	-1.48856E-005	0.00000E+000	1.20000E-001	8.15923E-005	8	..........a	-327.66
	269	0.054	1.10047E-001	-1.49956E-005	0.00000E+000	1.10000E-001	8.15923E-005	8	..........a	-327.66
	270	0.0542	1.00147E-001	-1.51156E-005	0.00000E+000	1.00000E-001	8.15923E-005	8	..........a	-327.66
	271	0.0544	9.00471E-002	-1.52356E-005	0.00000E+000	9.00000E-002	8.15923E-005	8	..........a	-327.66
	272	0.0546	8.01471E-002	-1.53756E-005	0.00000E+000	8.00000E-002	8.15923E-005	8	..........a	-327.66
	273	0.0548	7.01471E-002	-1.54756E-005	0.00000E+000	7.00000E-002	8.15923E-005	8	..........a	-327.66
	274	0.055	5.99471E-002	-1.56056E-005	0.00000E+000	6.00000E-002	8.15923E-005	8	..........a	-327.66
	275	0.0552	4.98471E-002	-1.57756E-005	0.00000E+000	5.00000E-002	8.15923E-005	8	..........a	-327.66
	276	0.0554	4.02471E-002	-1.58456E-005	0.00000E+000	4.00000E-002	8.15923E-005	8	..........a	-327.66
	277	0.0556	2.99471E-002	-1.59856E-005	0.00000E+000	3.00000E-002	8.15923E-005	8	..........a	-327.66
	278	0.0558	2.00471E-002	-1.60956E-005	0.00000E+000	2.00000E-002	8.15923E-005	8	..........a	-327.66
	279	0.056	9.94711E-003	-1.61556E-005	0.00000E+000	1.00000E-002	8.15923E-005	8	..........a	-327.66
	280	0.0562	1.47114E-004	-1.61556E-005	0.00000E+000	7.45058E-009	8.15923E-005	8	..........a	-327.66
	281	0.0564	-1.00529E-002	-1.62256E-005	0.00000E+000	-1.00000E-002	8.15923E-005	8	..........a	-327.66
	282	0.0566	-1.98529E-002	-1.62056E-005	0.00000E+000	-2.00000E-002	8.15923E-005	8	..........a	-327.66
	283	0.0568	-2.99529E-002	-1.61656E-005	0.00000E+000	-3.00000E-002	8.15923E-005	8	..........a	-327.66
	284	0.057	-3.98529E-002	-1.60956E-005	0.00000E+000	-4.00000E-002	8.15923E-005	8	..........a	-327.66
	285	0.0572	-4.99529E-002	-1.59956E-005	0.00000E+000	-5.00000E-002	8.15923E-005	8	..........a	-327.66
	286	0.0574	-6.01529E-002	-1.59356E-005	0.00000E+000	-6.00000E-002	8.15923E-005	8	..........a	-327.66
	287	0.0576	-6.99529E-002	-1.58556E-005	0.00000E+000	-7.00000E-002	8.15923E-005	8	..........a	-327.66
	288	0.0578	-7.98529E-002	-1.57956E-005	0.00000E+000	-8.00000E-002	8.15923E-005	8	..........a	-327.66
	289	0.058	-8.99529E-002	-1.57556E-005	0.00000E+000	-9.00000E-002	8.15923E-005	8	..........a	-327.66
	290	0.0582	-9.98529E-002	-1.56156E-005	0.00000E+000	-1.00000E-001	8.15923E-005	8	..........a	-327.66
	291	0.0584	-1.10153E-001	-1.54556E-005	0.00000E+000	-1.10000E-001	8.15923E-005	8	..........a	-327.66
	292	0.0586	-1.19953E-001	-1.53556E-005	0.00000E+000	-1.20000E-001	8.15923E-005	8	..........a	-327.66
	293	0.0588	-1.30053E-001	-1.53156E-005	0.00000E+000	-1.30000E-001	8.15923E-005	8	..........a	-327.66
	294	0.059	-1.39853E-001	-1.52956E-005	0.00000E+000	-1.40000E-001	8.15923E-005	8	..........a	-327.66
	295	0.0592	-1.49953E-001	-1.51956E-005	0.00000E+000	-1.50000E-001	8.15923E-005	8	..........a	-327.66
	296	0.0594	-1.59953E-001	-1.51556E-005	0.00000E+000	-1.60000E-001	8.15923E-005	8	..........a	-327.66
	297	0.0596	-1.69953E-001	-1.50256E-005	0.00000E+000	-1.70000E-001	8.15923E-005	8	..........a	-327.66
	298	0.0598	-1.79953E-001	-1.50456E-005	0.00000E+000	-1.80000E-001	8.15923E-005	8	..........a	-327.66
	299	0.06	-1.90053E-001	-1.49756E-005	0.00000E+000	-1.90000E-001	8.15923E-005	8	..........a	-327.66
	300	0.0602	-1.99853E-001	-1.49056E-005	0.00000E+000	-2.00000E-001	8.15923E-005	8	..........a	-327.66
	301	0.0604	-2.09953E-001	-1.48356E-005	0.00000E+000	-2.10000E-001	8.15923E-005	8	..........a	-327.66
	302	0.0606	-2.19753E-001	-1.48156E-005	0.00000E+000	-2.20000E-001	8.15923E-005	8	..........a	-327.66
	303	0.0608	-2.29853E-001	-1.47156E-005	0.00000E+000	-2.30000E-001	8.15923E-005	8	..........a	-327.66
	304	0.061	-2.40103E-001	-1.46356E-005	0.00000E+000	-2.40000E-001	8.15923E-005	8	..........a	-327.66
	305	0.0612	-2.49953E-001	-1.45656E-005	0.00000E+000	-2.50000E-001	8.15923E-005	8	..........a	-327.66
	306	0.0614	-2.59653E-001	-1.44456E-005	0.00000E+000	-2.60000E-001	8.15923E-005	8	..........a	-327.66
	307	0.0616	-2.69953E-001	-1.43956E-005	0.00000E+000	-2.70000E-001	8.15923E-005	8	..........a	-327.66
	308	0.0618	-2.79953E-001	-1.43356E-005	0.00000E+000	-2.80000E-001	8.15923E-005	8	..........a	-327.66
	309	0.062	-2.89953E-001	-1.42156E-005	0.00000E+000	-2.90000E-001	8.15923E-005	8	..........a	-327.66
	310	0.0622	-2.99953E-001	-1.41155E-005	0.00000E+000	-3.00000E-001	8.15923E-005	8	..........a	-327.66
	311	0.0624	-3.09953E-001	-1.40455E-005	0.00000E+000	-3.10000E-001	8.15923E-005	8	..........a	-327.66
	312	0.0626	-3.19953E-001	-1.38855E-005	0.00000E+000	-3.20000E-001	8.15923E-005	8	..........a	-327.66
	313	0.0628	-3.29953E-001	-1.38755E-005	0.00000E+000	-3.30000E-001	8.15923E-005	8	..........a	-327.66
	314	0.063	-3.39753E-001	-1.37655E-005	0.00000E+000	-3.40000E-001	8.15923E-005	8	..........a	-327.66
	315	0.0632	-3.50053E-001	-1.36955E-005	0.00000E+000	-3.50000E-001	8.15923E-005	8	..........a	-327.66
	316	0.0634	-3.59853E-001	-1.36455E-005	0.00000E+000	-3.60000E-001	8.15923E-005	8	..........a	-327.66
	317	0.0636	-3.69953E-001	-1.35455E-005	0.00000E+000	-3.70000E-001	8.15923E-005	8	..........a	-327.66
	318	0.0638	-3.79853E-001	-1.35155E-005	0.00000E+000	-3.80000E-001	8.15923E-005	8	..........a	-327.66
	319	0.064	-3.89853E-001	-1.34355E-005	0.00000E+000	-3.90000E-001	8.15923E-005	8	..........a	-327.66
	320	0.0642	-3.99853E-001	-1.34355E-005	0.00000E+000	-4.00000E-001	8.15923E-005	8	..........a	-327.66
	321	0.0644	-4.09953E-001	-1.34155E-005	0.00000E+000	-4.10000E-001	8.15923E-005	8	..........a	-327.66
	322	0.0646	-4.19753E-001	-1.33455E-005	0.00000E+000	-4.20000E-001	8.15923E-005	8	..........a	-327.66
	323	0.0648	-4.29953E-001	-1.32955E-005	0.00000E+000	-4.30000E-001	8.15923E-005	8	..........a	-327.66
	324	0.065	-4.39753E-001	-1.32755E-005	0.00000E+000	-4.40000E-001	8.15923E-005	8	..........a	-327.66
	325	0.0652	-4.49953E-001	-1.32655E-005	0.00000E+000	-4.50000E-001	8.15923E-005	8	..........a	-327.66
	326	0.0654	-4.59853E-001	-1.32755E-005	0.00000E+000	-4.60000E-001	8.15923E-005	8	..........a	-327.66
	327	0.0656	-4.69953E-001	-1.32755E-005	0.00000E+000	-4.70000E-001	8.15923E-005	8	..........a	-327.66
	328	0.0658	-4.79753E-001	-1.32655E-005	0.00000E+000	-4.80000E-001	8.15923E-005	8	..........a	-327.66
	329	0.066	-4.89953E-001	-1.32555E-005	0.00000E+000	-4.90000E-001	8.15923E-005	8	..........a	-327.66
	330	0.0662	-4.99953E-001	-1.32855E-005	0.00000E+000	-5.00000E-001	8.15923E-005	8	..........a	-327.66
	331	0.0664	-5.09953E-001	-1.32755E-005	0.00000E+000	-5.10000E-001	8.15923E-005	8	..........a	-327.66
	332	0.0666	-5.19853E-001	-1.32855E-005	0.00000E+000	-5.20000E-001	8.15923E-005	8	..........a	-327.66
	333	0.0668	-5.29853E-001	-1.32855E-005	0.00000E+000	-5.30000E-001	8.15923E-005	8	..........a	-327.66
	334	0.067	-5.39753E-001	-1.33755E-005	0.00000E+000	-5.40000E-001	8.15923E-005	8	..........a	-327.66
	335	0.0672	-5.49953E-001	-1.33555E-005	0.00000E+000	-5.50000E-001	8.15923E-005	8	..........a	-327.66
	336	0.0674	-5.59853E-001	-1.34155E-005	0.00000E+000	-5.60000E-001	-3.18408E-004	8	..........a	-327.66
	337	0.0676	-5.69953E-001	-1.34355E-005	0.00000E+000	-5.70000E-001	8.15923E-005	8	..........a	-327.66
	338	0.0678	-5.79953E-001	-1.34655E-005	0.00000E+000	-5.80000E-001	8.15923E-005	8	..........a	-327.66
	339	0.068	-5.89853E-001	-1.35555E-005	0.00000E+000	-5.90000E-001	8.15923E-005	8	..........a	-327.66
	340	0.0682	-5.99953E-001	-1.35555E-005	0.00000E+000	-6.00000E-001	8.15923E-005	8	..........a	-327.66
	341	0.0684	-5.89953E-001	-1.11154E-005	0.00000E+000	-5.90000E-001	8.15923E-005	8	..........a	-327.66
	342	0.0686	-5.79853E-001	-9.33536E-006	0.00000E+000	-5.80000E-001	8.15923E-005	8	..........a	-327.66
	343	0.0688	-5.69903E-001	-7.91531E-006	0.00000E+000	-5.70000E-001	8.15923E-005	8	..........a	-327.66
	344	0.069	-5.59953E-001	-6.70526E-006	0.00000E+000	-5.60000E-001	8.15923E-005	8	..........a	-327.66
	345	0.0692	-5.50053E-001	-5.65522E-006	0.00000E+000	-5.50000E-001	8.15923E-005	8	..........a	-327.66
[...]
	2601	0.5204	-3.90053E-001	2.66509E-006	0.00000E+000	-3.90000E-001	8.15923E-005	8	..........a	-327.66
	2602	0.5206	-3.79803E-001	2.90510E-006	0.00000E+000	-3.80000E-001	8.15923E-005	8	..........a	-327.66
	2603	0.5208	-3.69953E-001	3.19511E-006	0.00000E+000	-3.70000E-001	8.15923E-005	8	..........a	-327.66
	2604	0.521	-3.59853E-001	3.43512E-006	0.00000E+000	-3.60000E-001	8.15923E-005	8	..........a	-327.66
	2605	0.5212	-3.49953E-001	3.67513E-006	0.00000E+000	-3.50000E-001	8.15923E-005	8	..........a	-327.66
	2606	0.5214	-3.39753E-001	3.90514E-006	0.00000E+000	-3.40000E-001	8.15923E-005	8	..........a	-327.66
	2607	0.5216	-3.30053E-001	4.08515E-006	0.00000E+000	-3.30000E-001	8.15923E-005	8	..........a	-327.66
	2608	0.5218	-3.19753E-001	4.30516E-006	0.00000E+000	-3.20000E-001	8.15923E-005	8	..........a	-327.66
	2609	0.522	-3.09953E-001	4.51517E-006	0.00000E+000	-3.10000E-001	8.15923E-005	8	..........a	-327.66
	2610	0.5222	-2.99853E-001	4.73517E-006	0.00000E+000	-3.00000E-001	8.15923E-005	8	..........a	-327.66
	2611	0.5224	-2.89953E-001	4.87518E-006	0.00000E+000	-2.90000E-001	8.15923E-005	8	..........a	-327.66
	2612	0.5226	-2.79953E-001	5.05519E-006	0.00000E+000	-2.80000E-001	8.15923E-005	8	..........a	-327.66
	2613	0.5228	-2.69953E-001	5.17519E-006	0.00000E+000	-2.70000E-001	8.15923E-005	8	..........a	-327.66
	2614	0.523	-2.59753E-001	5.39520E-006	0.00000E+000	-2.60000E-001	8.15923E-005	8	..........a	-327.66
	2615	0.5232	-2.49953E-001	5.55521E-006	0.00000E+000	-2.50000E-001	8.15923E-005	8	..........a	-327.66
	2616	0.5234	-2.40053E-001	5.70521E-006	0.00000E+000	-2.40000E-001	8.15923E-005	8	..........a	-327.66
	2617	0.5236	-2.29853E-001	5.81521E-006	0.00000E+000	-2.30000E-001	8.15923E-005	8	..........a	-327.66
	2618	0.5238	-2.19953E-001	6.01522E-006	0.00000E+000	-2.20000E-001	8.15923E-005	8	..........a	-327.66
	2619	0.524	-2.09853E-001	6.10523E-006	0.00000E+000	-2.10000E-001	8.15923E-005	8	..........a	-327.66
	2620	0.5242	-2.00103E-001	6.26523E-006	0.00000E+000	-2.00000E-001	8.15923E-005	8	..........a	-327.66
	2621	0.5244	-1.90403E-001	6.41524E-006	0.00000E+000	-1.90000E-001	8.15923E-005	8	..........a	-327.66
	2622	0.5246	-1.79753E-001	6.59524E-006	0.00000E+000	-1.80000E-001	8.15923E-005	8	..........a	-327.66
	2623	0.5248	-1.69953E-001	6.75525E-006	0.00000E+000	-1.70000E-001	8.15923E-005	8	..........a	-327.66
	2624	0.525	-1.59953E-001	6.82525E-006	0.00000E+000	-1.60000E-001	8.15923E-005	8	..........a	-327.66
	2625	0.5252	-1.50103E-001	6.99526E-006	0.00000E+000	-1.50000E-001	8.15923E-005	8	..........a	-327.66
	2626	0.5254	-1.39753E-001	7.11526E-006	0.00000E+000	-1.40000E-001	8.15923E-005	8	..........a	-327.66
	2627	0.5256	-1.29853E-001	7.20527E-006	0.00000E+000	-1.30000E-001	8.15923E-005	8	..........a	-327.66
	2628	0.5258	-1.19953E-001	7.34527E-006	0.00000E+000	-1.20000E-001	8.15923E-005	8	..........a	-327.66
	2629	0.526	-1.09903E-001	7.46528E-006	0.00000E+000	-1.10000E-001	8.15923E-005	8	..........a	-327.66
	2630	0.5262	-9.98529E-002	7.60528E-006	0.00000E+000	-1.00000E-001	8.15923E-005	8	..........a	-327.66
	2631	0.5264	-8.99529E-002	7.74529E-006	0.00000E+000	-9.00000E-002	8.15923E-005	8	..........a	-327.66
	2632	0.5266	-7.99029E-002	7.83529E-006	0.00000E+000	-8.00000E-002	8.15923E-005	8	..........a	-327.66
	2633	0.5268	-7.00529E-002	8.00530E-006	0.00000E+000	-7.00000E-002	8.15923E-005	8	..........a	-327.66
	2634	0.527	-5.99029E-002	8.14530E-006	0.00000E+000	-6.00000E-002	8.15923E-005	8	..........a	-327.66
	2635	0.5272	-4.99529E-002	8.28531E-006	0.00000E+000	-5.00000E-002	8.15923E-005	8	..........a	-327.66
	2636	0.5274	-3.99529E-002	8.39531E-006	0.00000E+000	-4.00000E-002	8.15923E-005	8	..........a	-327.66
	2637	0.5276	-2.99529E-002	8.53532E-006	0.00000E+000	-3.00000E-002	8.15923E-005	8	..........a	-327.66
	2638	0.5278	-2.00529E-002	8.65532E-006	0.00000E+000	-2.00000E-002	8.15923E-005	8	..........a	-327.66
	2639	0.528	-9.95289E-003	8.79533E-006	0.00000E+000	-1.00000E-002	8.15923E-005	8	..........a	-327.66
	2640	0.5282	-2.88584E-006	8.92533E-006	0.00000E+000	7.45058E-009	8.15923E-005	8	..........a	-327.66
	2641	0.5284	1.00471E-002	9.10534E-006	0.00000E+000	1.00000E-002	8.15923E-005	8	..........a	-327.66
	2642	0.5286	2.01471E-002	9.26535E-006	0.00000E+000	2.00000E-002	8.15923E-005	8	..........a	-327.66
	2643	0.5288	3.00971E-002	9.38535E-006	0.00000E+000	3.00000E-002	8.15923E-005	8	..........a	-327.66
	2644	0.529	4.02471E-002	9.54536E-006	0.00000E+000	4.00000E-002	8.15923E-005	8	..........a	-327.66
	2645	0.5292	5.00471E-002	9.69536E-006	0.00000E+000	5.00000E-002	8.15923E-005	8	..........a	-327.66
	2646	0.5294	6.00471E-002	9.82537E-006	0.00000E+000	6.00000E-002	-4.18408E-004	8	..........a	-327.66
	2647	0.5296	7.00471E-002	1.00654E-005	0.00000E+000	7.00000E-002	8.15923E-005	8	..........a	-327.66
	2648	0.5298	7.99471E-002	1.01954E-005	0.00000E+000	8.00000E-002	8.15923E-005	8	..........a	-327.66
	2649	0.53	9.00471E-002	1.04054E-005	0.00000E+000	9.00000E-002	8.15923E-005	8	..........a	-327.66
	2650	0.5302	1.00247E-001	1.05954E-005	0.00000E+000	1.00000E-001	8.15923E-005	8	..........a	-327.66
	2651	0.5304	1.10147E-001	1.07254E-005	0.00000E+000	1.10000E-001	8.15923E-005	8	..........a	-327.66
	2652	0.5306	1.20147E-001	1.11054E-005	0.00000E+000	1.20000E-001	8.15923E-005	8	..........a	-327.66
	2653	0.5308	1.29947E-001	1.22755E-005	0.00000E+000	1.30000E-001	8.15923E-005	8	..........a	-327.66
	2654	0.531	1.39897E-001	1.32455E-005	0.00000E+000	1.40000E-001	8.15923E-005	8	..........a	-327.66
	2655	0.5312	1.50047E-001	1.37355E-005	0.00000E+000	1.50000E-001	8.15923E-005	8	..........a	-327.66
	2656	0.5314	1.60097E-001	1.33555E-005	0.00000E+000	1.60000E-001	8.15923E-005	8	..........a	-327.66
	2657	0.5316	1.69897E-001	1.27255E-005	0.00000E+000	1.70000E-001	8.15923E-005	8	..........a	-327.66
	2658	0.5318	1.80197E-001	1.25055E-005	0.00000E+000	1.80000E-001	8.15923E-005	8	..........a	-327.66
	2659	0.532	1.90047E-001	1.25355E-005	0.00000E+000	1.90000E-001	8.15923E-005	8	..........a	-327.66
	2660	0.5322	1.99897E-001	1.26455E-005	0.00000E+000	2.00000E-001	8.15923E-005	8	..........a	-327.66
	2661	0.5324	2.10047E-001	1.28455E-005	0.00000E+000	2.10000E-001	8.15923E-005	8	..........a	-327.66
	2662	0.5326	2.20097E-001	1.29555E-005	0.00000E+000	2.20000E-001	8.15923E-005	8	..........a	-327.66
	2663	0.5328	2.29847E-001	1.31755E-005	0.00000E+000	2.30000E-001	8.15923E-005	8	..........a	-327.66
	2664	0.533	2.40147E-001	1.33455E-005	0.00000E+000	2.40000E-001	8.15923E-005	8	..........a	-327.66
	2665	0.5332	2.50047E-001	1.35855E-005	0.00000E+000	2.50000E-001	8.15923E-005	8	..........a	-327.66
	2666	0.5334	2.60147E-001	1.37955E-005	0.00000E+000	2.60000E-001	8.15923E-005	8	..........a	-327.66
	2667	0.5336	2.70047E-001	1.39555E-005	0.00000E+000	2.70000E-001	8.15923E-005	8	..........a	-327.66
	2668	0.5338	2.79947E-001	1.41255E-005	0.00000E+000	2.80000E-001	8.15923E-005	8	..........a	-327.66
	2669	0.534	2.89947E-001	1.43655E-005	0.00000E+000	2.90000E-001	8.15923E-005	8	..........a	-327.66
	2670	0.5342	3.00147E-001	1.45856E-005	0.00000E+000	3.00000E-001	8.15923E-005	8	..........a	-327.66
	2671	0.5344	3.09947E-001	1.47856E-005	0.00000E+000	3.10000E-001	8.15923E-005	8	..........a	-327.66
	2672	0.5346	3.19947E-001	1.49656E-005	0.00000E+000	3.20000E-001	8.15923E-005	8	..........a	-327.66
	2673	0.5348	3.30047E-001	1.51156E-005	0.00000E+000	3.30000E-001	8.15923E-005	8	..........a	-327.66
	2674	0.535	3.40047E-001	1.53256E-005	0.00000E+000	3.40000E-001	8.15923E-005	8	..........a	-327.66
	2675	0.5352	3.49897E-001	1.54656E-005	0.00000E+000	3.50000E-001	8.15923E-005	8	..........a	-327.66
	2676	0.5354	3.59947E-001	1.56956E-005	0.00000E+000	3.60000E-001	8.15923E-005	8	..........a	-327.66
	2677	0.5356	3.69947E-001	1.59056E-005	0.00000E+000	3.70000E-001	8.15923E-005	8	..........a	-327.66
	2678	0.5358	3.80147E-001	1.61556E-005	0.00000E+000	3.80000E-001	8.15923E-005	8	..........a	-327.66
	2679	0.536	3.90047E-001	1.63756E-005	0.00000E+000	3.90000E-001	8.15923E-005	8	..........a	-327.66
	2680	0.5362	4.00047E-001	1.66456E-005	0.00000E+000	4.00000E-001	8.15923E-005	8	..........a	-327.66
	2681	0.5364	4.10047E-001	1.68356E-005	0.00000E+000	4.10000E-001	8.15923E-005	8	..........a	-327.66
	2682	0.5366	4.20047E-001	1.70156E-005	0.00000E+000	4.20000E-001	8.15923E-005	8	..........a	-327.66
	2683	0.5368	4.29947E-001	1.71256E-005	0.00000E+000	4.30000E-001	8.15923E-005	8	..........a	-327.66
	2684	0.537	4.40147E-001	1.72457E-005	0.00000E+000	4.40000E-001	-3.18408E-004	8	..........a	-327.66
	2685	0.5372	4.49647E-001	1.73357E-005	0.00000E+000	4.50000E-001	8.15923E-005	8	..........a	-327.66
	2686	0.5374	4.60047E-001	1.74457E-005	0.00000E+000	4.60000E-001	8.15923E-005	8	..........a	-327.66
	2687	0.5376	4.69897E-001	1.76057E-005	0.00000E+000	4.70000E-001	-1.18408E-004	8	..........a	-327.66
	2688	0.5378	4.79747E-001	1.77657E-005	0.00000E+000	4.80000E-001	8.15923E-005	8	..........a	-327.66
	2689	0.538	4.90047E-001	1.79357E-005	0.00000E+000	4.90000E-001	8.15923E-005	8	..........a	-327.66
	2690	0.5382	5.00147E-001	1.80757E-005	0.00000E+000	5.00000E-001	8.15923E-005	8	..........a	-327.66
	2691	0.5384	5.09947E-001	1.82057E-005	0.00000E+000	5.10000E-001	8.15923E-005	8	..........a	-327.66
	2692	0.5386	5.19947E-001	1.83157E-005	0.00000E+000	5.20000E-001	8.15923E-005	8	..........a	-327.66
	2693	0.5388	5.30047E-001	1.84157E-005	0.00000E+000	5.30000E-001	8.15923E-005	8	..........a	-327.66
	2694	0.539	5.40047E-001	1.84557E-005	0.00000E+000	5.40000E-001	8.15923E-005	8	..........a	-327.66
	2695	0.5392	5.50047E-001	1.84757E-005	0.00000E+000	5.50000E-001	8.15923E-005	8	..........a	-327.66
	2696	0.5394	5.59897E-001	1.85457E-005	0.00000E+000	5.60000E-001	8.15923E-005	8	..........a	-327.66
	2697	0.5396	5.70047E-001	1.85957E-005	0.00000E+000	5.70000E-001	8.15923E-005	8	..........a	-327.66
	2698	0.5398	5.80147E-001	1.87157E-005	0.00000E+000	5.80000E-001	8.15923E-005	8	..........a	-327.66
	2699	0.54	5.89847E-001	1.87657E-005	0.00000E+000	5.90000E-001	8.15923E-005	8	..........a	-327.66
	2700	0.5402	5.99947E-001	1.88357E-005	0.00000E+000	6.00000E-001	-3.18408E-004	8	..........a	-327.66
	2701	0.5404	6.09947E-001	1.88757E-005	0.00000E+000	6.10000E-001	8.15923E-005	8	..........a	-327.66
	2702	0.5406	6.20047E-001	1.89857E-005	0.00000E+000	6.20000E-001	8.15923E-005	8	..........a	-327.66
	2703	0.5408	6.30047E-001	1.90557E-005	0.00000E+000	6.30000E-001	8.15923E-005	8	..........a	-327.66
	2704	0.541	6.39697E-001	1.91257E-005	0.00000E+000	6.40000E-001	8.15923E-005	8	..........a	-327.66
	2705	0.5412	6.49947E-001	1.91957E-005	0.00000E+000	6.50000E-001	8.15923E-005	8	..........a	-327.66
	2706	0.5414	6.59947E-001	1.92557E-005	0.00000E+000	6.60000E-001	-2.18408E-004	8	..........a	-327.66
	2707	0.5416	6.70047E-001	1.93557E-005	0.00000E+000	6.70000E-001	8.15923E-005	8	..........a	-327.66
	2708	0.5418	6.80247E-001	1.93857E-005	0.00000E+000	6.80000E-001	8.15923E-005	8	..........a	-327.66
	2709	0.542	6.89747E-001	1.94757E-005	0.00000E+000	6.90000E-001	8.15923E-005	8	..........a	-327.66
	2710	0.5422	6.99947E-001	1.95257E-005	0.00000E+000	7.00000E-001	8.15923E-005	8	..........a	-327.66
	2711	0.5424	7.09847E-001	1.95357E-005	0.00000E+000	7.10000E-001	8.15923E-005	8	..........a	-327.66
	2712	0.5426	7.19847E-001	1.95557E-005	0.00000E+000	7.20000E-001	8.15923E-005	8	..........a	-327.66
	2713	0.5428	7.30047E-001	1.95857E-005	0.00000E+000	7.30000E-001	8.15923E-005	8	..........a	-327.66
	2714	0.543	7.39947E-001	1.96757E-005	0.00000E+000	7.40000E-001	8.15923E-005	8	..........a	-327.66
	2715	0.5432	7.50047E-001	1.96857E-005	0.00000E+000	7.50000E-001	8.15923E-005	8	..........a	-327.66
	2716	0.5434	7.60047E-001	1.96857E-005	0.00000E+000	7.60000E-001	8.15923E-005	8	..........a	-327.66
	2717	0.5436	7.69947E-001	1.96857E-005	0.00000E+000	7.70000E-001	8.15923E-005	8	..........a	-327.66
	2718	0.5438	7.79947E-001	1.97057E-005	0.00000E+000	7.80000E-001	8.15923E-005	8	..........a	-327.66
	2719	0.544	7.89947E-001	1.97057E-005	0.00000E+000	7.90000E-001	8.15923E-005	8	..........a	-327.66
	2720	0.5442	7.99847E-001	1.97057E-005	0.00000E+000	8.00000E-001	8.15923E-005	8	..........a	-327.66
CURVE11	TABLE
	Pt	T	Vf	Im	Vu	Sig	Ach	IERange	Over	Temp
	#	s	V vs. Ref.	A	V	V	V	#	bits	deg C
	2721	0.5444	7.89847E-001	1.66456E-005	0.00000E+000	7.90000E-001	8.15923E-005	8	..........a	-327.66
	2722	0.5446	7.80047E-001	1.43955E-005	0.00000E+000	7.80000E-001	8.15923E-005	8	..........a	-327.66
	2723	0.5448	7.70047E-001	1.24955E-005	0.00000E+000	7.70000E-001	8.15923E-005	8	..........a	-327.66
	2724	0.545	7.59847E-001	1.09354E-005	0.00000E+000	7.60000E-001	8.15923E-005	8	..........a	-327.66
	2725	0.5452	7.50047E-001	9.58536E-006	0.00000E+000	7.50000E-001	8.15923E-005	8	..........a	-327.66
	2726	0.5454	7.40247E-001	8.32531E-006	0.00000E+000	7.40000E-001	8.15923E-005	8	..........a	-327.66
	2727	0.5456	7.29897E-001	7.16527E-006	0.00000E+000	7.30000E-001	8.15923E-005	8	..........a	-327.66
	2728	0.5458	7.20047E-001	6.17523E-006	0.00000E+000	7.20000E-001	8.15923E-005	8	..........a	-327.66
	2729	0.546	7.09947E-001	5.31520E-006	0.00000E+000	7.10000E-001	8.15923E-005	8	..........a	-327.66
	2730	0.5462	7.00047E-001	4.40516E-006	0.00000E+000	7.00000E-001	8.15923E-005	8	..........a	-327.66
	2731	0.5464	6.89947E-001	3.59513E-006	0.00000E+000	6.90000E-001	8.15923E-005	8	..........a	-327.66
	2732	0.5466	6.79747E-001	2.83510E-006	0.00000E+000	6.80000E-001	8.15923E-005	8	..........a	-327.66
	2733	0.5468	6.69947E-001	2.14507E-006	0.00000E+000	6.70000E-001	8.15923E-005	8	..........a	-327.66
	2734	0.547	6.59847E-001	1.52505E-006	0.00000E+000	6.60000E-001	8.15923E-005	8	..........a	-327.66
	2735	0.5472	6.49947E-001	8.95026E-007	0.00000E+000	6.50000E-001	8.15923E-005	8	..........a	-327.66
	2736	0.5474	6.39797E-001	3.25004E-007	0.00000E+000	6.40000E-001	8.15923E-005	8	..........a	-327.66
	2737	0.5476	6.30047E-001	-2.15016E-007	0.00000E+000	6.30000E-001	8.15923E-005	8	..........a	-327.66
	2738	0.5478	6.20047E-001	-7.05035E-007	0.00000E+000	6.20000E-001	8.15923E-005	8	..........a	-327.66
	2739	0.548	6.10047E-001	-1.22505E-006	0.00000E+000	6.10000E-001	8.15923E-005	8	..........a	-327.66
	2740	0.5482	5.99947E-001	-1.68507E-006	0.00000E+000	6.00000E-001	8.15923E-005	8	..........a	-327.66
	2741	0.5484	5.89947E-001	-2.12509E-006	0.00000E+000	5.90000E-001	8.15923E-005	8	..........a	-327.66
	2742	0.5486	5.80247E-001	-2.59511E-006	0.00000E+000	5.80000E-001	8.15923E-005	8	..........a	-327.66
	2743	0.5488	5.70047E-001	-3.01512E-006	0.00000E+000	5.70000E-001	8.15923E-005	8	..........a	-327.66
	2744	0.549	5.60147E-001	-3.35514E-006	0.00000E+000	5.60000E-001	8.15923E-005	8	..........a	-327.66
	2745	0.5492	5.49947E-001	-3.70515E-006	0.00000E+000	5.50000E-001	8.15923E-005	8	..........a	-327.66
	2746	0.5494	5.40247E-001	-4.13517E-006	0.00000E+000	5.40000E-001	8.15923E-005	8	..........a	-327.66
	2747	0.5496	5.29947E-001	-4.45518E-006	0.00000E+000	5.30000E-001	8.15923E-005	8	..........a	-327.66
	2748	0.5498	5.19947E-001	-4.76519E-006	0.00000E+000	5.20000E-001	8.15923E-005	8	..........a	-327.66
	2749	0.55	5.09947E-001	-5.09520E-006	0.00000E+000	5.10000E-001	8.15923E-005	8	..........a	-327.66
	2750	0.5502	5.00147E-001	-5.42522E-006	0.00000E+000	5.00000E-001	8.15923E-005	8	..........a	-327.66
	2751	0.5504	4.89947E-001	-5.75523E-006	0.00000E+000	4.90000E-001	8.15923E-005	8	..........a	-327.66
	2752	0.5506	4.80047E-001	-6.05524E-006	0.00000E+000	4.80000E-001	8.15923E-005	8	..........a	-327.66
	2753	0.5508	4.69947E-001	-6.37525E-006	0.00000E+000	4.70000E-001	8.15923E-005	8	..........a	-327.66
	2754	0.551	4.60247E-001	-6.68526E-006	0.00000E+000	4.60000E-001	8.15923E-005	8	..........a	-327.66
	2755	0.5512	4.49947E-001	-6.97527E-006	0.00000E+000	4.50000E-001	8.15923E-005	8	..........a	-327.66
	2756	0.5514	4.40097E-001	-7.23528E-006	0.00000E+000	4.40000E-001	8.15923E-005	8	..........a	-327.66
	2757	0.5516	4.29847E-001	-7.53530E-006	0.00000E+000	4.30000E-001	8.15923E-005	8	..........a	-327.66
	2758	0.5518	4.20047E-001	-7.84531E-006	0.00000E+000	4.20000E-001	8.15923E-005	8	..........a	-327.66
	2759	0.552	4.10047E-001	-8.16532E-006	0.00000E+000	4.10000E-001	1.81592E-004	8	..........a	-327.66
	2760	0.5522	4.00147E-001	-8.44533E-006	0.00000E+000	4.00000E-001	8.15923E-005	8	..........a	-327.66
	2761	0.5524	3.90047E-001	-8.77534E-006	0.00000E+000	3.90000E-001	8.15923E-005	8	..........a	-327.66
	2762	0.5526	3.80047E-001	-9.09536E-006	0.00000E+000	3.80000E-001	-3.18408E-004	8	..........a	-327.66
	2763	0.5528	3.70047E-001	-9.41537E-006	0.00000E+000	3.70000E-001	8.15923E-005	8	..........a	-327.66
	2764	0.553	3.59847E-001	-9.69538E-006	0.00000E+000	3.60000E-001	8.15923E-005	8	..........a	-327.66
	2765	0.5532	3.50047E-001	-1.00754E-005	0.00000E+000	3.50000E-001	8.15923E-005	8	..........a	-327.66
	2766	0.5534	3.40047E-001	-1.03254E-005	0.00000E+000	3.40000E-001	8.15923E-005	8	..........a	-327.66
	2767	0.5536	3.30047E-001	-1.05654E-005	0.00000E+000	3.30000E-001	8.15923E-005	8	..........a	-327.66
	2768	0.5538	3.19997E-001	-1.07954E-005	0.00000E+000	3.20000E-001	8.15923E-005	8	..........a	-327.66
	2769	0.554	3.10047E-001	-1.09754E-005	0.00000E+000	3.10000E-001	8.15923E-005	8	..........a	-327.66
	2770	0.5542	3.00147E-001	-1.11754E-005	0.00000E+000	3.00000E-001	8.15923E-005	8	..........a	-327.66
	2771	0.5544	2.90047E-001	-1.13854E-005	0.00000E+000	2.90000E-001	8.15923E-005	8	..........a	-327.66
	2772	0.5546	2.80047E-001	-1.16255E-005	0.00000E+000	2.80000E-001	8.15923E-005	8	..........a	-327.66
	2773	0.5548	2.70047E-001	-1.18455E-005	0.00000E+000	2.70000E-001	8.15923E-005	8	..........a	-327.66
	2774	0.555	2.60047E-001	-1.21055E-005	0.00000E+000	2.60000E-001	8.15923E-005	8	..........a	-327.66
	2775	0.5552	2.49897E-001	-1.23855E-005	0.00000E+000	2.50000E-001	8.15923E-005	8	..........a	-327.66
	2776	0.5554	2.40047E-001	-1.26255E-005	0.00000E+000	2.40000E-001	8.15923E-005	8	..........a	-327.66
	2777	0.5556	2.29947E-001	-1.28255E-005	0.00000E+000	2.30000E-001	8.15923E-005	8	..........a	-327.66
	2778	0.5558	2.19847E-001	-1.30555E-005	0.00000E+000	2.20000E-001	8.15923E-005	8	..........a	-327.66
	2779	0.556	2.10047E-001	-1.32755E-005	0.00000E+000	2.10000E-001	8.15923E-005	8	..........a	-327.66
	2780	0.5562	2.00047E-001	-1.35155E-005	0.00000E+000	2.00000E-001	-3.18408E-004	8	..........a	-327.66
	2781	0.5564	1.90047E-001	-1.36355E-005	0.00000E+000	1.90000E-001	8.15923E-005	8	..........a	-327.66
	2782	0.5566	1.80147E-001	-1.38355E-005	0.00000E+000	1.80000E-001	8.15923E-005	8	..........a	-327.66
	2783	0.5568	1.69947E-001	-1.39755E-005	0.00000E+000	1.70000E-001	8.15923E-005	8	..........a	-327.66
	2784	0.557	1.60047E-001	-1.40855E-005	0.00000E+000	1.60000E-001	8.15923E-005	8	..........a	-327.66
	2785	0.5572	1.50047E-001	-1.42756E-005	0.00000E+000	1.50000E-001	-2.18408E-004	8	..........a	-327.66
	2786	0.5574	1.40047E-001	-1.43756E-005	0.00000E+000	1.40000E-001	8.15923E-005	8	..........a	-327.66
	2787	0.5576	1.30047E-001	-1.44556E-005	0.00000E+000	1.30000E-001	8.15923E-005	8	..........a	-327.66
	2788	0.5578	1.20047E-001	-1.46056E-005	0.00000E+000	1.20000E-001	8.15923E-005	8	..........a	-327.66
	2789	0.558	1.10147E-001	-1.46956E-005	0.00000E+000	1.10000E-001	8.15923E-005	8	..........a	-327.66
	2790	0.5582	1.00147E-001	-1.47956E-005	0.00000E+000	1.00000E-001	8.15923E-005	8	..........a	-327.66
	2791	0.5584	9.00471E-002	-1.48556E-005	0.00000E+000	9.00000E-002	-2.18408E-004	8	..........a	-327.66
	2792	0.5586	8.00471E-002	-1.49656E-005	0.00000E+000	8.00000E-002	8.15923E-005	8	..........a	-327.66
	2793	0.5588	7.00471E-002	-1.50756E-005	0.00000E+000	7.00000E-002	8.15923E-005	8	..........a	-327.66
	2794	0.559	6.00471E-002	-1.51556E-005	0.00000E+000	6.00000E-002	8.15923E-005	8	..........a	-327.66
	2795	0.5592	5.00471E-002	-1.52756E-005	0.00000E+000	5.00000E-002	8.15923E-005	8	..........a	-327.66
	2796	0.5594	3.99471E-002	-1.53456E-005	0.00000E+000	4.00000E-002	8.15923E-005	8	..........a	-327.66
	2797	0.5596	3.00471E-002	-1.53956E-005	0.00000E+000	3.00000E-002	8.15923E-005	8	..........a	-327.66
	2798	0.5598	2.00971E-002	-1.55156E-005	0.00000E+000	2.00000E-002	8.15923E-005	8	..........a	-327.66