File: data/raw/batch_data/20240424_ZY_GM0016_HL03_E13_CV50.DTA
EXPLAIN
TAG	CV
TITLE	LABEL	Cyclic Voltammetry	Test &Identifier
DATE	LABEL	4/24/2024	Date
TIME	LABEL	19:34:43	Time
NOTES	NOTES	1	&Notes...

PSTAT	PSTAT	REF600P-43058	Potentiostat
VINIT	POTEN	0.00000E+000	T	Initial &E (V)
VLIMIT1	POTEN	-6.00000E-001	F	Scan Limit &1 (V)
VLIMIT2	POTEN	8.00000E-001	F	Scan Limit &2 (V)
VFINAL	POTEN	0.00000E+000	T	Final &E (V)
SCANRATE	QUANT	4.99999E+001	&Scan Rate (mV/s)
STEPSIZE	QUANT	1.00000E+001	St&ep Size (mV)
CYCLES	IQUANT	4	C&ycles (#)
IMODE	SELECTOR	0	I/E Range &Mode
IRANGE	QUANT	1.00000E-005	&Max Current (mA)
AREA	QUANT	1.00000E+000	Electrode &Area (cm^2)
ELECTRODETYPE	SELECTOR	0	Electrode Type
STRIPPING	TOGGLE	F	Used for Stripping
POLARITY	TOGGLE	F	Signal Polarity
CONDIT	TWOPARAM	F	1.50000E+001	0.00000E+000	Conditionin&g	Time(s)	E(V)
DELAY	TWOPARAM	T	1.00000E+001	0.00000E+000	Init. De&lay	Time(s)	Stab.(mV/s)
EQDELAY	QUANT	1.00000E+001	Equil. &Time (s)
IRCOMP	SELECTOR	0	IRCom&p
PFCOR	QUANT	5.00000E+001	PF Corr. (ohm)
SAMPLINGMODE	SELECTOR	1	Sampling &Mode
OCVCURVE	TABLE	39
	Pt	T	Vf	Vm	Ach	Over	Temp
	#	s	V vs. Ref.	V	V	bits	deg C
	0	0.258333	1.25664E-002	1.25664E-002	2.50526E-004	..........a	-327.66
	1	0.516667	1.25670E-002	1.26003E-002	2.42726E-004	..........a	-327.66
	2	0.775	1.25710E-002	1.26331E-002	2.40392E-004	..........a	-327.66
	3	1.03333	1.25824E-002	1.26666E-002	2.38726E-004	..........a	-327.66
	4	1.29167	1.26030E-002	1.26991E-002	2.48126E-004	..........a	-327.66
	5	1.55	1.26309E-002	1.27292E-002	2.32392E-004	..........a	-327.66
	6	1.80833	1.26624E-002	1.27628E-002	2.33326E-004	..........a	-327.66
	7	2.06667	1.26950E-002	1.27946E-002	2.32392E-004	..........a	-327.66
	8	2.325	1.27276E-002	1.28271E-002	2.37926E-004	..........a	-327.66
	9	2.58333	1.27600E-002	1.28621E-002	2.44126E-004	..........a	-327.66
	10	2.84167	1.27926E-002	1.28931E-002	2.39859E-004	..........a	-327.66
	11	3.1	1.28254E-002	1.29263E-002	2.40659E-004	..........a	-327.66
	12	3.35833	1.28582E-002	1.29574E-002	2.30792E-004	..........a	-327.66
	13	3.61667	1.28907E-002	1.29822E-002	2.30259E-004	..........a	-327.66
	14	3.875	1.29221E-002	1.30082E-002	2.37592E-004	..........a	-327.66
	15	4.13333	1.29518E-002	1.30313E-002	2.26992E-004	..........a	-327.66
	16	4.39167	1.29793E-002	1.30507E-002	2.31859E-004	..........a	-327.66
	17	4.65	1.30045E-002	1.30729E-002	2.23392E-004	..........a	-327.66
	18	4.90833	1.30278E-002	1.30947E-002	2.36259E-004	..........a	-327.66
	19	5.16667	1.30499E-002	1.31160E-002	2.37259E-004	..........a	-327.66
	20	5.425	1.30716E-002	1.31405E-002	2.27392E-004	..........a	-327.66
	21	5.68333	1.30933E-002	1.31603E-002	2.39126E-004	..........a	-327.66
	22	5.94167	1.31152E-002	1.31839E-002	2.29592E-004	..........a	-327.66
	23	6.2	1.31374E-002	1.32097E-002	2.25059E-004	..........a	-327.66
	24	6.45833	1.31600E-002	1.32313E-002	2.24926E-004	..........a	-327.66
	25	6.71667	1.31830E-002	1.32503E-002	2.29926E-004	..........a	-327.66
	26	6.975	1.32059E-002	1.32739E-002	2.29526E-004	..........a	-327.66
	27	7.23333	1.32283E-002	1.32971E-002	2.33726E-004	..........a	-327.66
	28	7.49167	1.32504E-002	1.33209E-002	2.25192E-004	..........a	-327.66
	29	7.75	1.32728E-002	1.33479E-002	2.41526E-004	..........a	-327.66
	30	8.00833	1.32962E-002	1.33759E-002	2.31059E-004	..........a	-327.66
	31	8.26667	1.33208E-002	1.34024E-002	2.37792E-004	..........a	-327.66
	32	8.525	1.33465E-002	1.34269E-002	2.19926E-004	..........a	-327.66
	33	8.78333	1.33730E-002	1.34546E-002	2.33392E-004	..........a	-327.66
	34	9.04167	1.33999E-002	1.35034E-002	2.24792E-004	..........a	-327.66
	35	9.3	1.34293E-002	1.35705E-002	2.28326E-004	..........a	-327.66
	36	9.5583	1.34656E-002	1.36381E-002	2.30792E-004	..........a	-327.66
	37	9.8167	1.35119E-002	1.36948E-002	2.40659E-004	..........a	-327.66
	38	10.075	1.35672E-002	1.37450E-002	2.30059E-004	..........a	-327.66
EOC	QUANT	0.0135672	Open Circuit (V)
PSTATMODEL	IQUANT	7	Pstat Model
PSTATSECTION	LABEL	REF600P-43058	Pstat Section
PSTATSERIALNO	LABEL	43058	Pstat Serial Number
CTRLMODE	IQUANT	1	Control Mode
ELECTROMETER	IQUANT	0	RE=0 or CS=1
IESTAB	IQUANT	2	I/E Stability
CASPEED	IQUANT	4	Control Amp Speed
CONVENTION	IQUANT	1	Current Convention
ICHRANGE	IQUANT	2	Ich Range
ICHRANGEMODE	TOGGLE	F	Ich Auto Range
ICHOFFSETENABLE	TOGGLE	F	Ich Offset Enable
ICHOFFSET	QUANT	0	Ich Offset (V)
ICHFILTER	IQUANT	2	Ich Filter
VCHRANGE	IQUANT	2	Vch Range
VCHRANGEMODE	TOGGLE	F	Vch Auto Range
VCHOFFSETENABLE	TOGGLE	F	Vch Offset Enable
VCHOFFSET	QUANT	0	Vch Offset (V)
VCHFILTER	IQUANT	2	Vch Filter
ACHRANGE	IQUANT	2	Ach Range
ACHOFFSETENABLE	TOGGLE	F	Ach Offset Enable
ACHOFFSET	QUANT	0	Ach Offset (V)
ACHFILTER	IQUANT	1	Ach Filter
IERANGELOWERLIMIT	IQUANT	1	I/E Range Lower Limit
IERANGEMODE	TOGGLE	T	I/E AutoRange
IERANGE	IQUANT	4	I/E Range
POSFEEDENABLE	TOGGLE	F	Positive Feedback IR Comp
POSFEEDRESISTANCE	QUANT	0	Positive Feedback Resistance (ohm)
ACHSELECT	IQUANT	4	Ach Select
SENSECABLEID	IQUANT	7	Sense Cable ID
PWRCABLEID	IQUANT	7	Power Cable ID
DCCALDATE	LABEL	3/22/2024	DC Calibration Date
ACCALDATE	LABEL	3/22/2024	AC Calibration Date
THERMOSELECT	IQUANT	1	Thermo Select
FRAMEWORKVERSION	LABEL	7.8.4	Framework Version
INSTRUMENTVERSION	LABEL	4.42	Instrument Version
CURVE1	TABLE
	Pt	T	Vf	Im	Vu	Sig	Ach	IERange	Over	Temp
	#	s	V vs. Ref.	A	V	V	V	#	bits	deg C
	0	0.2	1.36837E-002	6.89491E-011	0.00000E+000	1.35500E-002	9.99892E-004	5	..........a	-327.66
	1	0.4	3.66909E-003	-4.49859E-009	0.00000E+000	3.55000E-003	9.89492E-004	5	..........a	-327.66
	2	0.6	-6.43361E-003	-7.61510E-009	0.00000E+000	-6.45000E-003	9.99092E-004	5	..........a	-327.66
	3	0.8	-1.63498E-002	-1.01881E-008	0.00000E+000	-1.64500E-002	9.85392E-004	5	..........a	-327.66
	4	1	-2.63911E-002	-1.24811E-008	0.00000E+000	-2.64500E-002	9.95192E-004	5	..........a	-327.66
	5	1.2	-3.62982E-002	-1.46135E-008	0.00000E+000	-3.64500E-002	9.93792E-004	5	..........a	-327.66
	6	1.4	-4.64106E-002	-1.66283E-008	0.00000E+000	-4.64500E-002	1.00429E-003	5	..........a	-327.66
	7	1.6	-5.63289E-002	-1.85331E-008	0.00000E+000	-5.64500E-002	9.92992E-004	5	..........a	-327.66
	8	1.8	-6.63475E-002	-2.04045E-008	0.00000E+000	-6.64500E-002	1.00339E-003	5	..........a	-327.66
	9	2	-7.63965E-002	-2.22610E-008	0.00000E+000	-7.64500E-002	1.00079E-003	5	..........a	-327.66
	10	2.2	-8.62884E-002	-2.40460E-008	0.00000E+000	-8.64500E-002	9.92492E-004	5	..........a	-327.66
	11	2.4	-9.63249E-002	-2.58450E-008	0.00000E+000	-9.64500E-002	1.01169E-003	5	..........a	-327.66
	12	2.6	-1.06365E-001	-2.76526E-008	0.00000E+000	-1.06450E-001	9.94092E-004	5	..........a	-327.66
	13	2.8	-1.16351E-001	-2.94337E-008	0.00000E+000	-1.16450E-001	9.96592E-004	5	..........a	-327.66
	14	3	-1.26398E-001	-3.12782E-008	0.00000E+000	-1.26450E-001	1.00539E-003	5	..........a	-327.66
	15	3.2	-1.36387E-001	-3.31274E-008	0.00000E+000	-1.36450E-001	1.00659E-003	5	..........a	-327.66
	16	3.4	-1.46349E-001	-3.50052E-008	0.00000E+000	-1.46450E-001	9.88992E-004	5	..........a	-327.66
	17	3.6	-1.56374E-001	-3.68700E-008	0.00000E+000	-1.56450E-001	1.00099E-003	5	..........a	-327.66
	18	3.8	-1.66355E-001	-3.87969E-008	0.00000E+000	-1.66450E-001	9.86492E-004	5	..........a	-327.66
	19	4	-1.76345E-001	-4.07095E-008	0.00000E+000	-1.76450E-001	9.88092E-004	5	..........a	-327.66
	20	4.2	-1.86338E-001	-4.26713E-008	0.00000E+000	-1.86450E-001	9.85792E-004	5	..........a	-327.66
	21	4.4	-1.96327E-001	-4.45597E-008	0.00000E+000	-1.96450E-001	1.00869E-003	5	..........a	-327.66
	22	4.6	-2.06337E-001	-4.65221E-008	0.00000E+000	-2.06450E-001	9.88092E-004	5	..........a	-327.66
	23	4.8	-2.16304E-001	-4.84172E-008	0.00000E+000	-2.16450E-001	9.88092E-004	5	..........a	-327.66
	24	5	-2.26301E-001	-5.02977E-008	0.00000E+000	-2.26450E-001	1.00359E-003	5	..........a	-327.66
	25	5.2	-2.36335E-001	-5.21919E-008	0.00000E+000	-2.36450E-001	1.00789E-003	5	..........a	-327.66
	26	5.4	-2.46316E-001	-5.40431E-008	0.00000E+000	-2.46450E-001	9.87192E-004	5	..........a	-327.66
	27	5.6	-2.56311E-001	-5.59062E-008	0.00000E+000	-2.56450E-001	1.02109E-003	5	..........a	-327.66
	28	5.8	-2.66293E-001	-5.77737E-008	0.00000E+000	-2.66450E-001	9.74392E-004	5	..........a	-327.66
	29	6	-2.76329E-001	-5.96269E-008	0.00000E+000	-2.76450E-001	9.91892E-004	5	..........a	-327.66
	30	6.2	-2.86337E-001	-6.15009E-008	0.00000E+000	-2.86450E-001	9.84592E-004	5	..........a	-327.66
	31	6.4	-2.96291E-001	-6.34224E-008	0.00000E+000	-2.96450E-001	9.89892E-004	5	..........a	-327.66
	32	6.6	-3.06316E-001	-6.53512E-008	0.00000E+000	-3.06450E-001	9.83692E-004	5	..........a	-327.66
	33	6.8	-3.16319E-001	-6.73237E-008	0.00000E+000	-3.16450E-001	9.94792E-004	5	..........a	-327.66
	34	7	-3.26341E-001	-6.93054E-008	0.00000E+000	-3.26450E-001	1.01099E-003	5	..........a	-327.66
	35	7.2	-3.36318E-001	-7.13467E-008	0.00000E+000	-3.36450E-001	9.91592E-004	5	..........a	-327.66
	36	7.4	-3.46295E-001	-7.34500E-008	0.00000E+000	-3.46450E-001	9.97792E-004	5	..........a	-327.66
	37	7.6	-3.56323E-001	-7.56005E-008	0.00000E+000	-3.56450E-001	9.92892E-004	5	..........a	-327.66
	38	7.8	-3.66329E-001	-7.77670E-008	0.00000E+000	-3.66450E-001	1.01289E-003	5	..........a	-327.66
	39	8	-3.76274E-001	-7.99782E-008	0.00000E+000	-3.76450E-001	1.00049E-003	5	..........a	-327.66
	40	8.2	-3.86256E-001	-8.22904E-008	0.00000E+000	-3.86450E-001	9.92092E-004	5	..........a	-327.66
	41	8.4	-3.96310E-001	-8.45998E-008	0.00000E+000	-3.96450E-001	1.03209E-003	5	..........a	-327.66
	42	8.6	-4.06288E-001	-8.69309E-008	0.00000E+000	-4.06450E-001	9.81092E-004	5	..........a	-327.66
	43	8.8	-4.16309E-001	-8.93041E-008	0.00000E+000	-4.16450E-001	1.00919E-003	5	..........a	-327.66
	44	9	-4.26248E-001	-9.17376E-008	0.00000E+000	-4.26450E-001	9.90892E-004	5	..........a	-327.66
	45	9.2	-4.36321E-001	-9.42200E-008	0.00000E+000	-4.36450E-001	9.89592E-004	5	..........a	-327.66
	46	9.4	-4.46192E-001	-9.67172E-008	0.00000E+000	-4.46450E-001	9.96892E-004	5	..........a	-327.66
	47	9.6	-4.56296E-001	-9.92332E-008	0.00000E+000	-4.56450E-001	9.99392E-004	5	..........a	-327.66
	48	9.8	-4.66185E-001	-1.01825E-007	0.00000E+000	-4.66450E-001	9.95092E-004	5	..........a	-327.66
	49	10	-4.76258E-001	-1.04399E-007	0.00000E+000	-4.76450E-001	9.86692E-004	5	..........a	-327.66
	50	10.2	-4.86284E-001	-1.07012E-007	0.00000E+000	-4.86450E-001	1.02489E-003	5	..........a	-327.66
	51	10.4	-4.96253E-001	-1.09623E-007	0.00000E+000	-4.96450E-001	1.00199E-003	5	..........a	-327.66
	52	10.6	-5.06225E-001	-1.12236E-007	0.00000E+000	-5.06450E-001	1.00589E-003	5	..........a	-327.66
	53	10.8	-5.16295E-001	-1.14899E-007	0.00000E+000	-5.16450E-001	1.00239E-003	5	..........a	-327.66
	54	11	-5.26244E-001	-1.17535E-007	0.00000E+000	-5.26450E-001	9.84692E-004	5	..........a	-327.66
	55	11.2	-5.36287E-001	-1.20173E-007	0.00000E+000	-5.36450E-001	9.99892E-004	5	..........a	-327.66
	56	11.4	-5.46196E-001	-1.22809E-007	0.00000E+000	-5.46450E-001	9.92792E-004	5	..........a	-327.66
	57	11.6	-5.56272E-001	-1.25462E-007	0.00000E+000	-5.56450E-001	1.00289E-003	5	..........a	-327.66
	58	11.8	-5.66255E-001	-1.28043E-007	0.00000E+000	-5.66450E-001	9.99392E-004	5	..........a	-327.66
	59	12	-5.76244E-001	-1.30672E-007	0.00000E+000	-5.76450E-001	9.79292E-004	5	..........a	-327.66
	60	12.2	-5.86212E-001	-1.33289E-007	0.00000E+000	-5.86450E-001	9.79692E-004	5	..........a	-327.66
	61	12.4	-5.96292E-001	-1.35898E-007	0.00000E+000	-5.96450E-001	1.00809E-003	5	..........a	-327.66
	62	12.6	-5.86210E-001	-1.20217E-007	0.00000E+000	-5.86450E-001	9.82192E-004	5	..........a	-327.66
	63	12.8	-5.76252E-001	-1.09642E-007	0.00000E+000	-5.76450E-001	9.95192E-004	5	..........a	-327.66
	64	13	-5.66311E-001	-1.01286E-007	0.00000E+000	-5.66450E-001	1.00299E-003	5	..........a	-327.66
	65	13.2	-5.56274E-001	-9.42249E-008	0.00000E+000	-5.56450E-001	9.89592E-004	5	..........a	-327.66
	66	13.4	-5.46221E-001	-8.80392E-008	0.00000E+000	-5.46450E-001	9.76492E-004	5	..........a	-327.66
	67	13.6	-5.36282E-001	-8.24978E-008	0.00000E+000	-5.36450E-001	9.88292E-004	5	..........a	-327.66
	68	13.8	-5.26267E-001	-7.74271E-008	0.00000E+000	-5.26450E-001	9.83792E-004	5	..........a	-327.66
	69	14	-5.16293E-001	-7.27662E-008	0.00000E+000	-5.16450E-001	9.80192E-004	5	..........a	-327.66
	70	14.2	-5.06262E-001	-6.84155E-008	0.00000E+000	-5.06450E-001	9.95492E-004	5	..........a	-327.66
	71	14.4	-4.96255E-001	-6.43721E-008	0.00000E+000	-4.96450E-001	9.98092E-004	5	..........a	-327.66
	72	14.6	-4.86309E-001	-6.05620E-008	0.00000E+000	-4.86450E-001	9.95292E-004	5	..........a	-327.66
	73	14.8	-4.76259E-001	-5.69406E-008	0.00000E+000	-4.76450E-001	9.98192E-004	5	..........a	-327.66
	74	15	-4.66235E-001	-5.35423E-008	0.00000E+000	-4.66450E-001	1.00109E-003	5	..........a	-327.66
	75	15.2	-4.56282E-001	-5.02763E-008	0.00000E+000	-4.56450E-001	9.84892E-004	5	..........a	-327.66
	76	15.4	-4.46207E-001	-4.71765E-008	0.00000E+000	-4.46450E-001	1.00499E-003	5	..........a	-327.66
	77	15.6	-4.36289E-001	-4.42243E-008	0.00000E+000	-4.36450E-001	9.94892E-004	5	..........a	-327.66
	78	15.8	-4.26269E-001	-4.13706E-008	0.00000E+000	-4.26450E-001	9.67892E-004	5	..........a	-327.66
	79	16	-4.16333E-001	-3.86049E-008	0.00000E+000	-4.16450E-001	1.00179E-003	5	..........a	-327.66
	80	16.2	-4.06333E-001	-3.59484E-008	0.00000E+000	-4.06450E-001	1.00239E-003	5	..........a	-327.66
	81	16.4	-3.96343E-001	-3.34243E-008	0.00000E+000	-3.96450E-001	9.96592E-004	5	..........a	-327.66
	82	16.6	-3.86277E-001	-3.09707E-008	0.00000E+000	-3.86450E-001	9.93292E-004	5	..........a	-327.66
	83	16.8	-3.76285E-001	-2.85895E-008	0.00000E+000	-3.76450E-001	9.94792E-004	5	..........a	-327.66
	84	17	-3.66336E-001	-2.62951E-008	0.00000E+000	-3.66450E-001	9.89392E-004	5	..........a	-327.66
	85	17.2	-3.56316E-001	-2.40690E-008	0.00000E+000	-3.56450E-001	9.94492E-004	5	..........a	-327.66
	86	17.4	-3.46317E-001	-2.19381E-008	0.00000E+000	-3.46450E-001	9.81392E-004	5	..........a	-327.66
	87	17.6	-3.36316E-001	-1.98243E-008	0.00000E+000	-3.36450E-001	1.00319E-003	5	..........a	-327.66
	88	17.8	-3.26392E-001	-1.78018E-008	0.00000E+000	-3.26450E-001	9.99892E-004	5	..........a	-327.66
	89	18	-3.16321E-001	-1.58171E-008	0.00000E+000	-3.16450E-001	9.92092E-004	5	..........a	-327.66
	90	18.2	-3.06358E-001	-1.38565E-008	0.00000E+000	-3.06450E-001	9.89192E-004	5	..........a	-327.66
	91	18.4	-2.96308E-001	-1.20015E-008	0.00000E+000	-2.96450E-001	1.00069E-003	5	..........a	-327.66
	92	18.6	-2.86373E-001	-1.01957E-008	0.00000E+000	-2.86450E-001	1.00379E-003	5	..........a	-327.66
	93	18.8	-2.76319E-001	-8.40486E-009	0.00000E+000	-2.76450E-001	1.00269E-003	5	..........a	-327.66
	94	19	-2.66315E-001	-6.65824E-009	0.00000E+000	-2.66450E-001	9.72592E-004	5	..........a	-327.66
	95	19.2	-2.56298E-001	-4.94371E-009	0.00000E+000	-2.56450E-001	9.89792E-004	5	..........a	-327.66
	96	19.4	-2.46323E-001	-3.25239E-009	0.00000E+000	-2.46450E-001	9.93192E-004	5	..........a	-327.66
	97	19.6	-2.36401E-001	-1.61761E-009	0.00000E+000	-2.36450E-001	9.95692E-004	5	..........a	-327.66
	98	19.8	-2.26339E-001	-4.35751E-011	0.00000E+000	-2.26450E-001	9.72792E-004	5	..........a	-327.66
	99	20	-2.16321E-001	1.60134E-009	0.00000E+000	-2.16450E-001	9.92892E-004	5	..........a	-327.66
	100	20.2	-2.06430E-001	3.15706E-009	0.00000E+000	-2.06450E-001	1.02339E-003	5	..........a	-327.66
	101	20.4	-1.96391E-001	4.69456E-009	0.00000E+000	-1.96450E-001	9.92792E-004	5	..........a	-327.66
	102	20.6	-1.86372E-001	6.18817E-009	0.00000E+000	-1.86450E-001	1.00039E-003	5	..........a	-327.66
	103	20.8	-1.76433E-001	7.66633E-009	0.00000E+000	-1.76450E-001	1.00819E-003	5	..........a	-327.66
	104	21	-1.66391E-001	9.12849E-009	0.00000E+000	-1.66450E-001	1.00199E-003	5	..........a	-327.66
	105	21.2	-1.56395E-001	1.05428E-008	0.00000E+000	-1.56450E-001	1.00179E-003	5	..........a	-327.66
	106	21.4	-1.46389E-001	1.19784E-008	0.00000E+000	-1.46450E-001	1.00409E-003	5	..........a	-327.66
	107	21.6	-1.36432E-001	1.33958E-008	0.00000E+000	-1.36450E-001	1.02919E-003	5	..........a	-327.66
	108	21.8	-1.26435E-001	1.47919E-008	0.00000E+000	-1.26450E-001	9.93292E-004	5	..........a	-327.66
	109	22	-1.16384E-001	1.61469E-008	0.00000E+000	-1.16450E-001	1.01089E-003	5	..........a	-327.66
	110	22.2	-1.06377E-001	1.75133E-008	0.00000E+000	-1.06450E-001	1.00309E-003	5	..........a	-327.66
	111	22.4	-9.63666E-002	1.88522E-008	0.00000E+000	-9.64500E-002	1.00959E-003	5	..........a	-327.66
	112	22.6	-8.64010E-002	2.02047E-008	0.00000E+000	-8.64500E-002	1.00539E-003	5	..........a	-327.66
	113	22.8	-7.64376E-002	2.15414E-008	0.00000E+000	-7.64500E-002	9.93892E-004	5	..........a	-327.66
	114	23	-6.63716E-002	2.28580E-008	0.00000E+000	-6.64500E-002	9.89792E-004	5	..........a	-327.66
	115	23.2	-5.63842E-002	2.41860E-008	0.00000E+000	-5.64500E-002	9.91592E-004	5	..........a	-327.66
	116	23.4	-4.64194E-002	2.54723E-008	0.00000E+000	-4.64500E-002	9.89692E-004	5	..........a	-327.66
	117	23.6	-3.63366E-002	2.67836E-008	0.00000E+000	-3.64500E-002	9.94992E-004	5	..........a	-327.66
	118	23.8	-2.64018E-002	2.80953E-008	0.00000E+000	-2.64500E-002	9.94192E-004	5	..........a	-327.66
	119	24	-1.63633E-002	2.94239E-008	0.00000E+000	-1.64500E-002	1.00119E-003	5	..........a	-327.66
	120	24.2	-6.43476E-003	3.06867E-008	0.00000E+000	-6.45000E-003	9.87992E-004	5	..........a	-327.66
	121	24.4	3.60969E-003	3.19972E-008	0.00000E+000	3.55000E-003	9.94292E-004	5	..........a	-327.66
	122	24.6	1.37031E-002	3.32731E-008	0.00000E+000	1.35500E-002	1.00169E-003	5	..........a	-327.66
	123	24.8	2.35752E-002	3.46037E-008	0.00000E+000	2.35500E-002	1.02289E-003	5	..........a	-327.66
	124	25	3.35993E-002	3.58814E-008	0.00000E+000	3.35500E-002	9.96392E-004	5	..........a	-327.66
	125	25.2	4.35854E-002	3.71896E-008	0.00000E+000	4.35500E-002	1.01339E-003	5	..........a	-327.66
	126	25.4	5.35809E-002	3.84909E-008	0.00000E+000	5.35500E-002	1.01259E-003	5	..........a	-327.66
	127	25.6	6.36400E-002	3.98104E-008	0.00000E+000	6.35500E-002	9.98692E-004	5	..........a	-327.66
	128	25.8	7.35466E-002	4.11560E-008	0.00000E+000	7.35500E-002	1.01139E-003	5	..........a	-327.66
	129	26	8.35782E-002	4.25144E-008	0.00000E+000	8.35500E-002	1.00239E-003	5	..........a	-327.66
	130	26.2	9.36411E-002	4.38874E-008	0.00000E+000	9.35500E-002	9.79292E-004	5	..........a	-327.66
	131	26.4	1.03632E-001	4.52575E-008	0.00000E+000	1.03550E-001	9.97992E-004	5	..........a	-327.66
	132	26.6	1.13607E-001	4.65996E-008	0.00000E+000	1.13550E-001	9.97592E-004	5	..........a	-327.66
	133	26.8	1.23614E-001	4.80143E-008	0.00000E+000	1.23550E-001	9.96692E-004	5	..........a	-327.66
	134	27	1.33599E-001	4.93775E-008	0.00000E+000	1.33550E-001	1.00789E-003	5	..........a	-327.66
	135	27.2	1.43635E-001	5.07594E-008	0.00000E+000	1.43550E-001	1.00409E-003	5	..........a	-327.66
	136	27.4	1.53549E-001	5.21916E-008	0.00000E+000	1.53550E-001	9.97992E-004	5	..........a	-327.66
	137	27.6	1.63568E-001	5.36346E-008	0.00000E+000	1.63550E-001	1.00829E-003	5	..........a	-327.66
	138	27.8	1.73615E-001	5.50542E-008	0.00000E+000	1.73550E-001	9.90992E-004	5	..........a	-327.66
	139	28	1.83614E-001	5.65526E-008	0.00000E+000	1.83550E-001	9.85392E-004	5	..........a	-327.66
	140	28.2	1.93589E-001	5.80337E-008	0.00000E+000	1.93550E-001	9.98392E-004	5	..........a	-327.66
	141	28.4	2.03571E-001	5.96680E-008	0.00000E+000	2.03550E-001	1.01499E-003	5	..........a	-327.66
	142	28.6	2.13560E-001	6.14806E-008	0.00000E+000	2.13550E-001	9.92592E-004	5	..........a	-327.66
	143	28.8	2.23575E-001	6.32571E-008	0.00000E+000	2.23550E-001	1.00899E-003	5	..........a	-327.66
	144	29	2.33521E-001	6.49630E-008	0.00000E+000	2.33550E-001	9.99292E-004	5	..........a	-327.66
	145	29.2	2.43620E-001	6.65322E-008	0.00000E+000	2.43550E-001	1.01869E-003	5	..........a	-327.66
	146	29.4	2.53555E-001	6.81406E-008	0.00000E+000	2.53550E-001	9.89892E-004	5	..........a	-327.66
	147	29.6	2.63586E-001	6.97870E-008	0.00000E+000	2.63550E-001	1.00329E-003	5	..........a	-327.66
	148	29.8	2.73514E-001	7.14648E-008	0.00000E+000	2.73550E-001	9.94092E-004	5	..........a	-327.66
	149	30	2.83529E-001	7.32704E-008	0.00000E+000	2.83550E-001	1.01119E-003	5	..........a	-327.66
	150	30.2	2.93534E-001	7.52061E-008	0.00000E+000	2.93550E-001	9.98292E-004	5	..........a	-327.66
	151	30.4	3.03602E-001	7.72069E-008	0.00000E+000	3.03550E-001	1.00979E-003	5	..........a	-327.66
	152	30.6	3.13522E-001	7.93803E-008	0.00000E+000	3.13550E-001	1.00639E-003	5	..........a	-327.66
	153	30.8	3.23574E-001	8.16961E-008	0.00000E+000	3.23550E-001	9.99592E-004	5	..........a	-327.66
	154	31	3.33516E-001	8.41345E-008	0.00000E+000	3.33550E-001	9.99992E-004	5	..........a	-327.66
	155	31.2	3.43596E-001	8.67194E-008	0.00000E+000	3.43550E-001	1.00679E-003	5	..........a	-327.66
	156	31.4	3.53525E-001	8.94080E-008	0.00000E+000	3.53550E-001	1.00769E-003	5	..........a	-327.66
	157	31.6	3.63510E-001	9.21979E-008	0.00000E+000	3.63550E-001	1.01219E-003	5	..........a	-327.66
	158	31.8	3.73456E-001	9.51357E-008	0.00000E+000	3.73550E-001	1.00269E-003	5	..........a	-327.66
	159	32	3.83585E-001	9.81486E-008	0.00000E+000	3.83550E-001	1.02039E-003	5	..........a	-327.66
	160	32.2	3.93517E-001	1.01263E-007	0.00000E+000	3.93550E-001	9.91492E-004	5	..........a	-327.66
	161	32.4	4.03496E-001	1.04413E-007	0.00000E+000	4.03550E-001	1.01579E-003	5	..........a	-327.66
	162	32.6	4.13496E-001	1.07596E-007	0.00000E+000	4.13550E-001	1.00079E-003	5	..........a	-327.66
	163	32.8	4.23575E-001	1.10811E-007	0.00000E+000	4.23550E-001	1.02079E-003	5	..........a	-327.66
	164	33	4.33477E-001	1.14102E-007	0.00000E+000	4.33550E-001	1.00569E-003	5	..........a	-327.66
	165	33.2	4.43508E-001	1.17350E-007	0.00000E+000	4.43550E-001	1.02589E-003	5	..........a	-327.66
	166	33.4	4.53499E-001	1.20652E-007	0.00000E+000	4.53550E-001	9.80892E-004	5	..........a	-327.66
	167	33.6	4.63563E-001	1.24034E-007	0.00000E+000	4.63550E-001	1.02579E-003	5	..........a	-327.66
	168	33.8	4.73465E-001	1.27358E-007	0.00000E+000	4.73550E-001	9.90992E-004	5	..........a	-327.66
	169	34	4.83468E-001	1.30678E-007	0.00000E+000	4.83550E-001	1.02209E-003	5	..........a	-327.66
	170	34.2	4.93480E-001	1.34007E-007	0.00000E+000	4.93550E-001	1.00279E-003	5	..........a	-327.66
	171	34.4	5.03565E-001	1.37362E-007	0.00000E+000	5.03550E-001	1.02099E-003	5	..........a	-327.66
	172	34.6	5.13464E-001	1.40630E-007	0.00000E+000	5.13550E-001	9.99492E-004	5	..........a	-327.66
	173	34.8	5.23497E-001	1.43877E-007	0.00000E+000	5.23550E-001	9.98492E-004	5	..........a	-327.66
	174	35	5.33472E-001	1.47173E-007	0.00000E+000	5.33550E-001	9.86992E-004	5	..........a	-327.66
	175	35.2	5.43550E-001	1.50398E-007	0.00000E+000	5.43550E-001	1.00869E-003	5	..........a	-327.66
	176	35.4	5.53466E-001	1.53629E-007	0.00000E+000	5.53550E-001	1.00469E-003	5	..........a	-327.66
	177	35.6	5.63475E-001	1.56888E-007	0.00000E+000	5.63550E-001	1.00289E-003	5	..........a	-327.66
	178	35.8	5.73457E-001	1.60153E-007	0.00000E+000	5.73550E-001	9.99892E-004	5	..........a	-327.66
	179	36	5.83553E-001	1.63362E-007	0.00000E+000	5.83550E-001	9.90892E-004	5	..........a	-327.66
	180	36.2	5.93453E-001	1.66642E-007	0.00000E+000	5.93550E-001	9.95892E-004	5	..........a	-327.66
	181	36.4	6.03422E-001	1.69929E-007	0.00000E+000	6.03550E-001	9.85592E-004	5	..........a	-327.66
	182	36.6	6.13449E-001	1.73226E-007	0.00000E+000	6.13550E-001	9.88792E-004	5	..........a	-327.66
	183	36.8	6.23493E-001	1.76577E-007	0.00000E+000	6.23550E-001	9.99592E-004	5	..........a	-327.66
	184	37	6.33407E-001	1.79983E-007	0.00000E+000	6.33550E-001	1.01309E-003	5	..........a	-327.66
	185	37.2	6.43410E-001	1.83625E-007	0.00000E+000	6.43550E-001	9.94992E-004	5	..........a	-327.66
	186	37.4	6.53445E-001	1.87444E-007	0.00000E+000	6.53550E-001	1.00039E-003	5	..........a	-327.66
	187	37.6	6.63521E-001	1.91507E-007	0.00000E+000	6.63550E-001	9.89392E-004	5	..........a	-327.66
	188	37.8	6.73413E-001	1.95704E-007	0.00000E+000	6.73550E-001	1.00179E-003	5	..........a	-327.66
	189	38	6.83428E-001	1.99870E-007	0.00000E+000	6.83550E-001	1.01349E-003	5	..........a	-327.66
	190	38.2	6.93397E-001	2.03987E-007	0.00000E+000	6.93550E-001	9.92592E-004	5	..........a	-327.66
	191	38.4	7.03441E-001	2.07986E-007	0.00000E+000	7.03550E-001	1.00679E-003	5	..........a	-327.66
	192	38.6	7.13404E-001	2.11831E-007	0.00000E+000	7.13550E-001	1.01589E-003	5	..........a	-327.66
	193	38.8	7.23421E-001	2.15891E-007	0.00000E+000	7.23550E-001	9.99292E-004	5	..........a	-327.66
	194	39	7.33419E-001	2.20429E-007	0.00000E+000	7.33550E-001	9.73892E-004	5	..........a	-327.66
	195	39.2	7.43508E-001	2.24486E-007	0.00000E+000	7.43550E-001	9.96192E-004	5	..........a	-327.66
	196	39.4	7.53410E-001	2.28461E-007	0.00000E+000	7.53550E-001	9.98092E-004	5	..........a	-327.66
	197	39.6	7.63432E-001	2.33171E-007	0.00000E+000	7.63550E-001	9.87892E-004	5	..........a	-327.66
	198	39.8	7.73393E-001	2.38231E-007	0.00000E+000	7.73550E-001	9.82092E-004	5	..........a	-327.66
	199	40	7.83490E-001	2.43718E-007	0.00000E+000	7.83550E-001	9.90992E-004	5	..........a	-327.66
	200	40.2	7.93364E-001	2.49643E-007	0.00000E+000	7.93550E-001	1.01009E-003	5	..........a	-327.66
	201	40.4	8.03407E-001	2.56050E-007	0.00000E+000	8.03550E-001	9.96292E-004	5	..........a	-327.66
CURVE2	TABLE
	Pt	T	Vf	Im	Vu	Sig	Ach	IERange	Over	Temp
	#	s	V vs. Ref.	A	V	V	V	#	bits	deg C
	202	40.6	7.89951E-001	2.07098E-007	0.00000E+000	7.90000E-001	9.92092E-004	5	..........a	-327.66
	203	40.8	7.79872E-001	1.81808E-007	0.00000E+000	7.80000E-001	9.95792E-004	5	..........a	-327.66
	204	41	7.69863E-001	1.62508E-007	0.00000E+000	7.70000E-001	9.91292E-004	5	..........a	-327.66
	205	41.2	7.59883E-001	1.47057E-007	0.00000E+000	7.60000E-001	1.00039E-003	5	..........a	-327.66
	206	41.4	7.49974E-001	1.34279E-007	0.00000E+000	7.50000E-001	9.88392E-004	5	..........a	-327.66
	207	41.6	7.39900E-001	1.23388E-007	0.00000E+000	7.40000E-001	9.84392E-004	5	..........a	-327.66
	208	41.8	7.29955E-001	1.13994E-007	0.00000E+000	7.30000E-001	1.00159E-003	5	..........a	-327.66
	209	42	7.19896E-001	1.05699E-007	0.00000E+000	7.20000E-001	1.01329E-003	5	..........a	-327.66
	210	42.2	7.09990E-001	9.82859E-008	0.00000E+000	7.10000E-001	1.01229E-003	5	..........a	-327.66
	211	42.4	6.99923E-001	9.15887E-008	0.00000E+000	7.00000E-001	9.92892E-004	5	..........a	-327.66
	212	42.6	6.89899E-001	8.54633E-008	0.00000E+000	6.90000E-001	9.96992E-004	5	..........a	-327.66
	213	42.8	6.79941E-001	7.98319E-008	0.00000E+000	6.80000E-001	9.94892E-004	5	..........a	-327.66
	214	43	6.69964E-001	7.45904E-008	0.00000E+000	6.70000E-001	1.02139E-003	5	..........a	-327.66
	215	43.2	6.59939E-001	6.96988E-008	0.00000E+000	6.60000E-001	9.88092E-004	5	..........a	-327.66
	216	43.4	6.49943E-001	6.51172E-008	0.00000E+000	6.50000E-001	9.96492E-004	5	..........a	-327.66
	217	43.6	6.39912E-001	6.07919E-008	0.00000E+000	6.40000E-001	1.00529E-003	5	..........a	-327.66
	218	43.8	6.30042E-001	5.67042E-008	0.00000E+000	6.30000E-001	9.91892E-004	5	..........a	-327.66
	219	44	6.19942E-001	5.28094E-008	0.00000E+000	6.20000E-001	9.82492E-004	5	..........a	-327.66
	220	44.2	6.09951E-001	4.90999E-008	0.00000E+000	6.10000E-001	1.00579E-003	5	..........a	-327.66
	221	44.4	5.99990E-001	4.55356E-008	0.00000E+000	6.00000E-001	9.91792E-004	5	..........a	-327.66
	222	44.6	5.90029E-001	4.21471E-008	0.00000E+000	5.90000E-001	9.98892E-004	5	..........a	-327.66
	223	44.8	5.80006E-001	3.88555E-008	0.00000E+000	5.80000E-001	9.93392E-004	5	..........a	-327.66
	224	45	5.70003E-001	3.57274E-008	0.00000E+000	5.70000E-001	1.00959E-003	5	..........a	-327.66
	225	45.2	5.59961E-001	3.26943E-008	0.00000E+000	5.60000E-001	1.01619E-003	5	..........a	-327.66
	226	45.4	5.50045E-001	2.97588E-008	0.00000E+000	5.50000E-001	1.00079E-003	5	..........a	-327.66
	227	45.6	5.40013E-001	2.69145E-008	0.00000E+000	5.40000E-001	9.93892E-004	5	..........a	-327.66
	228	45.8	5.29986E-001	2.41604E-008	0.00000E+000	5.30000E-001	9.84192E-004	5	..........a	-327.66
	229	46	5.19985E-001	2.14490E-008	0.00000E+000	5.20000E-001	9.90492E-004	5	..........a	-327.66
	230	46.2	5.09975E-001	1.87773E-008	0.00000E+000	5.10000E-001	1.02439E-003	5	..........a	-327.66
	231	46.4	5.00057E-001	1.61949E-008	0.00000E+000	5.00000E-001	9.84592E-004	5	..........a	-327.66
	232	46.6	4.89959E-001	1.36756E-008	0.00000E+000	4.90000E-001	1.01609E-003	5	..........a	-327.66
	233	46.8	4.79938E-001	1.12000E-008	0.00000E+000	4.80000E-001	9.98992E-004	5	..........a	-327.66
	234	47	4.70030E-001	8.74429E-009	0.00000E+000	4.70000E-001	9.95892E-004	5	..........a	-327.66
	235	47.2	4.60017E-001	6.34145E-009	0.00000E+000	4.60000E-001	9.84792E-004	5	..........a	-327.66
	236	47.4	4.50057E-001	3.91647E-009	0.00000E+000	4.50000E-001	9.88492E-004	5	..........a	-327.66
	237	47.6	4.39965E-001	1.49173E-009	0.00000E+000	4.40000E-001	1.02769E-003	5	..........a	-327.66
	238	47.8	4.29977E-001	-1.02813E-009	0.00000E+000	4.30000E-001	1.00919E-003	5	..........a	-327.66
	239	48	4.20053E-001	-3.45272E-009	0.00000E+000	4.20000E-001	9.85992E-004	5	..........a	-327.66
	240	48.2	4.10010E-001	-5.90983E-009	0.00000E+000	4.10000E-001	1.00929E-003	5	..........a	-327.66
	241	48.4	4.00056E-001	-8.27709E-009	0.00000E+000	4.00000E-001	9.89692E-004	5	..........a	-327.66
	242	48.6	3.90086E-001	-1.07210E-008	0.00000E+000	3.90000E-001	1.00449E-003	5	..........a	-327.66
	243	48.8	3.80089E-001	-1.31798E-008	0.00000E+000	3.80000E-001	9.91992E-004	5	..........a	-327.66
	244	49	3.70072E-001	-1.56305E-008	0.00000E+000	3.70000E-001	9.91792E-004	5	..........a	-327.66
	245	49.2	3.60035E-001	-1.80549E-008	0.00000E+000	3.60000E-001	9.93992E-004	5	..........a	-327.66
	246	49.4	3.50073E-001	-2.05845E-008	0.00000E+000	3.50000E-001	9.95592E-004	5	..........a	-327.66
	247	49.6	3.40107E-001	-2.30147E-008	0.00000E+000	3.40000E-001	9.83992E-004	5	..........a	-327.66
	248	49.8	3.30065E-001	-2.55011E-008	0.00000E+000	3.30000E-001	1.00069E-003	5	..........a	-327.66
	249	50	3.20066E-001	-2.79395E-008	0.00000E+000	3.20000E-001	1.02349E-003	5	..........a	-327.66
	250	50.2	3.10079E-001	-3.03789E-008	0.00000E+000	3.10000E-001	1.00509E-003	5	..........a	-327.66
	251	50.4	3.00101E-001	-3.28345E-008	0.00000E+000	3.00000E-001	9.82592E-004	5	..........a	-327.66
	252	50.6	2.90076E-001	-3.52479E-008	0.00000E+000	2.90000E-001	9.98392E-004	5	..........a	-327.66
	253	50.8	2.79993E-001	-3.75971E-008	0.00000E+000	2.80000E-001	9.94992E-004	5	..........a	-327.66
	254	51	2.70112E-001	-3.99468E-008	0.00000E+000	2.70000E-001	9.97592E-004	5	..........a	-327.66
	255	51.2	2.60086E-001	-4.22396E-008	0.00000E+000	2.60000E-001	1.00429E-003	5	..........a	-327.66
	256	51.4	2.50058E-001	-4.43768E-008	0.00000E+000	2.50000E-001	1.00579E-003	5	..........a	-327.66
	257	51.6	2.40102E-001	-4.64132E-008	0.00000E+000	2.40000E-001	9.88692E-004	5	..........a	-327.66
	258	51.8	2.30028E-001	-4.83281E-008	0.00000E+000	2.30000E-001	1.02059E-003	5	..........a	-327.66
	259	52	2.20074E-001	-5.00981E-008	0.00000E+000	2.20000E-001	9.93992E-004	5	..........a	-327.66
	260	52.2	2.10063E-001	-5.17306E-008	0.00000E+000	2.10000E-001	9.95192E-004	5	..........a	-327.66
	261	52.4	2.00073E-001	-5.31852E-008	0.00000E+000	2.00000E-001	1.00249E-003	5	..........a	-327.66
	262	52.6	1.90133E-001	-5.44395E-008	0.00000E+000	1.90000E-001	9.97592E-004	5	..........a	-327.66
	263	52.8	1.80136E-001	-5.54883E-008	0.00000E+000	1.80000E-001	9.77892E-004	5	..........a	-327.66
	264	53	1.70110E-001	-5.63471E-008	0.00000E+000	1.70000E-001	9.90092E-004	5	..........a	-327.66
	265	53.2	1.60094E-001	-5.70120E-008	0.00000E+000	1.60000E-001	1.00849E-003	5	..........a	-327.66
	266	53.4	1.50089E-001	-5.75139E-008	0.00000E+000	1.50000E-001	1.00469E-003	5	..........a	-327.66
	267	53.6	1.40147E-001	-5.78691E-008	0.00000E+000	1.40000E-001	9.82392E-004	5	..........a	-327.66
	268	53.8	1.30081E-001	-5.81011E-008	0.00000E+000	1.30000E-001	1.01899E-003	5	..........a	-327.66
	269	54	1.20073E-001	-5.83168E-008	0.00000E+000	1.20000E-001	9.98592E-004	5	..........a	-327.66
	270	54.2	1.10120E-001	-5.84526E-008	0.00000E+000	1.10000E-001	9.92492E-004	5	..........a	-327.66
	271	54.4	1.00157E-001	-5.86247E-008	0.00000E+000	1.00000E-001	1.01589E-003	5	..........a	-327.66
	272	54.6	9.01093E-002	-5.88144E-008	0.00000E+000	9.00000E-002	1.00789E-003	5	..........a	-327.66
	273	54.8	8.00439E-002	-5.90266E-008	0.00000E+000	8.00000E-002	1.00869E-003	5	..........a	-327.66
	274	55	7.00393E-002	-5.93524E-008	0.00000E+000	7.00000E-002	1.01899E-003	5	..........a	-327.66
	275	55.2	6.01564E-002	-5.97268E-008	0.00000E+000	6.00000E-002	1.00069E-003	5	..........a	-327.66
	276	55.4	5.01025E-002	-6.02209E-008	0.00000E+000	5.00000E-002	9.84692E-004	5	..........a	-327.66
	277	55.6	4.00651E-002	-6.08274E-008	0.00000E+000	4.00000E-002	1.00799E-003	5	..........a	-327.66
	278	55.8	3.01012E-002	-6.14899E-008	0.00000E+000	3.00000E-002	1.01429E-003	5	..........a	-327.66
	279	56	2.01913E-002	-6.21650E-008	0.00000E+000	2.00000E-002	9.70992E-004	5	..........a	-327.66
	280	56.2	1.01279E-002	-6.29567E-008	0.00000E+000	1.00000E-002	1.00079E-003	5	..........a	-327.66
	281	56.4	5.41417E-005	-6.41509E-008	0.00000E+000	7.45058E-009	1.01109E-003	5	..........a	-327.66
	282	56.6	-9.85366E-003	-6.51399E-008	0.00000E+000	-1.00000E-002	1.00749E-003	5	..........a	-327.66
	283	56.8	-1.98716E-002	-6.48516E-008	0.00000E+000	-2.00000E-002	9.84992E-004	5	..........a	-327.66
	284	57	-2.98773E-002	-6.54842E-008	0.00000E+000	-3.00000E-002	1.00859E-003	5	..........a	-327.66
	285	57.2	-3.98737E-002	-6.61651E-008	0.00000E+000	-4.00000E-002	1.00899E-003	5	..........a	-327.66
	286	57.4	-4.98733E-002	-6.68888E-008	0.00000E+000	-5.00000E-002	1.00569E-003	5	..........a	-327.66
	287	57.6	-5.98301E-002	-6.78267E-008	0.00000E+000	-6.00000E-002	9.93192E-004	5	..........a	-327.66
	288	57.8	-6.98919E-002	-6.86401E-008	0.00000E+000	-7.00000E-002	9.87992E-004	5	..........a	-327.66
	289	58	-7.99325E-002	-6.98048E-008	0.00000E+000	-8.00000E-002	9.99192E-004	5	..........a	-327.66
	290	58.2	-8.98700E-002	-7.05110E-008	0.00000E+000	-9.00000E-002	9.96592E-004	5	..........a	-327.66
	291	58.4	-9.98601E-002	-7.16225E-008	0.00000E+000	-1.00000E-001	9.96892E-004	5	..........a	-327.66
	292	58.6	-1.09918E-001	-7.28428E-008	0.00000E+000	-1.10000E-001	9.80592E-004	5	..........a	-327.66
	293	58.8	-1.19910E-001	-7.38164E-008	0.00000E+000	-1.20000E-001	9.98092E-004	5	..........a	-327.66
	294	59	-1.29903E-001	-7.52272E-008	0.00000E+000	-1.30000E-001	1.01839E-003	5	..........a	-327.66
	295	59.2	-1.39855E-001	-7.62018E-008	0.00000E+000	-1.40000E-001	9.93992E-004	5	..........a	-327.66
	296	59.4	-1.49916E-001	-7.74039E-008	0.00000E+000	-1.50000E-001	9.97492E-004	5	..........a	-327.66
	297	59.6	-1.59992E-001	-7.88302E-008	0.00000E+000	-1.60000E-001	1.01549E-003	5	..........a	-327.66
	298	59.8	-1.69856E-001	-8.00989E-008	0.00000E+000	-1.70000E-001	1.02429E-003	5	..........a	-327.66
	299	60	-1.79852E-001	-8.12618E-008	0.00000E+000	-1.80000E-001	9.95992E-004	5	..........a	-327.66
	300	60.2	-1.89923E-001	-8.28454E-008	0.00000E+000	-1.90000E-001	9.96792E-004	5	..........a	-327.66
	301	60.4	-1.99920E-001	-8.40501E-008	0.00000E+000	-2.00000E-001	9.80992E-004	5	..........a	-327.66
	302	60.6	-2.09846E-001	-8.53271E-008	0.00000E+000	-2.10000E-001	9.95992E-004	5	..........a	-327.66
	303	60.8	-2.19837E-001	-8.65835E-008	0.00000E+000	-2.20000E-001	1.00429E-003	5	..........a	-327.66
	304	61	-2.29885E-001	-8.83569E-008	0.00000E+000	-2.30000E-001	1.00119E-003	5	..........a	-327.66
	305	61.2	-2.39880E-001	-8.94490E-008	0.00000E+000	-2.40000E-001	1.00149E-003	5	..........a	-327.66
	306	61.4	-2.49842E-001	-9.10830E-008	0.00000E+000	-2.50000E-001	1.00789E-003	5	..........a	-327.66
	307	61.6	-2.59789E-001	-9.26818E-008	0.00000E+000	-2.60000E-001	9.95792E-004	5	..........a	-327.66
	308	61.8	-2.69844E-001	-9.42226E-008	0.00000E+000	-2.70000E-001	9.92792E-004	5	..........a	-327.66
	309	62	-2.79836E-001	-9.57899E-008	0.00000E+000	-2.80000E-001	9.97392E-004	5	..........a	-327.66
	310	62.2	-2.89849E-001	-9.74846E-008	0.00000E+000	-2.90000E-001	9.95892E-004	5	..........a	-327.66
	311	62.4	-2.99813E-001	-9.90940E-008	0.00000E+000	-3.00000E-001	9.96192E-004	5	..........a	-327.66
	312	62.6	-3.09855E-001	-1.00996E-007	0.00000E+000	-3.10000E-001	9.87492E-004	5	..........a	-327.66
	313	62.8	-3.19826E-001	-1.02572E-007	0.00000E+000	-3.20000E-001	9.81592E-004	5	..........a	-327.66
	314	63	-3.29867E-001	-1.04436E-007	0.00000E+000	-3.30000E-001	9.94992E-004	5	..........a	-327.66
	315	63.2	-3.39776E-001	-1.06203E-007	0.00000E+000	-3.40000E-001	9.96192E-004	5	..........a	-327.66
	316	63.4	-3.49844E-001	-1.08575E-007	0.00000E+000	-3.50000E-001	9.96092E-004	5	..........a	-327.66
	317	63.6	-3.59876E-001	-1.10261E-007	0.00000E+000	-3.60000E-001	9.98992E-004	5	..........a	-327.66
	318	63.8	-3.69832E-001	-1.12020E-007	0.00000E+000	-3.70000E-001	9.92092E-004	5	..........a	-327.66
	319	64	-3.79796E-001	-1.13944E-007	0.00000E+000	-3.80000E-001	9.91192E-004	5	..........a	-327.66
	320	64.2	-3.89872E-001	-1.15842E-007	0.00000E+000	-3.90000E-001	1.00509E-003	5	..........a	-327.66
	321	64.4	-3.99823E-001	-1.17851E-007	0.00000E+000	-4.00000E-001	9.90092E-004	5	..........a	-327.66
	322	64.6	-4.09858E-001	-1.19962E-007	0.00000E+000	-4.10000E-001	1.01099E-003	5	..........a	-327.66
	323	64.8	-4.19757E-001	-1.21599E-007	0.00000E+000	-4.20000E-001	9.85892E-004	5	..........a	-327.66
	324	65	-4.29832E-001	-1.23611E-007	0.00000E+000	-4.30000E-001	9.99692E-004	5	..........a	-327.66
	325	65.2	-4.39822E-001	-1.25451E-007	0.00000E+000	-4.40000E-001	1.01519E-003	5	..........a	-327.66
	326	65.4	-4.49825E-001	-1.27472E-007	0.00000E+000	-4.50000E-001	9.95392E-004	5	..........a	-327.66
	327	65.6	-4.59755E-001	-1.29247E-007	0.00000E+000	-4.60000E-001	9.69392E-004	5	..........a	-327.66
	328	65.8	-4.69817E-001	-1.31129E-007	0.00000E+000	-4.70000E-001	1.00519E-003	5	..........a	-327.66
	329	66	-4.79806E-001	-1.32947E-007	0.00000E+000	-4.80000E-001	9.97992E-004	5	..........a	-327.66
	330	66.2	-4.89837E-001	-1.34844E-007	0.00000E+000	-4.90000E-001	1.00929E-003	5	..........a	-327.66
	331	66.4	-4.99792E-001	-1.36636E-007	0.00000E+000	-5.00000E-001	1.00469E-003	5	..........a	-327.66
	332	66.6	-5.09821E-001	-1.38473E-007	0.00000E+000	-5.10000E-001	9.95792E-004	5	..........a	-327.66
	333	66.8	-5.19839E-001	-1.40281E-007	0.00000E+000	-5.20000E-001	1.00689E-003	5	..........a	-327.66
	334	67	-5.29818E-001	-1.42126E-007	0.00000E+000	-5.30000E-001	9.91392E-004	5	..........a	-327.66
	335	67.2	-5.39751E-001	-1.43977E-007	0.00000E+000	-5.40000E-001	9.85192E-004	5	..........a	-327.66
	336	67.4	-5.49822E-001	-1.45991E-007	0.00000E+000	-5.50000E-001	1.00879E-003	5	..........a	-327.66
	337	67.6	-5.59828E-001	-1.47585E-007	0.00000E+000	-5.60000E-001	1.01739E-003	5	..........a	-327.66
	338	67.8	-5.69832E-001	-1.49387E-007	0.00000E+000	-5.70000E-001	9.99592E-004	5	..........a	-327.66
	339	68	-5.79762E-001	-1.51749E-007	0.00000E+000	-5.80000E-001	9.98592E-004	5	..........a	-327.66
	340	68.2	-5.89821E-001	-1.53835E-007	0.00000E+000	-5.90000E-001	9.84392E-004	5	..........a	-327.66
	341	68.4	-5.99790E-001	-1.55330E-007	0.00000E+000	-6.00000E-001	9.90692E-004	5	..........a	-327.66
	342	68.6	-5.89828E-001	-1.37993E-007	0.00000E+000	-5.90000E-001	9.95492E-004	5	..........a	-327.66
	343	68.8	-5.79792E-001	-1.26533E-007	0.00000E+000	-5.80000E-001	1.00139E-003	5	..........a	-327.66
	344	69	-5.69835E-001	-1.17372E-007	0.00000E+000	-5.70000E-001	9.95792E-004	5	..........a	-327.66
	345	69.2	-5.59875E-001	-1.09552E-007	0.00000E+000	-5.60000E-001	1.01279E-003	5	..........a	-327.66
	346	69.4	-5.49842E-001	-1.02898E-007	0.00000E+000	-5.50000E-001	9.98092E-004	5	..........a	-327.66
	347	69.6	-5.39766E-001	-9.67319E-008	0.00000E+000	-5.40000E-001	9.97192E-004	5	..........a	-327.66
	348	69.8	-5.29826E-001	-9.11865E-008	0.00000E+000	-5.30000E-001	1.00069E-003	5	..........a	-327.66
	349	70	-5.19785E-001	-8.61838E-008	0.00000E+000	-5.20000E-001	1.01309E-003	5	..........a	-327.66
	350	70.2	-5.09831E-001	-8.16296E-008	0.00000E+000	-5.10000E-001	1.00569E-003	5	..........a	-327.66
	351	70.4	-4.99812E-001	-7.70815E-008	0.00000E+000	-5.00000E-001	1.00719E-003	5	..........a	-327.66
	352	70.6	-4.89844E-001	-7.28854E-008	0.00000E+000	-4.90000E-001	9.83092E-004	5	..........a	-327.66
	353	70.8	-4.79868E-001	-6.91862E-008	0.00000E+000	-4.80000E-001	9.88692E-004	5	..........a	-327.66
[...]
	920	184.2	-4.09907E-001	-4.84101E-008	0.00000E+000	-4.10000E-001	1.00249E-003	5	..........a	-327.66
	921	184.4	-3.99836E-001	-4.54823E-008	0.00000E+000	-4.00000E-001	1.01069E-003	5	..........a	-327.66
	922	184.6	-3.89907E-001	-4.26972E-008	0.00000E+000	-3.90000E-001	1.02119E-003	5	..........a	-327.66
	923	184.8	-3.79837E-001	-3.99324E-008	0.00000E+000	-3.80000E-001	9.95192E-004	5	..........a	-327.66
	924	185	-3.69856E-001	-3.72886E-008	0.00000E+000	-3.70000E-001	9.91992E-004	5	..........a	-327.66
	925	185.2	-3.59896E-001	-3.46841E-008	0.00000E+000	-3.60000E-001	1.01199E-003	5	..........a	-327.66
	926	185.4	-3.49873E-001	-3.21539E-008	0.00000E+000	-3.50000E-001	9.87092E-004	5	..........a	-327.66
	927	185.6	-3.39846E-001	-2.96850E-008	0.00000E+000	-3.40000E-001	1.00009E-003	5	..........a	-327.66
	928	185.8	-3.29906E-001	-2.72695E-008	0.00000E+000	-3.30000E-001	1.00799E-003	5	..........a	-327.66
	929	186	-3.19853E-001	-2.49240E-008	0.00000E+000	-3.20000E-001	9.89092E-004	5	..........a	-327.66
	930	186.2	-3.09905E-001	-2.26038E-008	0.00000E+000	-3.10000E-001	1.00179E-003	5	..........a	-327.66
	931	186.4	-2.99843E-001	-2.03981E-008	0.00000E+000	-3.00000E-001	9.84092E-004	5	..........a	-327.66
	932	186.6	-2.89920E-001	-1.81594E-008	0.00000E+000	-2.90000E-001	1.01589E-003	5	..........a	-327.66
	933	186.8	-2.79889E-001	-1.59892E-008	0.00000E+000	-2.80000E-001	9.99992E-004	5	..........a	-327.66
	934	187	-2.69858E-001	-1.38690E-008	0.00000E+000	-2.70000E-001	9.95992E-004	5	..........a	-327.66
	935	187.2	-2.59824E-001	-1.18123E-008	0.00000E+000	-2.60000E-001	9.69992E-004	5	..........a	-327.66
	936	187.4	-2.49858E-001	-9.75963E-009	0.00000E+000	-2.50000E-001	1.01319E-003	5	..........a	-327.66
	937	187.6	-2.39889E-001	-7.80130E-009	0.00000E+000	-2.40000E-001	1.00049E-003	5	..........a	-327.66
	938	187.8	-2.29891E-001	-5.86157E-009	0.00000E+000	-2.30000E-001	1.00119E-003	5	..........a	-327.66
	939	188	-2.19861E-001	-3.90966E-009	0.00000E+000	-2.20000E-001	1.00849E-003	5	..........a	-327.66
	940	188.2	-2.09940E-001	-2.03850E-009	0.00000E+000	-2.10000E-001	1.00579E-003	5	..........a	-327.66
	941	188.4	-1.99981E-001	-2.41753E-010	0.00000E+000	-2.00000E-001	1.00459E-003	5	..........a	-327.66
	942	188.6	-1.90226E-001	1.59725E-009	0.00000E+000	-1.90000E-001	1.01549E-003	5	..........a	-327.66
	943	188.8	-1.79925E-001	3.39404E-009	0.00000E+000	-1.80000E-001	1.00939E-003	5	..........a	-327.66
	944	189	-1.69905E-001	5.13127E-009	0.00000E+000	-1.70000E-001	1.00869E-003	5	..........a	-327.66
	945	189.2	-1.60001E-001	6.84051E-009	0.00000E+000	-1.60000E-001	1.01699E-003	5	..........a	-327.66
	946	189.4	-1.49964E-001	8.56195E-009	0.00000E+000	-1.50000E-001	1.00019E-003	5	..........a	-327.66
	947	189.6	-1.39882E-001	1.02079E-008	0.00000E+000	-1.40000E-001	9.87892E-004	5	..........a	-327.66
	948	189.8	-1.29940E-001	1.19066E-008	0.00000E+000	-1.30000E-001	1.00899E-003	5	..........a	-327.66
	949	190	-1.19963E-001	1.35582E-008	0.00000E+000	-1.20000E-001	1.01389E-003	5	..........a	-327.66
	950	190.2	-1.10026E-001	1.51822E-008	0.00000E+000	-1.10000E-001	9.92792E-004	5	..........a	-327.66
	951	190.4	-9.99098E-002	1.68148E-008	0.00000E+000	-1.00000E-001	1.00029E-003	5	..........a	-327.66
	952	190.6	-8.99123E-002	1.84260E-008	0.00000E+000	-9.00000E-002	9.90792E-004	5	..........a	-327.66
	953	190.8	-7.99687E-002	2.00346E-008	0.00000E+000	-8.00000E-002	1.01319E-003	5	..........a	-327.66
	954	191	-6.99412E-002	2.16180E-008	0.00000E+000	-7.00000E-002	1.00859E-003	5	..........a	-327.66
	955	191.2	-5.98902E-002	2.32291E-008	0.00000E+000	-6.00000E-002	9.96892E-004	5	..........a	-327.66
	956	191.4	-4.99316E-002	2.48195E-008	0.00000E+000	-5.00000E-002	1.00449E-003	5	..........a	-327.66
	957	191.6	-3.99255E-002	2.64085E-008	0.00000E+000	-4.00000E-002	9.80292E-004	5	..........a	-327.66
	958	191.8	-3.00025E-002	2.79780E-008	0.00000E+000	-3.00000E-002	1.01219E-003	5	..........a	-327.66
	959	192	-1.99416E-002	2.95551E-008	0.00000E+000	-2.00000E-002	9.96292E-004	5	..........a	-327.66
	960	192.2	-9.89306E-003	3.11100E-008	0.00000E+000	-1.00000E-002	9.82792E-004	5	..........a	-327.66
	961	192.4	1.39417E-005	3.26850E-008	0.00000E+000	7.45058E-009	9.89892E-004	5	..........a	-327.66
	962	192.6	1.00795E-002	3.42612E-008	0.00000E+000	1.00000E-002	9.81592E-004	5	..........a	-327.66
	963	192.8	2.01316E-002	3.58252E-008	0.00000E+000	2.00000E-002	9.97692E-004	5	..........a	-327.66
	964	193	3.00564E-002	3.73758E-008	0.00000E+000	3.00000E-002	1.00479E-003	5	..........a	-327.66
	965	193.2	4.00274E-002	3.89184E-008	0.00000E+000	4.00000E-002	9.99792E-004	5	..........a	-327.66
	966	193.4	5.00301E-002	4.04935E-008	0.00000E+000	5.00000E-002	1.01829E-003	5	..........a	-327.66
	967	193.6	6.00864E-002	4.21411E-008	0.00000E+000	6.00000E-002	9.84992E-004	5	..........a	-327.66
	968	193.8	6.99457E-002	4.37175E-008	0.00000E+000	7.00000E-002	1.01739E-003	5	..........a	-327.66
	969	194	8.00044E-002	4.53310E-008	0.00000E+000	8.00000E-002	1.00469E-003	5	..........a	-327.66
	970	194.2	9.00850E-002	4.69222E-008	0.00000E+000	9.00000E-002	9.99092E-004	5	..........a	-327.66
	971	194.4	1.00076E-001	4.85132E-008	0.00000E+000	1.00000E-001	1.00329E-003	5	..........a	-327.66
	972	194.6	1.10077E-001	5.01580E-008	0.00000E+000	1.10000E-001	1.01079E-003	5	..........a	-327.66
	973	194.8	1.20007E-001	5.23110E-008	0.00000E+000	1.20000E-001	9.93992E-004	5	..........a	-327.66
	974	195	1.29986E-001	5.36454E-008	0.00000E+000	1.30000E-001	1.01089E-003	5	..........a	-327.66
	975	195.2	1.40083E-001	5.50228E-008	0.00000E+000	1.40000E-001	9.91392E-004	5	..........a	-327.66
	976	195.4	1.50052E-001	5.64947E-008	0.00000E+000	1.50000E-001	1.01669E-003	5	..........a	-327.66
	977	195.6	1.60033E-001	5.80456E-008	0.00000E+000	1.60000E-001	1.01369E-003	5	..........a	-327.66
	978	195.8	1.70041E-001	5.95870E-008	0.00000E+000	1.70000E-001	1.01289E-003	5	..........a	-327.66
	979	196	1.80050E-001	6.10984E-008	0.00000E+000	1.80000E-001	1.00229E-003	5	..........a	-327.66
	980	196.2	1.90084E-001	6.26462E-008	0.00000E+000	1.90000E-001	9.90592E-004	5	..........a	-327.66
	981	196.4	1.99983E-001	6.41414E-008	0.00000E+000	2.00000E-001	1.00529E-003	5	..........a	-327.66
	982	196.6	2.09993E-001	6.57193E-008	0.00000E+000	2.10000E-001	9.93292E-004	5	..........a	-327.66
	983	196.8	2.19883E-001	6.72243E-008	0.00000E+000	2.20000E-001	9.76992E-004	5	..........a	-327.66
	984	197	2.29986E-001	6.87251E-008	0.00000E+000	2.30000E-001	1.00369E-003	5	..........a	-327.66
	985	197.2	2.39995E-001	7.01810E-008	0.00000E+000	2.40000E-001	9.92792E-004	5	..........a	-327.66
	986	197.4	2.49981E-001	7.16343E-008	0.00000E+000	2.50000E-001	1.01039E-003	5	..........a	-327.66
	987	197.6	2.60006E-001	7.31151E-008	0.00000E+000	2.60000E-001	9.89392E-004	5	..........a	-327.66
	988	197.8	2.70022E-001	7.46085E-008	0.00000E+000	2.70000E-001	1.00379E-003	5	..........a	-327.66
	989	198	2.79964E-001	7.60353E-008	0.00000E+000	2.80000E-001	9.93292E-004	5	..........a	-327.66
	990	198.2	2.90024E-001	7.75336E-008	0.00000E+000	2.90000E-001	1.01139E-003	5	..........a	-327.66
	991	198.4	3.00031E-001	7.89789E-008	0.00000E+000	3.00000E-001	9.93292E-004	5	..........a	-327.66
	992	198.6	3.09998E-001	8.04624E-008	0.00000E+000	3.10000E-001	9.95092E-004	5	..........a	-327.66
	993	198.8	3.20003E-001	8.19311E-008	0.00000E+000	3.20000E-001	1.01319E-003	5	..........a	-327.66
	994	199	3.29988E-001	8.34820E-008	0.00000E+000	3.30000E-001	9.92492E-004	5	..........a	-327.66
	995	199.2	3.39998E-001	8.49877E-008	0.00000E+000	3.40000E-001	9.93092E-004	5	..........a	-327.66
	996	199.4	3.50003E-001	8.65303E-008	0.00000E+000	3.50000E-001	1.01079E-003	5	..........a	-327.66
	997	199.6	3.59971E-001	8.81211E-008	0.00000E+000	3.60000E-001	1.00049E-003	5	..........a	-327.66
	998	199.8	3.69976E-001	8.97047E-008	0.00000E+000	3.70000E-001	1.01219E-003	5	..........a	-327.66
	999	200	3.80009E-001	9.13056E-008	0.00000E+000	3.80000E-001	9.98092E-004	5	..........a	-327.66
	1000	200.2	3.90022E-001	9.29483E-008	0.00000E+000	3.90000E-001	9.94792E-004	5	..........a	-327.66
	1001	200.4	3.99955E-001	9.46536E-008	0.00000E+000	4.00000E-001	9.90392E-004	5	..........a	-327.66
	1002	200.6	4.09959E-001	9.63241E-008	0.00000E+000	4.10000E-001	1.01289E-003	5	..........a	-327.66
	1003	200.8	4.19976E-001	9.80868E-008	0.00000E+000	4.20000E-001	9.99992E-004	5	..........a	-327.66
	1004	201	4.29961E-001	9.98613E-008	0.00000E+000	4.30000E-001	1.01989E-003	5	..........a	-327.66
	1005	201.2	4.39939E-001	1.01717E-007	0.00000E+000	4.40000E-001	1.02469E-003	5	..........a	-327.66
	1006	201.4	4.49781E-001	1.03553E-007	0.00000E+000	4.50000E-001	1.02849E-003	5	..........a	-327.66
	1007	201.6	4.59940E-001	1.05486E-007	0.00000E+000	4.60000E-001	1.00119E-003	5	..........a	-327.66
	1008	201.8	4.70006E-001	1.07437E-007	0.00000E+000	4.70000E-001	1.00679E-003	5	..........a	-327.66
	1009	202	4.79910E-001	1.09419E-007	0.00000E+000	4.80000E-001	1.00419E-003	5	..........a	-327.66
	1010	202.2	4.89949E-001	1.11522E-007	0.00000E+000	4.90000E-001	9.89892E-004	5	..........a	-327.66
	1011	202.4	4.99974E-001	1.13657E-007	0.00000E+000	5.00000E-001	9.76992E-004	5	..........a	-327.66
	1012	202.6	5.09956E-001	1.15853E-007	0.00000E+000	5.10000E-001	1.01319E-003	5	..........a	-327.66
	1013	202.8	5.19948E-001	1.18159E-007	0.00000E+000	5.20000E-001	1.00789E-003	5	..........a	-327.66
	1014	203	5.29929E-001	1.20558E-007	0.00000E+000	5.30000E-001	1.00749E-003	5	..........a	-327.66
	1015	203.2	5.39950E-001	1.22978E-007	0.00000E+000	5.40000E-001	1.00189E-003	5	..........a	-327.66
	1016	203.4	5.49992E-001	1.25564E-007	0.00000E+000	5.50000E-001	1.00609E-003	5	..........a	-327.66
	1017	203.6	5.59926E-001	1.28194E-007	0.00000E+000	5.60000E-001	9.96992E-004	5	..........a	-327.66
	1018	203.8	5.69909E-001	1.30906E-007	0.00000E+000	5.70000E-001	1.00999E-003	5	..........a	-327.66
	1019	204	5.79942E-001	1.33647E-007	0.00000E+000	5.80000E-001	9.88492E-004	5	..........a	-327.66
	1020	204.2	5.89974E-001	1.36408E-007	0.00000E+000	5.90000E-001	1.00759E-003	5	..........a	-327.66
	1021	204.4	5.99918E-001	1.39128E-007	0.00000E+000	6.00000E-001	9.92992E-004	5	..........a	-327.66
	1022	204.6	6.09928E-001	1.41736E-007	0.00000E+000	6.10000E-001	9.94192E-004	5	..........a	-327.66
	1023	204.8	6.19888E-001	1.44465E-007	0.00000E+000	6.20000E-001	1.01039E-003	5	..........a	-327.66
	1024	205	6.29996E-001	1.47291E-007	0.00000E+000	6.30000E-001	1.00839E-003	5	..........a	-327.66
	1025	205.2	6.39858E-001	1.50122E-007	0.00000E+000	6.40000E-001	1.00109E-003	5	..........a	-327.66
	1026	205.4	6.49901E-001	1.52967E-007	0.00000E+000	6.50000E-001	1.01699E-003	5	..........a	-327.66
	1027	205.6	6.59892E-001	1.55802E-007	0.00000E+000	6.60000E-001	9.97792E-004	5	..........a	-327.66
	1028	205.8	6.69945E-001	1.58737E-007	0.00000E+000	6.70000E-001	9.88692E-004	5	..........a	-327.66
	1029	206	6.79890E-001	1.61794E-007	0.00000E+000	6.80000E-001	9.79892E-004	5	..........a	-327.66
	1030	206.2	6.89878E-001	1.65015E-007	0.00000E+000	6.90000E-001	9.90792E-004	5	..........a	-327.66
	1031	206.4	6.99877E-001	1.68433E-007	0.00000E+000	7.00000E-001	1.00149E-003	5	..........a	-327.66
	1032	206.6	7.09949E-001	1.72037E-007	0.00000E+000	7.10000E-001	1.00669E-003	5	..........a	-327.66
	1033	206.8	7.19881E-001	1.75908E-007	0.00000E+000	7.20000E-001	1.00959E-003	5	..........a	-327.66
	1034	207	7.29885E-001	1.80107E-007	0.00000E+000	7.30000E-001	1.01759E-003	5	..........a	-327.66
	1035	207.2	7.39870E-001	1.84655E-007	0.00000E+000	7.40000E-001	9.90492E-004	5	..........a	-327.66
	1036	207.4	7.49944E-001	1.89612E-007	0.00000E+000	7.50000E-001	9.80692E-004	5	..........a	-327.66
	1037	207.6	7.59865E-001	1.95050E-007	0.00000E+000	7.60000E-001	1.00639E-003	5	..........a	-327.66
	1038	207.8	7.69882E-001	2.00652E-007	0.00000E+000	7.70000E-001	1.01549E-003	5	..........a	-327.66
	1039	208	7.79847E-001	2.06642E-007	0.00000E+000	7.80000E-001	9.93392E-004	5	..........a	-327.66
	1040	208.2	7.89948E-001	2.13238E-007	0.00000E+000	7.90000E-001	1.01449E-003	5	..........a	-327.66
	1041	208.4	7.99844E-001	2.20296E-007	0.00000E+000	8.00000E-001	1.01849E-003	5	..........a	-327.66
CURVE5	TABLE
	Pt	T	Vf	Im	Vu	Sig	Ach	IERange	Over	Temp
	#	s	V vs. Ref.	A	V	V	V	#	bits	deg C
	1042	208.6	7.89966E-001	1.84649E-007	0.00000E+000	7.90000E-001	1.01289E-003	5	..........a	-327.66
	1043	208.8	7.79887E-001	1.61014E-007	0.00000E+000	7.80000E-001	9.94892E-004	5	..........a	-327.66
	1044	209	7.69895E-001	1.43375E-007	0.00000E+000	7.70000E-001	1.00229E-003	5	..........a	-327.66
	1045	209.2	7.59905E-001	1.29428E-007	0.00000E+000	7.60000E-001	1.01339E-003	5	..........a	-327.66
	1046	209.4	7.49973E-001	1.17912E-007	0.00000E+000	7.50000E-001	9.95392E-004	5	..........a	-327.66
	1047	209.6	7.39897E-001	1.08178E-007	0.00000E+000	7.40000E-001	9.94492E-004	5	..........a	-327.66
	1048	209.8	7.29895E-001	9.97437E-008	0.00000E+000	7.30000E-001	1.01359E-003	5	..........a	-327.66
	1049	210	7.19904E-001	9.23704E-008	0.00000E+000	7.20000E-001	9.96892E-004	5	..........a	-327.66
	1050	210.2	7.09965E-001	8.57470E-008	0.00000E+000	7.10000E-001	1.01759E-003	5	..........a	-327.66
	1051	210.4	6.99917E-001	7.97212E-008	0.00000E+000	7.00000E-001	1.00259E-003	5	..........a	-327.66
	1052	210.6	6.89900E-001	7.42480E-008	0.00000E+000	6.90000E-001	1.00249E-003	5	..........a	-327.66
	1053	210.8	6.79919E-001	6.92151E-008	0.00000E+000	6.80000E-001	9.89492E-004	5	..........a	-327.66
	1054	211	6.69961E-001	6.45221E-008	0.00000E+000	6.70000E-001	9.91592E-004	5	..........a	-327.66
	1055	211.2	6.59941E-001	6.00846E-008	0.00000E+000	6.60000E-001	9.88992E-004	5	..........a	-327.66
	1056	211.4	6.49945E-001	5.59506E-008	0.00000E+000	6.50000E-001	1.00219E-003	5	..........a	-327.66
	1057	211.6	6.39888E-001	5.20380E-008	0.00000E+000	6.40000E-001	1.00619E-003	5	..........a	-327.66
	1058	211.8	6.30010E-001	4.83121E-008	0.00000E+000	6.30000E-001	9.94192E-004	5	..........a	-327.66
	1059	212	6.19934E-001	4.47519E-008	0.00000E+000	6.20000E-001	1.01549E-003	5	..........a	-327.66
	1060	212.2	6.09957E-001	4.13434E-008	0.00000E+000	6.10000E-001	1.00509E-003	5	..........a	-327.66
	1061	212.4	5.99989E-001	3.80853E-008	0.00000E+000	6.00000E-001	9.93992E-004	5	..........a	-327.66
	1062	212.6	5.90025E-001	3.49689E-008	0.00000E+000	5.90000E-001	1.00419E-003	5	..........a	-327.66
	1063	212.8	5.79997E-001	3.20005E-008	0.00000E+000	5.80000E-001	1.00539E-003	5	..........a	-327.66
	1064	213	5.69978E-001	2.91423E-008	0.00000E+000	5.70000E-001	9.95392E-004	5	..........a	-327.66
	1065	213.2	5.59962E-001	2.63707E-008	0.00000E+000	5.60000E-001	1.02399E-003	5	..........a	-327.66
	1066	213.4	5.50036E-001	2.36380E-008	0.00000E+000	5.50000E-001	1.00409E-003	5	..........a	-327.66
	1067	213.6	5.40019E-001	2.09904E-008	0.00000E+000	5.40000E-001	9.86992E-004	5	..........a	-327.66
	1068	213.8	5.29960E-001	1.83432E-008	0.00000E+000	5.30000E-001	1.00429E-003	5	..........a	-327.66
	1069	214	5.19984E-001	1.57745E-008	0.00000E+000	5.20000E-001	1.02119E-003	5	..........a	-327.66
	1070	214.2	5.09952E-001	1.32908E-008	0.00000E+000	5.10000E-001	1.01239E-003	5	..........a	-327.66
	1071	214.4	5.00053E-001	1.08445E-008	0.00000E+000	5.00000E-001	9.91892E-004	5	..........a	-327.66
	1072	214.6	4.89950E-001	8.48137E-009	0.00000E+000	4.90000E-001	1.02289E-003	5	..........a	-327.66
	1073	214.8	4.79939E-001	6.14535E-009	0.00000E+000	4.80000E-001	1.03019E-003	5	..........a	-327.66
	1074	215	4.70024E-001	3.82282E-009	0.00000E+000	4.70000E-001	1.00669E-003	5	..........a	-327.66
	1075	215.2	4.60002E-001	1.47595E-009	0.00000E+000	4.60000E-001	1.01649E-003	5	..........a	-327.66
	1076	215.4	4.50015E-001	-9.43599E-010	0.00000E+000	4.50000E-001	1.00559E-003	5	..........a	-327.66
	1077	215.6	4.40009E-001	-3.29115E-009	0.00000E+000	4.40000E-001	1.01189E-003	5	..........a	-327.66
	1078	215.8	4.30032E-001	-5.63647E-009	0.00000E+000	4.30000E-001	9.90292E-004	5	..........a	-327.66
	1079	216	4.20033E-001	-7.99809E-009	0.00000E+000	4.20000E-001	9.98892E-004	5	..........a	-327.66
	1080	216.2	4.10025E-001	-1.04141E-008	0.00000E+000	4.10000E-001	1.01069E-003	5	..........a	-327.66
	1081	216.4	4.00024E-001	-1.27870E-008	0.00000E+000	4.00000E-001	9.99892E-004	5	..........a	-327.66
	1082	216.6	3.90078E-001	-1.52085E-008	0.00000E+000	3.90000E-001	1.01549E-003	5	..........a	-327.66
	1083	216.8	3.80093E-001	-1.76356E-008	0.00000E+000	3.80000E-001	9.93892E-004	5	..........a	-327.66
	1084	217	3.70068E-001	-2.00714E-008	0.00000E+000	3.70000E-001	9.91392E-004	5	..........a	-327.66
	1085	217.2	3.60025E-001	-2.25337E-008	0.00000E+000	3.60000E-001	1.00179E-003	5	..........a	-327.66
	1086	217.4	3.50061E-001	-2.49901E-008	0.00000E+000	3.50000E-001	1.02979E-003	5	..........a	-327.66
	1087	217.6	3.40096E-001	-2.73978E-008	0.00000E+000	3.40000E-001	1.00139E-003	5	..........a	-327.66
	1088	217.8	3.30057E-001	-2.98384E-008	0.00000E+000	3.30000E-001	1.00449E-003	5	..........a	-327.66
	1089	218	3.20058E-001	-3.23164E-008	0.00000E+000	3.20000E-001	1.01299E-003	5	..........a	-327.66
	1090	218.2	3.10071E-001	-3.47221E-008	0.00000E+000	3.10000E-001	1.00769E-003	5	..........a	-327.66
	1091	218.4	3.00105E-001	-3.71531E-008	0.00000E+000	3.00000E-001	9.88992E-004	5	..........a	-327.66
	1092	218.6	2.90076E-001	-3.95919E-008	0.00000E+000	2.90000E-001	1.00919E-003	5	..........a	-327.66
	1093	218.8	2.80008E-001	-4.19949E-008	0.00000E+000	2.80000E-001	9.96792E-004	5	..........a	-327.66
	1094	219	2.70098E-001	-4.42671E-008	0.00000E+000	2.70000E-001	9.95992E-004	5	..........a	-327.66
	1095	219.2	2.60089E-001	-4.64708E-008	0.00000E+000	2.60000E-001	1.00649E-003	5	..........a	-327.66
	1096	219.4	2.50031E-001	-4.85791E-008	0.00000E+000	2.50000E-001	1.01429E-003	5	..........a	-327.66
	1097	219.6	2.40084E-001	-5.05440E-008	0.00000E+000	2.40000E-001	1.01379E-003	5	..........a	-327.66
	1098	219.8	2.30023E-001	-5.24170E-008	0.00000E+000	2.30000E-001	1.01029E-003	5	..........a	-327.66
	1099	220	2.20028E-001	-5.40870E-008	0.00000E+000	2.20000E-001	9.93692E-004	5	..........a	-327.66
	1100	220.2	2.10071E-001	-5.56653E-008	0.00000E+000	2.10000E-001	9.93492E-004	5	..........a	-327.66
	1101	220.4	2.00072E-001	-5.69653E-008	0.00000E+000	2.00000E-001	1.01459E-003	5	..........a	-327.66
	1102	220.6	1.90130E-001	-5.80880E-008	0.00000E+000	1.90000E-001	1.01189E-003	5	..........a	-327.66
	1103	220.8	1.80136E-001	-5.90144E-008	0.00000E+000	1.80000E-001	9.89692E-004	5	..........a	-327.66
	1104	221	1.70113E-001	-5.97560E-008	0.00000E+000	1.70000E-001	1.01829E-003	5	..........a	-327.66
	1105	221.2	1.60101E-001	-6.02932E-008	0.00000E+000	1.60000E-001	1.00909E-003	5	..........a	-327.66
	1106	221.4	1.50113E-001	-6.06611E-008	0.00000E+000	1.50000E-001	1.02449E-003	5	..........a	-327.66
	1107	221.6	1.40154E-001	-6.08663E-008	0.00000E+000	1.40000E-001	9.90992E-004	5	..........a	-327.66
	1108	221.8	1.30103E-001	-6.09638E-008	0.00000E+000	1.30000E-001	9.96492E-004	5	..........a	-327.66
	1109	222	1.20099E-001	-6.09938E-008	0.00000E+000	1.20000E-001	1.00929E-003	5	..........a	-327.66
	1110	222.2	1.10130E-001	-6.10151E-008	0.00000E+000	1.10000E-001	1.00039E-003	5	..........a	-327.66
	1111	222.4	1.00160E-001	-6.10690E-008	0.00000E+000	1.00000E-001	9.88692E-004	5	..........a	-327.66
	1112	222.6	9.01226E-002	-6.12372E-008	0.00000E+000	9.00000E-002	9.93592E-004	5	..........a	-327.66
	1113	222.8	8.00791E-002	-6.14755E-008	0.00000E+000	8.00000E-002	1.00959E-003	5	..........a	-327.66
	1114	223	7.00533E-002	-6.18428E-008	0.00000E+000	7.00000E-002	1.02389E-003	5	..........a	-327.66
	1115	223.2	6.01397E-002	-6.23416E-008	0.00000E+000	6.00000E-002	1.00689E-003	5	..........a	-327.66
	1116	223.4	5.00812E-002	-6.30113E-008	0.00000E+000	5.00000E-002	1.00859E-003	5	..........a	-327.66
	1117	223.6	4.01016E-002	-6.37300E-008	0.00000E+000	4.00000E-002	9.92192E-004	5	..........a	-327.66
	1118	223.8	3.00796E-002	-6.43850E-008	0.00000E+000	3.00000E-002	1.00499E-003	5	..........a	-327.66
	1119	224	2.02014E-002	-6.52223E-008	0.00000E+000	2.00000E-002	9.90192E-004	5	..........a	-327.66
	1120	224.2	1.01369E-002	-6.58679E-008	0.00000E+000	1.00000E-002	9.87192E-004	5	..........a	-327.66