File: data/raw/batch_data/20240424_K_GM0016_HL03_E03_CV50.DTA
EXPLAIN
TAG	CV
TITLE	LABEL	Cyclic Voltammetry	Test &Identifier
DATE	LABEL	4/24/2024	Date
TIME	LABEL	17:17:03	Time
NOTES	NOTES	1	&Notes...

PSTAT	PSTAT	REF600P-43058	Potentiostat
VINIT	POTEN	0.00000E+000	T	Initial &E (V)
VLIMIT1	POTEN	-6.00000E-001	F	Scan Limit &1 (V)
VLIMIT2	POTEN	8.00000E-001	F	Scan Limit &2 (V)
VFINAL	POTEN	0.00000E+000	T	Final &E (V)
SCANRATE	QUANT	4.99999E+001	&Scan Rate (mV/s)
STEPSIZE	QUANT	1.00000E+001	St&ep Size (mV)
CYCLES	IQUANT	4	C&ycles (#)
IMODE	SELECTOR	0	I/E Range &Mode
IRANGE	QUANT	1.00000E-005	&Max Current (mA)
AREA	QUANT	1.00000E+000	Electrode &Area (cm^2)
ELECTRODETYPE	SELECTOR	0	Electrode Type
STRIPPING	TOGGLE	F	Used for Stripping
POLARITY	TOGGLE	F	Signal Polarity
CONDIT	TWOPARAM	F	1.50000E+001	0.00000E+000	Conditionin&g	Time(s)	E(V)
DELAY	TWOPARAM	T	1.00000E+001	0.00000E+000	Init. De&lay	Time(s)	Stab.(mV/s)
EQDELAY	QUANT	1.00000E+001	Equil. &Time (s)
IRCOMP	SELECTOR	0	IRCom&p
PFCOR	QUANT	5.00000E+001	PF Corr. (ohm)
SAMPLINGMODE	SELECTOR	1	Sampling &Mode
OCVCURVE	TABLE	39
	Pt	T	Vf	Vm	Ach	Over	Temp
	#	s	V vs. Ref.	V	V	bits	deg C
	0	0.258333	-1.84780E-001	-1.84780E-001	2.26726E-004	..........a	-327.66
	1	0.516667	-1.84786E-001	-1.85093E-001	2.25592E-004	..........a	-327.66
	2	0.775	-1.84823E-001	-1.85395E-001	2.22392E-004	..........a	-327.66
	3	1.03333	-1.84928E-001	-1.85708E-001	2.15726E-004	..........a	-327.66
	4	1.29167	-1.85118E-001	-1.86007E-001	2.22126E-004	..........a	-327.66
	5	1.55	-1.85377E-001	-1.86308E-001	2.15059E-004	..........a	-327.66
	6	1.80833	-1.85671E-001	-1.86605E-001	2.18192E-004	..........a	-327.66
	7	2.06667	-1.85975E-001	-1.86898E-001	2.24659E-004	..........a	-327.66
	8	2.325	-1.86279E-001	-1.87190E-001	2.25392E-004	..........a	-327.66
	9	2.58333	-1.86578E-001	-1.87438E-001	2.22926E-004	..........a	-327.66
	10	2.84167	-1.86867E-001	-1.87631E-001	2.32126E-004	..........a	-327.66
	11	3.1	-1.87139E-001	-1.87808E-001	2.19926E-004	..........a	-327.66
	12	3.35833	-1.87383E-001	-1.87976E-001	2.12726E-004	..........a	-327.66
	13	3.61667	-1.87597E-001	-1.88140E-001	2.10326E-004	..........a	-327.66
	14	3.875	-1.87787E-001	-1.88300E-001	2.10192E-004	..........a	-327.66
	15	4.13333	-1.87961E-001	-1.88472E-001	2.12592E-004	..........a	-327.66
	16	4.39167	-1.88128E-001	-1.88651E-001	2.26259E-004	..........a	-327.66
	17	4.65	-1.88295E-001	-1.88839E-001	2.15126E-004	..........a	-327.66
	18	4.90833	-1.88466E-001	-1.89041E-001	2.25059E-004	..........a	-327.66
	19	5.16667	-1.88645E-001	-1.89236E-001	2.18792E-004	..........a	-327.66
	20	5.425	-1.88832E-001	-1.89445E-001	2.20592E-004	..........a	-327.66
	21	5.68333	-1.89026E-001	-1.89660E-001	2.19659E-004	..........a	-327.66
	22	5.94167	-1.89227E-001	-1.89878E-001	2.07259E-004	..........a	-327.66
	23	6.2	-1.89434E-001	-1.90100E-001	2.29859E-004	..........a	-327.66
	24	6.45833	-1.89646E-001	-1.90329E-001	2.27859E-004	..........a	-327.66
	25	6.71667	-1.89864E-001	-1.90561E-001	2.28326E-004	..........a	-327.66
	26	6.975	-1.90087E-001	-1.90798E-001	2.22326E-004	..........a	-327.66
	27	7.23333	-1.90314E-001	-1.91028E-001	2.13059E-004	..........a	-327.66
	28	7.49167	-1.90545E-001	-1.91261E-001	2.16792E-004	..........a	-327.66
	29	7.75	-1.90777E-001	-1.91498E-001	2.16259E-004	..........a	-327.66
	30	8.00833	-1.91010E-001	-1.91730E-001	2.09192E-004	..........a	-327.66
	31	8.26667	-1.91244E-001	-1.91968E-001	2.16259E-004	..........a	-327.66
	32	8.525	-1.91478E-001	-1.92203E-001	2.21992E-004	..........a	-327.66
	33	8.78333	-1.91713E-001	-1.92444E-001	2.19126E-004	..........a	-327.66
	34	9.04167	-1.91950E-001	-1.92678E-001	2.20859E-004	..........a	-327.66
	35	9.3	-1.92186E-001	-1.92916E-001	2.18659E-004	..........a	-327.66
	36	9.5583	-1.92423E-001	-1.93146E-001	2.29059E-004	..........a	-327.66
	37	9.8167	-1.92660E-001	-1.93389E-001	2.23059E-004	..........a	-327.66
	38	10.075	-1.92896E-001	-1.93618E-001	2.23059E-004	..........a	-327.66
EOC	QUANT	-0.1928957	Open Circuit (V)
PSTATMODEL	IQUANT	7	Pstat Model
PSTATSECTION	LABEL	REF600P-43058	Pstat Section
PSTATSERIALNO	LABEL	43058	Pstat Serial Number
CTRLMODE	IQUANT	1	Control Mode
ELECTROMETER	IQUANT	0	RE=0 or CS=1
IESTAB	IQUANT	2	I/E Stability
CASPEED	IQUANT	4	Control Amp Speed
CONVENTION	IQUANT	1	Current Convention
ICHRANGE	IQUANT	2	Ich Range
ICHRANGEMODE	TOGGLE	F	Ich Auto Range
ICHOFFSETENABLE	TOGGLE	F	Ich Offset Enable
ICHOFFSET	QUANT	0	Ich Offset (V)
ICHFILTER	IQUANT	2	Ich Filter
VCHRANGE	IQUANT	2	Vch Range
VCHRANGEMODE	TOGGLE	F	Vch Auto Range
VCHOFFSETENABLE	TOGGLE	F	Vch Offset Enable
VCHOFFSET	QUANT	0	Vch Offset (V)
VCHFILTER	IQUANT	2	Vch Filter
ACHRANGE	IQUANT	2	Ach Range
ACHOFFSETENABLE	TOGGLE	F	Ach Offset Enable
ACHOFFSET	QUANT	0	Ach Offset (V)
ACHFILTER	IQUANT	1	Ach Filter
IERANGELOWERLIMIT	IQUANT	1	I/E Range Lower Limit
IERANGEMODE	TOGGLE	T	I/E AutoRange
IERANGE	IQUANT	4	I/E Range
POSFEEDENABLE	TOGGLE	F	Positive Feedback IR Comp
POSFEEDRESISTANCE	QUANT	0	Positive Feedback Resistance (ohm)
ACHSELECT	IQUANT	4	Ach Select
SENSECABLEID	IQUANT	7	Sense Cable ID
PWRCABLEID	IQUANT	7	Power Cable ID
DCCALDATE	LABEL	3/22/2024	DC Calibration Date
ACCALDATE	LABEL	3/22/2024	AC Calibration Date
THERMOSELECT	IQUANT	1	Thermo Select
FRAMEWORKVERSION	LABEL	7.8.4	Framework Version
INSTRUMENTVERSION	LABEL	4.42	Instrument Version
CURVE1	TABLE
	Pt	T	Vf	Im	Vu	Sig	Ach	IERange	Over	Temp
	#	s	V vs. Ref.	A	V	V	V	#	bits	deg C
	0	0.2	-1.92862E-001	1.79423E-009	0.00000E+000	-1.92900E-001	9.58592E-004	5	..........a	-327.66
	1	0.4	-2.02908E-001	-1.57091E-009	0.00000E+000	-2.02900E-001	9.68092E-004	5	..........a	-327.66
	2	0.6	-2.12807E-001	-3.93724E-009	0.00000E+000	-2.12900E-001	9.82992E-004	5	..........a	-327.66
	3	0.8	-2.22778E-001	-6.01953E-009	0.00000E+000	-2.22900E-001	9.58992E-004	5	..........a	-327.66
	4	1	-2.32811E-001	-7.97732E-009	0.00000E+000	-2.32900E-001	9.58192E-004	5	..........a	-327.66
	5	1.2	-2.42752E-001	-9.80369E-009	0.00000E+000	-2.42900E-001	9.72592E-004	5	..........a	-327.66
	6	1.4	-2.52834E-001	-1.15920E-008	0.00000E+000	-2.52900E-001	9.75792E-004	5	..........a	-327.66
	7	1.6	-2.62747E-001	-1.33343E-008	0.00000E+000	-2.62900E-001	9.63192E-004	5	..........a	-327.66
	8	1.8	-2.72778E-001	-1.50118E-008	0.00000E+000	-2.72900E-001	9.70892E-004	5	..........a	-327.66
	9	2	-2.82819E-001	-1.66920E-008	0.00000E+000	-2.82900E-001	9.72692E-004	5	..........a	-327.66
	10	2.2	-2.92821E-001	-1.83512E-008	0.00000E+000	-2.92900E-001	9.64992E-004	5	..........a	-327.66
	11	2.4	-3.02756E-001	-1.99737E-008	0.00000E+000	-3.02900E-001	9.73492E-004	5	..........a	-327.66
	12	2.6	-3.12795E-001	-2.16012E-008	0.00000E+000	-3.12900E-001	9.70292E-004	5	..........a	-327.66
	13	2.8	-3.22826E-001	-2.32157E-008	0.00000E+000	-3.22900E-001	9.87892E-004	5	..........a	-327.66
	14	3	-3.32844E-001	-2.49541E-008	0.00000E+000	-3.32900E-001	9.55292E-004	5	..........a	-327.66
	15	3.2	-3.42743E-001	-2.65110E-008	0.00000E+000	-3.42900E-001	9.70592E-004	5	..........a	-327.66
	16	3.4	-3.52813E-001	-2.80727E-008	0.00000E+000	-3.52900E-001	9.67092E-004	5	..........a	-327.66
	17	3.6	-3.62804E-001	-2.95989E-008	0.00000E+000	-3.62900E-001	9.79892E-004	5	..........a	-327.66
	18	3.8	-3.72780E-001	-3.11862E-008	0.00000E+000	-3.72900E-001	9.68292E-004	5	..........a	-327.66
	19	4	-3.82774E-001	-3.26888E-008	0.00000E+000	-3.82900E-001	9.80392E-004	5	..........a	-327.66
	20	4.2	-3.92762E-001	-3.42505E-008	0.00000E+000	-3.92900E-001	9.73792E-004	5	..........a	-327.66
	21	4.4	-4.02782E-001	-3.58492E-008	0.00000E+000	-4.02900E-001	9.72092E-004	5	..........a	-327.66
	22	4.6	-4.12802E-001	-3.74017E-008	0.00000E+000	-4.12900E-001	9.72692E-004	5	..........a	-327.66
	23	4.8	-4.22746E-001	-3.89826E-008	0.00000E+000	-4.22900E-001	9.79792E-004	5	..........a	-327.66
	24	5	-4.32758E-001	-4.06181E-008	0.00000E+000	-4.32900E-001	9.68392E-004	5	..........a	-327.66
	25	5.2	-4.42787E-001	-4.22637E-008	0.00000E+000	-4.42900E-001	9.65792E-004	5	..........a	-327.66
	26	5.4	-4.52746E-001	-4.39282E-008	0.00000E+000	-4.52900E-001	9.69692E-004	5	..........a	-327.66
	27	5.6	-4.62709E-001	-4.55628E-008	0.00000E+000	-4.62900E-001	9.71092E-004	5	..........a	-327.66
	28	5.8	-4.72738E-001	-4.72592E-008	0.00000E+000	-4.72900E-001	9.65492E-004	5	..........a	-327.66
	29	6	-4.82783E-001	-4.89613E-008	0.00000E+000	-4.82900E-001	9.84792E-004	5	..........a	-327.66
	30	6.2	-4.92766E-001	-5.06864E-008	0.00000E+000	-4.92900E-001	9.67692E-004	5	..........a	-327.66
	31	6.4	-5.02718E-001	-5.24294E-008	0.00000E+000	-5.02900E-001	9.66892E-004	5	..........a	-327.66
	32	6.6	-5.12757E-001	-5.42266E-008	0.00000E+000	-5.12900E-001	9.76092E-004	5	..........a	-327.66
	33	6.8	-5.22735E-001	-5.60155E-008	0.00000E+000	-5.22900E-001	9.74592E-004	5	..........a	-327.66
	34	7	-5.32797E-001	-5.78526E-008	0.00000E+000	-5.32900E-001	9.76692E-004	5	..........a	-327.66
	35	7.2	-5.42743E-001	-5.97121E-008	0.00000E+000	-5.42900E-001	9.75892E-004	5	..........a	-327.66
	36	7.4	-5.52751E-001	-6.16684E-008	0.00000E+000	-5.52900E-001	9.66392E-004	5	..........a	-327.66
	37	7.6	-5.62805E-001	-6.36087E-008	0.00000E+000	-5.62900E-001	9.75892E-004	5	..........a	-327.66
	38	7.8	-5.72764E-001	-6.56101E-008	0.00000E+000	-5.72900E-001	9.70692E-004	5	..........a	-327.66
	39	8	-5.82731E-001	-6.77286E-008	0.00000E+000	-5.82900E-001	9.75392E-004	5	..........a	-327.66
	40	8.2	-5.92716E-001	-6.98529E-008	0.00000E+000	-5.92900E-001	9.54992E-004	5	..........a	-327.66
	41	8.4	-6.02737E-001	-7.20665E-008	0.00000E+000	-6.02900E-001	9.59192E-004	5	..........a	-327.66
	42	8.6	-5.92714E-001	-6.17574E-008	0.00000E+000	-5.92900E-001	9.61292E-004	5	..........a	-327.66
	43	8.8	-5.82724E-001	-5.51182E-008	0.00000E+000	-5.82900E-001	9.85492E-004	5	..........a	-327.66
	44	9	-5.72781E-001	-5.00397E-008	0.00000E+000	-5.72900E-001	9.64092E-004	5	..........a	-327.66
	45	9.2	-5.62713E-001	-4.57732E-008	0.00000E+000	-5.62900E-001	9.75792E-004	5	..........a	-327.66
	46	9.4	-5.52759E-001	-4.21391E-008	0.00000E+000	-5.52900E-001	9.66792E-004	5	..........a	-327.66
	47	9.6	-5.42737E-001	-3.88115E-008	0.00000E+000	-5.42900E-001	9.66292E-004	5	..........a	-327.66
	48	9.8	-5.32788E-001	-3.58405E-008	0.00000E+000	-5.32900E-001	9.67092E-004	5	..........a	-327.66
	49	10	-5.22725E-001	-3.30537E-008	0.00000E+000	-5.22900E-001	9.63892E-004	5	..........a	-327.66
	50	10.2	-5.12809E-001	-3.04281E-008	0.00000E+000	-5.12900E-001	9.67892E-004	5	..........a	-327.66
	51	10.4	-5.02753E-001	-2.79946E-008	0.00000E+000	-5.02900E-001	9.75492E-004	5	..........a	-327.66
	52	10.6	-4.92777E-001	-2.56953E-008	0.00000E+000	-4.92900E-001	9.82092E-004	5	..........a	-327.66
	53	10.8	-4.82738E-001	-2.34809E-008	0.00000E+000	-4.82900E-001	9.75992E-004	5	..........a	-327.66
	54	11	-4.72764E-001	-2.13594E-008	0.00000E+000	-4.72900E-001	9.62892E-004	5	..........a	-327.66
	55	11.2	-4.62728E-001	-1.92960E-008	0.00000E+000	-4.62900E-001	9.78192E-004	5	..........a	-327.66
	56	11.4	-4.52788E-001	-1.73276E-008	0.00000E+000	-4.52900E-001	9.74192E-004	5	..........a	-327.66
	57	11.6	-4.42869E-001	-1.54459E-008	0.00000E+000	-4.42900E-001	9.67992E-004	5	..........a	-327.66
	58	11.8	-4.32779E-001	-1.35894E-008	0.00000E+000	-4.32900E-001	9.67192E-004	5	..........a	-327.66
	59	12	-4.22757E-001	-1.17926E-008	0.00000E+000	-4.22900E-001	9.77492E-004	5	..........a	-327.66
	60	12.2	-4.12834E-001	-1.00351E-008	0.00000E+000	-4.12900E-001	9.65092E-004	5	..........a	-327.66
	61	12.4	-4.02774E-001	-8.36485E-009	0.00000E+000	-4.02900E-001	9.73492E-004	5	..........a	-327.66
	62	12.6	-3.92811E-001	-6.71599E-009	0.00000E+000	-3.92900E-001	9.77792E-004	5	..........a	-327.66
	63	12.8	-3.82754E-001	-5.14285E-009	0.00000E+000	-3.82900E-001	9.73392E-004	5	..........a	-327.66
	64	13	-3.72818E-001	-3.52451E-009	0.00000E+000	-3.72900E-001	9.68592E-004	5	..........a	-327.66
	65	13.2	-3.62879E-001	-2.01774E-009	0.00000E+000	-3.62900E-001	9.74492E-004	5	..........a	-327.66
	66	13.4	-3.52846E-001	-5.32093E-010	0.00000E+000	-3.52900E-001	9.57792E-004	5	..........a	-327.66
	67	13.6	-3.42773E-001	9.78903E-010	0.00000E+000	-3.42900E-001	9.80392E-004	5	..........a	-327.66
	68	13.8	-3.32902E-001	2.41984E-009	0.00000E+000	-3.32900E-001	9.71792E-004	5	..........a	-327.66
	69	14	-3.22878E-001	3.83164E-009	0.00000E+000	-3.22900E-001	9.61992E-004	5	..........a	-327.66
	70	14.2	-3.12821E-001	5.18839E-009	0.00000E+000	-3.12900E-001	9.60292E-004	5	..........a	-327.66
	71	14.4	-3.02791E-001	6.57571E-009	0.00000E+000	-3.02900E-001	9.75492E-004	5	..........a	-327.66
	72	14.6	-2.92924E-001	7.90326E-009	0.00000E+000	-2.92900E-001	9.66892E-004	5	..........a	-327.66
	73	14.8	-2.82833E-001	9.24087E-009	0.00000E+000	-2.82900E-001	9.69892E-004	5	..........a	-327.66
	74	15	-2.72821E-001	1.05448E-008	0.00000E+000	-2.72900E-001	9.51892E-004	5	..........a	-327.66
	75	15.2	-2.62802E-001	1.18201E-008	0.00000E+000	-2.62900E-001	9.86292E-004	5	..........a	-327.66
	76	15.4	-2.52892E-001	1.30936E-008	0.00000E+000	-2.52900E-001	9.75392E-004	5	..........a	-327.66
	77	15.6	-2.42811E-001	1.43403E-008	0.00000E+000	-2.42900E-001	9.68092E-004	5	..........a	-327.66
	78	15.8	-2.32870E-001	1.55974E-008	0.00000E+000	-2.32900E-001	9.48292E-004	5	..........a	-327.66
	79	16	-2.22783E-001	1.68634E-008	0.00000E+000	-2.22900E-001	9.66892E-004	5	..........a	-327.66
	80	16.2	-2.12905E-001	1.80207E-008	0.00000E+000	-2.12900E-001	9.71692E-004	5	..........a	-327.66
	81	16.4	-2.02931E-001	1.92338E-008	0.00000E+000	-2.02900E-001	9.54992E-004	5	..........a	-327.66
	82	16.6	-1.92882E-001	2.04072E-008	0.00000E+000	-1.92900E-001	9.66792E-004	5	..........a	-327.66
	83	16.8	-1.82833E-001	2.16282E-008	0.00000E+000	-1.82900E-001	9.94092E-004	5	..........a	-327.66
	84	17	-1.72889E-001	2.28075E-008	0.00000E+000	-1.72900E-001	9.69792E-004	5	..........a	-327.66
	85	17.2	-1.62837E-001	2.39684E-008	0.00000E+000	-1.62900E-001	9.74792E-004	5	..........a	-327.66
	86	17.4	-1.52913E-001	2.51232E-008	0.00000E+000	-1.52900E-001	9.72892E-004	5	..........a	-327.66
	87	17.6	-1.42846E-001	2.62943E-008	0.00000E+000	-1.42900E-001	9.69692E-004	5	..........a	-327.66
	88	17.8	-1.32892E-001	2.74653E-008	0.00000E+000	-1.32900E-001	9.75292E-004	5	..........a	-327.66
	89	18	-1.22914E-001	2.86121E-008	0.00000E+000	-1.22900E-001	9.76092E-004	5	..........a	-327.66
	90	18.2	-1.12911E-001	2.97525E-008	0.00000E+000	-1.12900E-001	9.70892E-004	5	..........a	-327.66
	91	18.4	-1.02827E-001	3.09097E-008	0.00000E+000	-1.02900E-001	9.79692E-004	5	..........a	-327.66
	92	18.6	-9.28731E-002	3.20627E-008	0.00000E+000	-9.29000E-002	9.57792E-004	5	..........a	-327.66
	93	18.8	-8.29462E-002	3.32028E-008	0.00000E+000	-8.29000E-002	9.62392E-004	5	..........a	-327.66
	94	19	-7.28815E-002	3.43546E-008	0.00000E+000	-7.29000E-002	9.53792E-004	5	..........a	-327.66
	95	19.2	-6.27932E-002	3.54976E-008	0.00000E+000	-6.29000E-002	9.63492E-004	5	..........a	-327.66
	96	19.4	-5.28667E-002	3.66546E-008	0.00000E+000	-5.29000E-002	9.68692E-004	5	..........a	-327.66
	97	19.6	-4.28540E-002	3.77958E-008	0.00000E+000	-4.29000E-002	9.78692E-004	5	..........a	-327.66
	98	19.8	-3.28967E-002	3.89645E-008	0.00000E+000	-3.29000E-002	9.58092E-004	5	..........a	-327.66
	99	20	-2.28209E-002	4.01298E-008	0.00000E+000	-2.29000E-002	9.65592E-004	5	..........a	-327.66
	100	20.2	-1.29070E-002	4.13113E-008	0.00000E+000	-1.29000E-002	9.65392E-004	5	..........a	-327.66
	101	20.4	-2.86241E-003	4.24992E-008	0.00000E+000	-2.90000E-003	9.73592E-004	5	..........a	-327.66
	102	20.6	7.13344E-003	4.36609E-008	0.00000E+000	7.10000E-003	9.66492E-004	5	..........a	-327.66
	103	20.8	1.71229E-002	4.48532E-008	0.00000E+000	1.71000E-002	9.79692E-004	5	..........a	-327.66
	104	21	2.71223E-002	4.60358E-008	0.00000E+000	2.71000E-002	9.72992E-004	5	..........a	-327.66
	105	21.2	3.71269E-002	4.72629E-008	0.00000E+000	3.71000E-002	9.79292E-004	5	..........a	-327.66
	106	21.4	4.71461E-002	4.84545E-008	0.00000E+000	4.71000E-002	9.70692E-004	5	..........a	-327.66
	107	21.6	5.71741E-002	4.96836E-008	0.00000E+000	5.71000E-002	9.74792E-004	5	..........a	-327.66
	108	21.8	6.71222E-002	5.08951E-008	0.00000E+000	6.71000E-002	9.66492E-004	5	..........a	-327.66
	109	22	7.71293E-002	5.21323E-008	0.00000E+000	7.71000E-002	9.72792E-004	5	..........a	-327.66
	110	22.2	8.71480E-002	5.34113E-008	0.00000E+000	8.71000E-002	9.69992E-004	5	..........a	-327.66
	111	22.4	9.71874E-002	5.46261E-008	0.00000E+000	9.71000E-002	9.66192E-004	5	..........a	-327.66
	112	22.6	1.07134E-001	5.59211E-008	0.00000E+000	1.07100E-001	9.81292E-004	5	..........a	-327.66
	113	22.8	1.17042E-001	5.72169E-008	0.00000E+000	1.17100E-001	9.57892E-004	5	..........a	-327.66
	114	23	1.27143E-001	5.85154E-008	0.00000E+000	1.27100E-001	9.68992E-004	5	..........a	-327.66
	115	23.2	1.37185E-001	5.98241E-008	0.00000E+000	1.37100E-001	9.72292E-004	5	..........a	-327.66
	116	23.4	1.47096E-001	6.11511E-008	0.00000E+000	1.47100E-001	9.83892E-004	5	..........a	-327.66
	117	23.6	1.57094E-001	6.25153E-008	0.00000E+000	1.57100E-001	9.81992E-004	5	..........a	-327.66
	118	23.8	1.67179E-001	6.38729E-008	0.00000E+000	1.67100E-001	9.72592E-004	5	..........a	-327.66
	119	24	1.77165E-001	6.52542E-008	0.00000E+000	1.77100E-001	9.77092E-004	5	..........a	-327.66
	120	24.2	1.87110E-001	6.66174E-008	0.00000E+000	1.87100E-001	9.67292E-004	5	..........a	-327.66
	121	24.4	1.97108E-001	6.80362E-008	0.00000E+000	1.97100E-001	9.73492E-004	5	..........a	-327.66
	122	24.6	2.07089E-001	6.94555E-008	0.00000E+000	2.07100E-001	9.74192E-004	5	..........a	-327.66
	123	24.8	2.17131E-001	7.09334E-008	0.00000E+000	2.17100E-001	9.74792E-004	5	..........a	-327.66
	124	25	2.27089E-001	7.25944E-008	0.00000E+000	2.27100E-001	9.80392E-004	5	..........a	-327.66
	125	25.2	2.37039E-001	7.42456E-008	0.00000E+000	2.37100E-001	9.79992E-004	5	..........a	-327.66
	126	25.4	2.47092E-001	7.58483E-008	0.00000E+000	2.47100E-001	9.73892E-004	5	..........a	-327.66
	127	25.6	2.57158E-001	7.73088E-008	0.00000E+000	2.57100E-001	9.74292E-004	5	..........a	-327.66
	128	25.8	2.67066E-001	7.86964E-008	0.00000E+000	2.67100E-001	9.55192E-004	5	..........a	-327.66
	129	26	2.77074E-001	8.00547E-008	0.00000E+000	2.77100E-001	9.66592E-004	5	..........a	-327.66
	130	26.2	2.87071E-001	8.15207E-008	0.00000E+000	2.87100E-001	9.61792E-004	5	..........a	-327.66
	131	26.4	2.97179E-001	8.31162E-008	0.00000E+000	2.97100E-001	9.71892E-004	5	..........a	-327.66
	132	26.6	3.07029E-001	8.47590E-008	0.00000E+000	3.07100E-001	9.69992E-004	5	..........a	-327.66
	133	26.8	3.17075E-001	8.65806E-008	0.00000E+000	3.17100E-001	9.76792E-004	5	..........a	-327.66
	134	27	3.27109E-001	8.85243E-008	0.00000E+000	3.27100E-001	9.75292E-004	5	..........a	-327.66
	135	27.2	3.37151E-001	9.06082E-008	0.00000E+000	3.37100E-001	9.75092E-004	5	..........a	-327.66
	136	27.4	3.47067E-001	9.28315E-008	0.00000E+000	3.47100E-001	9.70692E-004	5	..........a	-327.66
	137	27.6	3.57051E-001	9.52278E-008	0.00000E+000	3.57100E-001	9.93592E-004	5	..........a	-327.66
	138	27.8	3.67060E-001	9.76841E-008	0.00000E+000	3.67100E-001	9.71092E-004	5	..........a	-327.66
	139	28	3.77146E-001	1.00271E-007	0.00000E+000	3.77100E-001	9.73392E-004	5	..........a	-327.66
	140	28.2	3.87060E-001	1.02957E-007	0.00000E+000	3.87100E-001	9.62792E-004	5	..........a	-327.66
	141	28.4	3.97089E-001	1.05749E-007	0.00000E+000	3.97100E-001	9.75092E-004	5	..........a	-327.66
	142	28.6	4.07063E-001	1.08515E-007	0.00000E+000	4.07100E-001	9.81492E-004	5	..........a	-327.66
	143	28.8	4.17106E-001	1.11372E-007	0.00000E+000	4.17100E-001	9.68992E-004	5	..........a	-327.66
	144	29	4.27048E-001	1.14225E-007	0.00000E+000	4.27100E-001	9.82192E-004	5	..........a	-327.66
	145	29.2	4.37027E-001	1.17119E-007	0.00000E+000	4.37100E-001	9.78892E-004	5	..........a	-327.66
	146	29.4	4.47038E-001	1.20060E-007	0.00000E+000	4.47100E-001	9.68992E-004	5	..........a	-327.66
	147	29.6	4.57143E-001	1.22954E-007	0.00000E+000	4.57100E-001	9.66692E-004	5	..........a	-327.66
	148	29.8	4.67014E-001	1.25891E-007	0.00000E+000	4.67100E-001	9.75692E-004	5	..........a	-327.66
	149	30	4.77055E-001	1.28792E-007	0.00000E+000	4.77100E-001	9.66192E-004	5	..........a	-327.66
	150	30.2	4.86995E-001	1.31670E-007	0.00000E+000	4.87100E-001	9.66092E-004	5	..........a	-327.66
	151	30.4	4.97067E-001	1.34548E-007	0.00000E+000	4.97100E-001	9.63692E-004	5	..........a	-327.66
	152	30.6	5.07020E-001	1.37407E-007	0.00000E+000	5.07100E-001	9.66492E-004	5	..........a	-327.66
	153	30.8	5.17020E-001	1.40214E-007	0.00000E+000	5.17100E-001	9.64792E-004	5	..........a	-327.66
	154	31	5.26963E-001	1.43018E-007	0.00000E+000	5.27100E-001	9.48592E-004	5	..........a	-327.66
	155	31.2	5.37118E-001	1.45788E-007	0.00000E+000	5.37100E-001	9.80692E-004	5	..........a	-327.66
	156	31.4	5.47010E-001	1.48531E-007	0.00000E+000	5.47100E-001	9.91792E-004	5	..........a	-327.66
	157	31.6	5.57001E-001	1.51271E-007	0.00000E+000	5.57100E-001	9.97592E-004	5	..........a	-327.66
	158	31.8	5.67006E-001	1.54016E-007	0.00000E+000	5.67100E-001	9.72992E-004	5	..........a	-327.66
	159	32	5.77112E-001	1.56710E-007	0.00000E+000	5.77100E-001	9.60892E-004	5	..........a	-327.66
	160	32.2	5.87001E-001	1.59361E-007	0.00000E+000	5.87100E-001	9.65692E-004	5	..........a	-327.66
	161	32.4	5.96993E-001	1.62084E-007	0.00000E+000	5.97100E-001	9.75292E-004	5	..........a	-327.66
	162	32.6	6.06999E-001	1.64749E-007	0.00000E+000	6.07100E-001	9.74292E-004	5	..........a	-327.66
	163	32.8	6.17061E-001	1.67468E-007	0.00000E+000	6.17100E-001	9.69992E-004	5	..........a	-327.66
	164	33	6.26982E-001	1.70163E-007	0.00000E+000	6.27100E-001	9.72392E-004	5	..........a	-327.66
	165	33.2	6.36941E-001	1.72917E-007	0.00000E+000	6.37100E-001	9.82492E-004	5	..........a	-327.66
	166	33.4	6.46974E-001	1.75580E-007	0.00000E+000	6.47100E-001	9.80892E-004	5	..........a	-327.66
	167	33.6	6.57094E-001	1.78319E-007	0.00000E+000	6.57100E-001	9.79592E-004	5	..........a	-327.66
	168	33.8	6.66958E-001	1.81004E-007	0.00000E+000	6.67100E-001	9.72092E-004	5	..........a	-327.66
	169	34	6.76968E-001	1.83752E-007	0.00000E+000	6.77100E-001	9.66792E-004	5	..........a	-327.66
	170	34.2	6.86957E-001	1.86568E-007	0.00000E+000	6.87100E-001	9.76492E-004	5	..........a	-327.66
	171	34.4	6.97007E-001	1.89430E-007	0.00000E+000	6.97100E-001	9.80292E-004	5	..........a	-327.66
	172	34.6	7.06950E-001	1.92382E-007	0.00000E+000	7.07100E-001	9.71392E-004	5	..........a	-327.66
	173	34.8	7.16936E-001	1.95427E-007	0.00000E+000	7.17100E-001	9.74392E-004	5	..........a	-327.66
	174	35	7.26971E-001	1.98618E-007	0.00000E+000	7.27100E-001	9.65992E-004	5	..........a	-327.66
	175	35.2	7.37071E-001	2.01993E-007	0.00000E+000	7.37100E-001	9.71292E-004	5	..........a	-327.66
	176	35.4	7.46959E-001	2.05498E-007	0.00000E+000	7.47100E-001	9.74492E-004	5	..........a	-327.66
	177	35.6	7.57023E-001	2.09281E-007	0.00000E+000	7.57100E-001	9.78592E-004	5	..........a	-327.66
	178	35.8	7.66943E-001	2.13281E-007	0.00000E+000	7.67100E-001	9.75992E-004	5	..........a	-327.66
	179	36	7.76983E-001	2.17554E-007	0.00000E+000	7.77100E-001	9.68092E-004	5	..........a	-327.66
	180	36.2	7.86923E-001	2.22154E-007	0.00000E+000	7.87100E-001	9.77192E-004	5	..........a	-327.66
	181	36.4	7.96917E-001	2.27137E-007	0.00000E+000	7.97100E-001	9.73692E-004	5	..........a	-327.66
CURVE2	TABLE
	Pt	T	Vf	Im	Vu	Sig	Ach	IERange	Over	Temp
	#	s	V vs. Ref.	A	V	V	V	#	bits	deg C
	182	36.6	7.89948E-001	1.98048E-007	0.00000E+000	7.90000E-001	9.79492E-004	5	..........a	-327.66
	183	36.8	7.79842E-001	1.74486E-007	0.00000E+000	7.80000E-001	9.67692E-004	5	..........a	-327.66
	184	37	7.69898E-001	1.57657E-007	0.00000E+000	7.70000E-001	9.74692E-004	5	..........a	-327.66
	185	37.2	7.59876E-001	1.44771E-007	0.00000E+000	7.60000E-001	9.76392E-004	5	..........a	-327.66
	186	37.4	7.49956E-001	1.34490E-007	0.00000E+000	7.50000E-001	9.68192E-004	5	..........a	-327.66
	187	37.6	7.39871E-001	1.25998E-007	0.00000E+000	7.40000E-001	9.48092E-004	5	..........a	-327.66
	188	37.8	7.29909E-001	1.18748E-007	0.00000E+000	7.30000E-001	9.88392E-004	5	..........a	-327.66
	189	38	7.19890E-001	1.12445E-007	0.00000E+000	7.20000E-001	9.87492E-004	5	..........a	-327.66
	190	38.2	7.09972E-001	1.06923E-007	0.00000E+000	7.10000E-001	9.61192E-004	5	..........a	-327.66
	191	38.4	6.99892E-001	1.01912E-007	0.00000E+000	7.00000E-001	9.62092E-004	5	..........a	-327.66
	192	38.6	6.89890E-001	9.73906E-008	0.00000E+000	6.90000E-001	9.72492E-004	5	..........a	-327.66
	193	38.8	6.79910E-001	9.32132E-008	0.00000E+000	6.80000E-001	9.80692E-004	5	..........a	-327.66
	194	39	6.69948E-001	8.93123E-008	0.00000E+000	6.70000E-001	9.77492E-004	5	..........a	-327.66
	195	39.2	6.59918E-001	8.56661E-008	0.00000E+000	6.60000E-001	9.68092E-004	5	..........a	-327.66
	196	39.4	6.49902E-001	8.22001E-008	0.00000E+000	6.50000E-001	9.81592E-004	5	..........a	-327.66
	197	39.6	6.39893E-001	7.89400E-008	0.00000E+000	6.40000E-001	9.79092E-004	5	..........a	-327.66
	198	39.8	6.30008E-001	7.58782E-008	0.00000E+000	6.30000E-001	9.85592E-004	5	..........a	-327.66
	199	40	6.19917E-001	7.29141E-008	0.00000E+000	6.20000E-001	9.63192E-004	5	..........a	-327.66
	200	40.2	6.09942E-001	7.00471E-008	0.00000E+000	6.10000E-001	9.80892E-004	5	..........a	-327.66
	201	40.4	5.99945E-001	6.73201E-008	0.00000E+000	6.00000E-001	9.76692E-004	5	..........a	-327.66
	202	40.6	5.89981E-001	6.47099E-008	0.00000E+000	5.90000E-001	9.64692E-004	5	..........a	-327.66
	203	40.8	5.79969E-001	6.21996E-008	0.00000E+000	5.80000E-001	9.74092E-004	5	..........a	-327.66
	204	41	5.69951E-001	5.97789E-008	0.00000E+000	5.70000E-001	9.55792E-004	5	..........a	-327.66
	205	41.2	5.59931E-001	5.74678E-008	0.00000E+000	5.60000E-001	9.64392E-004	5	..........a	-327.66
	206	41.4	5.50009E-001	5.51779E-008	0.00000E+000	5.50000E-001	9.73192E-004	5	..........a	-327.66
	207	41.6	5.39981E-001	5.29408E-008	0.00000E+000	5.40000E-001	9.62192E-004	5	..........a	-327.66
	208	41.8	5.29949E-001	5.07197E-008	0.00000E+000	5.30000E-001	9.66592E-004	5	..........a	-327.66
	209	42	5.19955E-001	4.86060E-008	0.00000E+000	5.20000E-001	9.70792E-004	5	..........a	-327.66
	210	42.2	5.09985E-001	4.65370E-008	0.00000E+000	5.10000E-001	9.81992E-004	5	..........a	-327.66
	211	42.4	5.00025E-001	4.45370E-008	0.00000E+000	5.00000E-001	9.63992E-004	5	..........a	-327.66
	212	42.6	4.89960E-001	4.25630E-008	0.00000E+000	4.90000E-001	9.82392E-004	5	..........a	-327.66
	213	42.8	4.79929E-001	4.05718E-008	0.00000E+000	4.80000E-001	9.78392E-004	5	..........a	-327.66
	214	43	4.70020E-001	3.86134E-008	0.00000E+000	4.70000E-001	9.79292E-004	5	..........a	-327.66
	215	43.2	4.59971E-001	3.66701E-008	0.00000E+000	4.60000E-001	9.68292E-004	5	..........a	-327.66
	216	43.4	4.50045E-001	3.47086E-008	0.00000E+000	4.50000E-001	9.65592E-004	5	..........a	-327.66
	217	43.6	4.39946E-001	3.27568E-008	0.00000E+000	4.40000E-001	9.99892E-004	5	..........a	-327.66
	218	43.8	4.30005E-001	3.07767E-008	0.00000E+000	4.30000E-001	9.69192E-004	5	..........a	-327.66
	219	44	4.19995E-001	2.88422E-008	0.00000E+000	4.20000E-001	9.83992E-004	5	..........a	-327.66
	220	44.2	4.09986E-001	2.68181E-008	0.00000E+000	4.10000E-001	9.81392E-004	5	..........a	-327.66
	221	44.4	3.99994E-001	2.48720E-008	0.00000E+000	4.00000E-001	9.78392E-004	5	..........a	-327.66
	222	44.6	3.90008E-001	2.29266E-008	0.00000E+000	3.90000E-001	9.98892E-004	5	..........a	-327.66
	223	44.8	3.80050E-001	2.09627E-008	0.00000E+000	3.80000E-001	9.65792E-004	5	..........a	-327.66
	224	45	3.70032E-001	1.90090E-008	0.00000E+000	3.70000E-001	9.69792E-004	5	..........a	-327.66
	225	45.2	3.59990E-001	1.70633E-008	0.00000E+000	3.60000E-001	9.78192E-004	5	..........a	-327.66
	226	45.4	3.50030E-001	1.51025E-008	0.00000E+000	3.50000E-001	9.72492E-004	5	..........a	-327.66
	227	45.6	3.40045E-001	1.31386E-008	0.00000E+000	3.40000E-001	9.59392E-004	5	..........a	-327.66
	228	45.8	3.30011E-001	1.11557E-008	0.00000E+000	3.30000E-001	9.77092E-004	5	..........a	-327.66
	229	46	3.20019E-001	9.18880E-009	0.00000E+000	3.20000E-001	9.90692E-004	5	..........a	-327.66
	230	46.2	3.10002E-001	7.17997E-009	0.00000E+000	3.10000E-001	9.91392E-004	5	..........a	-327.66
	231	46.4	3.00070E-001	5.20360E-009	0.00000E+000	3.00000E-001	9.63792E-004	5	..........a	-327.66
	232	46.6	2.89984E-001	3.17747E-009	0.00000E+000	2.90000E-001	9.76292E-004	5	..........a	-327.66
	233	46.8	2.79967E-001	1.18470E-009	0.00000E+000	2.80000E-001	9.79092E-004	5	..........a	-327.66
	234	47	2.70054E-001	-9.04707E-010	0.00000E+000	2.70000E-001	9.73792E-004	5	..........a	-327.66
	235	47.2	2.60041E-001	-2.89458E-009	0.00000E+000	2.60000E-001	9.84392E-004	5	..........a	-327.66
	236	47.4	2.50040E-001	-4.88771E-009	0.00000E+000	2.50000E-001	9.68492E-004	5	..........a	-327.66
	237	47.6	2.40038E-001	-6.83683E-009	0.00000E+000	2.40000E-001	9.73092E-004	5	..........a	-327.66
	238	47.8	2.30038E-001	-8.74067E-009	0.00000E+000	2.30000E-001	9.87392E-004	5	..........a	-327.66
	239	48	2.20032E-001	-1.05522E-008	0.00000E+000	2.20000E-001	9.49092E-004	5	..........a	-327.66
	240	48.2	2.10009E-001	-1.22831E-008	0.00000E+000	2.10000E-001	9.73992E-004	5	..........a	-327.66
	241	48.4	2.00074E-001	-1.38247E-008	0.00000E+000	2.00000E-001	9.76692E-004	5	..........a	-327.66
	242	48.6	1.90114E-001	-1.51909E-008	0.00000E+000	1.90000E-001	9.61492E-004	5	..........a	-327.66
	243	48.8	1.80085E-001	-1.63876E-008	0.00000E+000	1.80000E-001	9.66692E-004	5	..........a	-327.66
	244	49	1.70060E-001	-1.73071E-008	0.00000E+000	1.70000E-001	9.74692E-004	5	..........a	-327.66
	245	49.2	1.60048E-001	-1.80582E-008	0.00000E+000	1.60000E-001	9.81192E-004	5	..........a	-327.66
	246	49.4	1.50074E-001	-1.85834E-008	0.00000E+000	1.50000E-001	9.60192E-004	5	..........a	-327.66
	247	49.6	1.40126E-001	-1.89403E-008	0.00000E+000	1.40000E-001	9.58892E-004	5	..........a	-327.66
	248	49.8	1.30096E-001	-1.91350E-008	0.00000E+000	1.30000E-001	9.72692E-004	5	..........a	-327.66
	249	50	1.20075E-001	-1.92423E-008	0.00000E+000	1.20000E-001	9.68592E-004	5	..........a	-327.66
	250	50.2	1.10114E-001	-1.92839E-008	0.00000E+000	1.10000E-001	9.58792E-004	5	..........a	-327.66
	251	50.4	1.00109E-001	-1.93145E-008	0.00000E+000	1.00000E-001	9.56092E-004	5	..........a	-327.66
	252	50.6	9.01128E-002	-1.93653E-008	0.00000E+000	9.00000E-002	9.79292E-004	5	..........a	-327.66
	253	50.8	8.00643E-002	-1.94507E-008	0.00000E+000	8.00000E-002	9.78092E-004	5	..........a	-327.66
	254	51	7.00483E-002	-1.96452E-008	0.00000E+000	7.00000E-002	9.68192E-004	5	..........a	-327.66
	255	51.2	6.01042E-002	-1.98874E-008	0.00000E+000	6.00000E-002	9.77192E-004	5	..........a	-327.66
	256	51.4	5.00705E-002	-2.02504E-008	0.00000E+000	5.00000E-002	9.65792E-004	5	..........a	-327.66
	257	51.6	4.01223E-002	-2.06939E-008	0.00000E+000	4.00000E-002	9.71592E-004	5	..........a	-327.66
	258	51.8	3.00683E-002	-2.11992E-008	0.00000E+000	3.00000E-002	9.58792E-004	5	..........a	-327.66
	259	52	2.01507E-002	-2.17341E-008	0.00000E+000	2.00000E-002	9.62992E-004	5	..........a	-327.66
	260	52.2	1.00895E-002	-2.23682E-008	0.00000E+000	1.00000E-002	9.61792E-004	5	..........a	-327.66
	261	52.4	3.13917E-005	-2.30657E-008	0.00000E+000	7.45058E-009	9.80492E-004	5	..........a	-327.66
	262	52.6	-9.86631E-003	-2.41055E-008	0.00000E+000	-1.00000E-002	9.59992E-004	5	..........a	-327.66
	263	52.8	-1.99122E-002	-2.51070E-008	0.00000E+000	-2.00000E-002	9.53492E-004	5	..........a	-327.66
	264	53	-2.99164E-002	-2.56622E-008	0.00000E+000	-3.00000E-002	9.56792E-004	5	..........a	-327.66
	265	53.2	-3.99168E-002	-2.62869E-008	0.00000E+000	-4.00000E-002	9.61792E-004	5	..........a	-327.66
	266	53.4	-4.99190E-002	-2.70888E-008	0.00000E+000	-5.00000E-002	9.72192E-004	5	..........a	-327.66
	267	53.6	-5.98938E-002	-2.79650E-008	0.00000E+000	-6.00000E-002	9.58892E-004	5	..........a	-327.66
	268	53.8	-6.99123E-002	-2.89880E-008	0.00000E+000	-7.00000E-002	9.65892E-004	5	..........a	-327.66
	269	54	-7.99485E-002	-2.99293E-008	0.00000E+000	-8.00000E-002	9.63992E-004	5	..........a	-327.66
	270	54.2	-8.98986E-002	-3.08307E-008	0.00000E+000	-9.00000E-002	9.56992E-004	5	..........a	-327.66
	271	54.4	-9.99057E-002	-3.19748E-008	0.00000E+000	-1.00000E-001	9.59892E-004	5	..........a	-327.66
	272	54.6	-1.09971E-001	-3.29623E-008	0.00000E+000	-1.10000E-001	9.75592E-004	5	..........a	-327.66
	273	54.8	-1.19915E-001	-3.40231E-008	0.00000E+000	-1.20000E-001	9.73592E-004	5	..........a	-327.66
	274	55	-1.29921E-001	-3.49973E-008	0.00000E+000	-1.30000E-001	9.65892E-004	5	..........a	-327.66
	275	55.2	-1.39939E-001	-3.60902E-008	0.00000E+000	-1.40000E-001	9.50792E-004	5	..........a	-327.66
	276	55.4	-1.49946E-001	-3.74214E-008	0.00000E+000	-1.50000E-001	9.63692E-004	5	..........a	-327.66
	277	55.6	-1.59989E-001	-3.83444E-008	0.00000E+000	-1.60000E-001	9.69892E-004	5	..........a	-327.66
	278	55.8	-1.69882E-001	-3.93972E-008	0.00000E+000	-1.70000E-001	9.65792E-004	5	..........a	-327.66
	279	56	-1.79906E-001	-4.05946E-008	0.00000E+000	-1.80000E-001	9.52392E-004	5	..........a	-327.66
	280	56.2	-1.89951E-001	-4.17555E-008	0.00000E+000	-1.90000E-001	9.76392E-004	5	..........a	-327.66
	281	56.4	-1.99958E-001	-4.28415E-008	0.00000E+000	-2.00000E-001	9.61792E-004	5	..........a	-327.66
	282	56.6	-2.09871E-001	-4.39092E-008	0.00000E+000	-2.10000E-001	9.71992E-004	5	..........a	-327.66
	283	56.8	-2.19862E-001	-4.51876E-008	0.00000E+000	-2.20000E-001	9.71792E-004	5	..........a	-327.66
	284	57	-2.29898E-001	-4.64478E-008	0.00000E+000	-2.30000E-001	9.74092E-004	5	..........a	-327.66
	285	57.2	-2.39916E-001	-4.76804E-008	0.00000E+000	-2.40000E-001	9.75892E-004	5	..........a	-327.66
	286	57.4	-2.49874E-001	-4.86094E-008	0.00000E+000	-2.50000E-001	9.69092E-004	5	..........a	-327.66
	287	57.6	-2.59814E-001	-4.96602E-008	0.00000E+000	-2.60000E-001	9.49892E-004	5	..........a	-327.66
	288	57.8	-2.69856E-001	-5.08927E-008	0.00000E+000	-2.70000E-001	9.69292E-004	5	..........a	-327.66
	289	58	-2.79885E-001	-5.20563E-008	0.00000E+000	-2.80000E-001	9.76692E-004	5	..........a	-327.66
	290	58.2	-2.89907E-001	-5.30510E-008	0.00000E+000	-2.90000E-001	9.65692E-004	5	..........a	-327.66
	291	58.4	-2.99849E-001	-5.42157E-008	0.00000E+000	-3.00000E-001	9.60392E-004	5	..........a	-327.66
	292	58.6	-3.09874E-001	-5.53805E-008	0.00000E+000	-3.10000E-001	9.74592E-004	5	..........a	-327.66
	293	58.8	-3.19853E-001	-5.64855E-008	0.00000E+000	-3.20000E-001	9.70992E-004	5	..........a	-327.66
	294	59	-3.29884E-001	-5.76316E-008	0.00000E+000	-3.30000E-001	9.73192E-004	5	..........a	-327.66
	295	59.2	-3.39802E-001	-5.86902E-008	0.00000E+000	-3.40000E-001	9.59192E-004	5	..........a	-327.66
	296	59.4	-3.49857E-001	-5.98310E-008	0.00000E+000	-3.50000E-001	9.59992E-004	5	..........a	-327.66
	297	59.6	-3.59870E-001	-6.09976E-008	0.00000E+000	-3.60000E-001	9.71392E-004	5	..........a	-327.66
	298	59.8	-3.69848E-001	-6.22923E-008	0.00000E+000	-3.70000E-001	9.76292E-004	5	..........a	-327.66
	299	60	-3.79831E-001	-6.34384E-008	0.00000E+000	-3.80000E-001	9.52192E-004	5	..........a	-327.66
	300	60.2	-3.89893E-001	-6.45766E-008	0.00000E+000	-3.90000E-001	9.57492E-004	5	..........a	-327.66
	301	60.4	-3.99843E-001	-6.58474E-008	0.00000E+000	-4.00000E-001	9.62192E-004	5	..........a	-327.66
	302	60.6	-4.09853E-001	-6.70579E-008	0.00000E+000	-4.10000E-001	9.79692E-004	5	..........a	-327.66
	303	60.8	-4.19782E-001	-6.82618E-008	0.00000E+000	-4.20000E-001	9.60192E-004	5	..........a	-327.66
	304	61	-4.29861E-001	-6.94915E-008	0.00000E+000	-4.30000E-001	9.59192E-004	5	..........a	-327.66
	305	61.2	-4.39843E-001	-7.08029E-008	0.00000E+000	-4.40000E-001	9.56392E-004	5	..........a	-327.66
	306	61.4	-4.49839E-001	-7.20642E-008	0.00000E+000	-4.50000E-001	9.62192E-004	5	..........a	-327.66
	307	61.6	-4.59809E-001	-7.34256E-008	0.00000E+000	-4.60000E-001	9.65892E-004	5	..........a	-327.66
	308	61.8	-4.69835E-001	-7.49965E-008	0.00000E+000	-4.70000E-001	9.59192E-004	5	..........a	-327.66
	309	62	-4.79836E-001	-7.62907E-008	0.00000E+000	-4.80000E-001	9.88992E-004	5	..........a	-327.66
	310	62.2	-4.89841E-001	-7.76944E-008	0.00000E+000	-4.90000E-001	9.83192E-004	5	..........a	-327.66
	311	62.4	-4.99824E-001	-7.90492E-008	0.00000E+000	-5.00000E-001	9.54292E-004	5	..........a	-327.66
	312	62.6	-5.09843E-001	-8.03719E-008	0.00000E+000	-5.10000E-001	9.76692E-004	5	..........a	-327.66
	313	62.8	-5.19860E-001	-8.18464E-008	0.00000E+000	-5.20000E-001	9.85492E-004	5	..........a	-327.66
	314	63	-5.29849E-001	-8.32462E-008	0.00000E+000	-5.30000E-001	9.72092E-004	5	..........a	-327.66
	315	63.2	-5.39798E-001	-8.47852E-008	0.00000E+000	-5.40000E-001	9.74792E-004	5	..........a	-327.66
	316	63.4	-5.49852E-001	-8.63628E-008	0.00000E+000	-5.50000E-001	9.74392E-004	5	..........a	-327.66
	317	63.6	-5.59842E-001	-8.78278E-008	0.00000E+000	-5.60000E-001	9.80092E-004	5	..........a	-327.66
	318	63.8	-5.69870E-001	-8.93421E-008	0.00000E+000	-5.70000E-001	9.73792E-004	5	..........a	-327.66
	319	64	-5.79805E-001	-9.10572E-008	0.00000E+000	-5.80000E-001	9.67492E-004	5	..........a	-327.66
	320	64.2	-5.89850E-001	-9.31912E-008	0.00000E+000	-5.90000E-001	9.83492E-004	5	..........a	-327.66
	321	64.4	-5.99857E-001	-9.48501E-008	0.00000E+000	-6.00000E-001	9.68492E-004	5	..........a	-327.66
	322	64.6	-5.89866E-001	-8.24074E-008	0.00000E+000	-5.90000E-001	9.73192E-004	5	..........a	-327.66
	323	64.8	-5.79816E-001	-7.39275E-008	0.00000E+000	-5.80000E-001	9.60092E-004	5	..........a	-327.66
	324	65	-5.69858E-001	-6.74033E-008	0.00000E+000	-5.70000E-001	9.69092E-004	5	..........a	-327.66
	325	65.2	-5.59871E-001	-6.24644E-008	0.00000E+000	-5.60000E-001	9.71592E-004	5	..........a	-327.66
	326	65.4	-5.49864E-001	-5.75185E-008	0.00000E+000	-5.50000E-001	9.83192E-004	5	..........a	-327.66
	327	65.6	-5.39794E-001	-5.35830E-008	0.00000E+000	-5.40000E-001	9.73392E-004	5	..........a	-327.66
	328	65.8	-5.29844E-001	-4.99957E-008	0.00000E+000	-5.30000E-001	9.81492E-004	5	..........a	-327.66
	329	66	-5.19869E-001	-4.62802E-008	0.00000E+000	-5.20000E-001	9.83792E-004	5	..........a	-327.66
	330	66.2	-5.09883E-001	-4.31542E-008	0.00000E+000	-5.10000E-001	9.60492E-004	5	..........a	-327.66
	331	66.4	-4.99834E-001	-4.00495E-008	0.00000E+000	-5.00000E-001	9.74692E-004	5	..........a	-327.66
	332	66.6	-4.89875E-001	-3.72582E-008	0.00000E+000	-4.90000E-001	9.65992E-004	5	..........a	-327.66
	333	66.8	-4.79853E-001	-3.45582E-008	0.00000E+000	-4.80000E-001	9.78692E-004	5	..........a	-327.66
	334	67	-4.69869E-001	-3.20632E-008	0.00000E+000	-4.70000E-001	9.56292E-004	5	..........a	-327.66
	335	67.2	-4.59823E-001	-2.95639E-008	0.00000E+000	-4.60000E-001	9.63792E-004	5	..........a	-327.66
	336	67.4	-4.49848E-001	-2.71355E-008	0.00000E+000	-4.50000E-001	9.65892E-004	5	..........a	-327.66
	337	67.6	-4.39830E-001	-2.48305E-008	0.00000E+000	-4.40000E-001	9.82592E-004	5	..........a	-327.66
	338	67.8	-4.29877E-001	-2.25401E-008	0.00000E+000	-4.30000E-001	9.63192E-004	5	..........a	-327.66
	339	68	-4.19855E-001	-2.04620E-008	0.00000E+000	-4.20000E-001	9.69492E-004	5	..........a	-327.66
	340	68.2	-4.09878E-001	-1.83507E-008	0.00000E+000	-4.10000E-001	9.74092E-004	5	..........a	-327.66
	341	68.4	-3.99862E-001	-1.63290E-008	0.00000E+000	-4.00000E-001	9.89492E-004	5	..........a	-327.66
	342	68.6	-3.89933E-001	-1.43399E-008	0.00000E+000	-3.90000E-001	9.89692E-004	5	..........a	-327.66
	343	68.8	-3.79863E-001	-1.24576E-008	0.00000E+000	-3.80000E-001	9.75692E-004	5	..........a	-327.66
	344	69	-3.69843E-001	-1.05972E-008	0.00000E+000	-3.70000E-001	9.75992E-004	5	..........a	-327.66
	345	69.2	-3.59907E-001	-8.69155E-009	0.00000E+000	-3.60000E-001	9.92792E-004	5	..........a	-327.66
	346	69.4	-3.49901E-001	-6.93978E-009	0.00000E+000	-3.50000E-001	9.78492E-004	5	..........a	-327.66
	347	69.6	-3.39855E-001	-5.29274E-009	0.00000E+000	-3.40000E-001	9.57192E-004	5	..........a	-327.66
	348	69.8	-3.29863E-001	-3.54592E-009	0.00000E+000	-3.30000E-001	9.67292E-004	5	..........a	-327.66
	349	70	-3.19929E-001	-1.94269E-009	0.00000E+000	-3.20000E-001	9.75492E-004	5	..........a	-327.66
	350	70.2	-3.09934E-001	-3.96798E-010	0.00000E+000	-3.10000E-001	9.82992E-004	5	..........a	-327.66
	351	70.4	-2.99877E-001	1.28624E-009	0.00000E+000	-3.00000E-001	9.75692E-004	5	..........a	-327.66
	352	70.6	-2.90003E-001	2.79039E-009	0.00000E+000	-2.90000E-001	1.00519E-003	5	..........a	-327.66
[...]
	920	184.2	-2.09915E-001	1.43812E-008	0.00000E+000	-2.10000E-001	9.84092E-004	5	..........a	-327.66
	921	184.4	-1.99961E-001	1.58114E-008	0.00000E+000	-2.00000E-001	9.80092E-004	5	..........a	-327.66
	922	184.6	-1.90217E-001	1.72506E-008	0.00000E+000	-1.90000E-001	9.84392E-004	5	..........a	-327.66
	923	184.8	-1.79971E-001	1.86741E-008	0.00000E+000	-1.80000E-001	9.84692E-004	5	..........a	-327.66
	924	185	-1.69921E-001	2.01058E-008	0.00000E+000	-1.70000E-001	9.84892E-004	5	..........a	-327.66
	925	185.2	-1.60019E-001	2.14903E-008	0.00000E+000	-1.60000E-001	1.00919E-003	5	..........a	-327.66
	926	185.4	-1.50092E-001	2.29014E-008	0.00000E+000	-1.50000E-001	9.80192E-004	5	..........a	-327.66
	927	185.6	-1.39932E-001	2.42756E-008	0.00000E+000	-1.40000E-001	9.83592E-004	5	..........a	-327.66
	928	185.8	-1.29983E-001	2.56588E-008	0.00000E+000	-1.30000E-001	9.91192E-004	5	..........a	-327.66
	929	186	-1.19962E-001	2.70706E-008	0.00000E+000	-1.20000E-001	9.91492E-004	5	..........a	-327.66
	930	186.2	-1.10016E-001	2.84262E-008	0.00000E+000	-1.10000E-001	9.77592E-004	5	..........a	-327.66
	931	186.4	-9.99335E-002	2.97969E-008	0.00000E+000	-1.00000E-001	9.73392E-004	5	..........a	-327.66
	932	186.6	-8.99273E-002	3.11322E-008	0.00000E+000	-9.00000E-002	9.92692E-004	5	..........a	-327.66
	933	186.8	-7.99818E-002	3.25111E-008	0.00000E+000	-8.00000E-002	9.81192E-004	5	..........a	-327.66
	934	187	-6.99569E-002	3.38669E-008	0.00000E+000	-7.00000E-002	9.88992E-004	5	..........a	-327.66
	935	187.2	-5.99186E-002	3.51988E-008	0.00000E+000	-6.00000E-002	9.71392E-004	5	..........a	-327.66
	936	187.4	-4.99139E-002	3.65437E-008	0.00000E+000	-5.00000E-002	9.77092E-004	5	..........a	-327.66
	937	187.6	-3.99410E-002	3.79021E-008	0.00000E+000	-4.00000E-002	9.79892E-004	5	..........a	-327.66
	938	187.8	-2.99690E-002	3.92363E-008	0.00000E+000	-3.00000E-002	9.72892E-004	5	..........a	-327.66
	939	188	-1.99554E-002	4.05700E-008	0.00000E+000	-2.00000E-002	9.77392E-004	5	..........a	-327.66
	940	188.2	-9.91061E-003	4.19286E-008	0.00000E+000	-1.00000E-002	9.82692E-004	5	..........a	-327.66
	941	188.4	-3.43084E-005	4.32611E-008	0.00000E+000	7.45058E-009	9.89692E-004	5	..........a	-327.66
	942	188.6	1.00545E-002	4.46137E-008	0.00000E+000	1.00000E-002	9.82392E-004	5	..........a	-327.66
	943	188.8	2.00830E-002	4.59527E-008	0.00000E+000	2.00000E-002	9.81392E-004	5	..........a	-327.66
	944	189	3.00040E-002	4.73030E-008	0.00000E+000	3.00000E-002	9.81692E-004	5	..........a	-327.66
	945	189.2	3.99762E-002	4.86417E-008	0.00000E+000	4.00000E-002	9.82692E-004	5	..........a	-327.66
	946	189.4	4.99953E-002	4.99638E-008	0.00000E+000	5.00000E-002	9.91792E-004	5	..........a	-327.66
	947	189.6	6.00573E-002	5.12668E-008	0.00000E+000	6.00000E-002	9.72992E-004	5	..........a	-327.66
	948	189.8	6.99984E-002	5.26201E-008	0.00000E+000	7.00000E-002	9.96892E-004	5	..........a	-327.66
	949	190	7.99409E-002	5.39509E-008	0.00000E+000	8.00000E-002	9.75092E-004	5	..........a	-327.66
	950	190.2	9.00704E-002	5.52905E-008	0.00000E+000	9.00000E-002	9.82292E-004	5	..........a	-327.66
	951	190.4	1.00057E-001	5.65841E-008	0.00000E+000	1.00000E-001	9.90392E-004	5	..........a	-327.66
	952	190.6	1.10081E-001	5.79448E-008	0.00000E+000	1.10000E-001	9.62992E-004	5	..........a	-327.66
	953	190.8	1.19964E-001	5.92903E-008	0.00000E+000	1.20000E-001	9.80592E-004	5	..........a	-327.66
	954	191	1.30034E-001	6.07492E-008	0.00000E+000	1.30000E-001	9.92592E-004	5	..........a	-327.66
	955	191.2	1.40071E-001	6.19226E-008	0.00000E+000	1.40000E-001	9.66592E-004	5	..........a	-327.66
	956	191.4	1.50032E-001	6.32629E-008	0.00000E+000	1.50000E-001	9.87092E-004	5	..........a	-327.66
	957	191.6	1.59984E-001	6.45489E-008	0.00000E+000	1.60000E-001	9.74992E-004	5	..........a	-327.66
	958	191.8	1.70056E-001	6.58531E-008	0.00000E+000	1.70000E-001	9.94492E-004	5	..........a	-327.66
	959	192	1.80032E-001	6.71196E-008	0.00000E+000	1.80000E-001	9.69292E-004	5	..........a	-327.66
	960	192.2	1.90084E-001	6.84221E-008	0.00000E+000	1.90000E-001	9.82192E-004	5	..........a	-327.66
	961	192.4	1.99965E-001	6.96661E-008	0.00000E+000	2.00000E-001	9.89792E-004	5	..........a	-327.66
	962	192.6	2.09992E-001	7.09412E-008	0.00000E+000	2.10000E-001	9.81292E-004	5	..........a	-327.66
	963	192.8	2.19758E-001	7.22160E-008	0.00000E+000	2.20000E-001	9.70192E-004	5	..........a	-327.66
	964	193	2.30001E-001	7.34778E-008	0.00000E+000	2.30000E-001	9.92492E-004	5	..........a	-327.66
	965	193.2	2.39982E-001	7.47290E-008	0.00000E+000	2.40000E-001	9.79592E-004	5	..........a	-327.66
	966	193.4	2.49986E-001	7.59471E-008	0.00000E+000	2.50000E-001	9.92392E-004	5	..........a	-327.66
	967	193.6	2.60005E-001	7.71342E-008	0.00000E+000	2.60000E-001	9.73892E-004	5	..........a	-327.66
	968	193.8	2.70068E-001	7.83863E-008	0.00000E+000	2.70000E-001	9.73992E-004	5	..........a	-327.66
	969	194	2.79927E-001	7.96379E-008	0.00000E+000	2.80000E-001	9.80092E-004	5	..........a	-327.66
	970	194.2	2.89985E-001	8.09174E-008	0.00000E+000	2.90000E-001	9.91292E-004	5	..........a	-327.66
	971	194.4	2.99996E-001	8.22037E-008	0.00000E+000	3.00000E-001	9.75592E-004	5	..........a	-327.66
	972	194.6	3.09997E-001	8.35088E-008	0.00000E+000	3.10000E-001	9.81092E-004	5	..........a	-327.66
	973	194.8	3.19965E-001	8.47998E-008	0.00000E+000	3.20000E-001	9.97892E-004	5	..........a	-327.66
	974	195	3.29975E-001	8.61453E-008	0.00000E+000	3.30000E-001	9.93092E-004	5	..........a	-327.66
	975	195.2	3.40017E-001	8.74491E-008	0.00000E+000	3.40000E-001	9.66792E-004	5	..........a	-327.66
	976	195.4	3.49998E-001	8.88311E-008	0.00000E+000	3.50000E-001	9.73292E-004	5	..........a	-327.66
	977	195.6	3.59923E-001	9.02561E-008	0.00000E+000	3.60000E-001	9.87392E-004	5	..........a	-327.66
	978	195.8	3.69996E-001	9.17018E-008	0.00000E+000	3.70000E-001	9.73792E-004	5	..........a	-327.66
	979	196	3.80006E-001	9.31693E-008	0.00000E+000	3.80000E-001	9.62992E-004	5	..........a	-327.66
	980	196.2	3.89991E-001	9.46728E-008	0.00000E+000	3.90000E-001	9.78892E-004	5	..........a	-327.66
	981	196.4	3.99961E-001	9.62276E-008	0.00000E+000	4.00000E-001	9.77892E-004	5	..........a	-327.66
	982	196.6	4.09964E-001	9.78108E-008	0.00000E+000	4.10000E-001	9.89392E-004	5	..........a	-327.66
	983	196.8	4.19965E-001	9.94865E-008	0.00000E+000	4.20000E-001	9.74092E-004	5	..........a	-327.66
	984	197	4.29971E-001	1.01144E-007	0.00000E+000	4.30000E-001	9.86792E-004	5	..........a	-327.66
	985	197.2	4.39931E-001	1.02905E-007	0.00000E+000	4.40000E-001	9.86092E-004	5	..........a	-327.66
	986	197.4	4.49789E-001	1.04669E-007	0.00000E+000	4.50000E-001	9.82592E-004	5	..........a	-327.66
	987	197.6	4.59951E-001	1.06559E-007	0.00000E+000	4.60000E-001	9.60592E-004	5	..........a	-327.66
	988	197.8	4.69991E-001	1.08414E-007	0.00000E+000	4.70000E-001	9.68892E-004	5	..........a	-327.66
	989	198	4.79884E-001	1.10337E-007	0.00000E+000	4.80000E-001	9.84492E-004	5	..........a	-327.66
	990	198.2	4.89909E-001	1.12258E-007	0.00000E+000	4.90000E-001	9.95692E-004	5	..........a	-327.66
	991	198.4	4.99956E-001	1.14224E-007	0.00000E+000	5.00000E-001	9.72292E-004	5	..........a	-327.66
	992	198.6	5.09968E-001	1.16264E-007	0.00000E+000	5.10000E-001	9.90892E-004	5	..........a	-327.66
	993	198.8	5.19929E-001	1.18326E-007	0.00000E+000	5.20000E-001	9.73892E-004	5	..........a	-327.66
	994	199	5.29918E-001	1.20480E-007	0.00000E+000	5.30000E-001	9.82292E-004	5	..........a	-327.66
	995	199.2	5.39934E-001	1.22593E-007	0.00000E+000	5.40000E-001	9.80792E-004	5	..........a	-327.66
	996	199.4	5.49981E-001	1.24829E-007	0.00000E+000	5.50000E-001	9.84192E-004	5	..........a	-327.66
	997	199.6	5.59920E-001	1.27015E-007	0.00000E+000	5.60000E-001	9.90692E-004	5	..........a	-327.66
	998	199.8	5.69931E-001	1.29205E-007	0.00000E+000	5.70000E-001	9.90392E-004	5	..........a	-327.66
	999	200	5.79924E-001	1.31408E-007	0.00000E+000	5.80000E-001	9.67292E-004	5	..........a	-327.66
	1000	200.2	5.89979E-001	1.33613E-007	0.00000E+000	5.90000E-001	9.68792E-004	5	..........a	-327.66
	1001	200.4	5.99915E-001	1.35830E-007	0.00000E+000	6.00000E-001	9.81792E-004	5	..........a	-327.66
	1002	200.6	6.09932E-001	1.38072E-007	0.00000E+000	6.10000E-001	9.95192E-004	5	..........a	-327.66
	1003	200.8	6.19889E-001	1.40279E-007	0.00000E+000	6.20000E-001	9.53392E-004	5	..........a	-327.66
	1004	201	6.29983E-001	1.42552E-007	0.00000E+000	6.30000E-001	9.80592E-004	5	..........a	-327.66
	1005	201.2	6.39863E-001	1.44852E-007	0.00000E+000	6.40000E-001	9.89992E-004	5	..........a	-327.66
	1006	201.4	6.49887E-001	1.47192E-007	0.00000E+000	6.50000E-001	9.98592E-004	5	..........a	-327.66
	1007	201.6	6.59887E-001	1.49557E-007	0.00000E+000	6.60000E-001	9.63192E-004	5	..........a	-327.66
	1008	201.8	6.69942E-001	1.52020E-007	0.00000E+000	6.70000E-001	9.90592E-004	5	..........a	-327.66
	1009	202	6.79874E-001	1.54561E-007	0.00000E+000	6.80000E-001	9.62692E-004	5	..........a	-327.66
	1010	202.2	6.89873E-001	1.57168E-007	0.00000E+000	6.90000E-001	9.87592E-004	5	..........a	-327.66
	1011	202.4	6.99857E-001	1.59948E-007	0.00000E+000	7.00000E-001	9.63592E-004	5	..........a	-327.66
	1012	202.6	7.09957E-001	1.62818E-007	0.00000E+000	7.10000E-001	9.87692E-004	5	..........a	-327.66
	1013	202.8	7.19859E-001	1.65911E-007	0.00000E+000	7.20000E-001	9.90192E-004	5	..........a	-327.66
	1014	203	7.29864E-001	1.69186E-007	0.00000E+000	7.30000E-001	9.84392E-004	5	..........a	-327.66
	1015	203.2	7.39871E-001	1.72751E-007	0.00000E+000	7.40000E-001	9.88092E-004	5	..........a	-327.66
	1016	203.4	7.49938E-001	1.76645E-007	0.00000E+000	7.50000E-001	9.78992E-004	5	..........a	-327.66
	1017	203.6	7.59865E-001	1.80929E-007	0.00000E+000	7.60000E-001	9.78692E-004	5	..........a	-327.66
	1018	203.8	7.69854E-001	1.85418E-007	0.00000E+000	7.70000E-001	9.87292E-004	5	..........a	-327.66
	1019	204	7.79849E-001	1.90334E-007	0.00000E+000	7.80000E-001	9.73792E-004	5	..........a	-327.66
	1020	204.2	7.89948E-001	1.95737E-007	0.00000E+000	7.90000E-001	9.70492E-004	5	..........a	-327.66
	1021	204.4	7.99845E-001	2.01598E-007	0.00000E+000	8.00000E-001	9.85492E-004	5	..........a	-327.66
CURVE5	TABLE
	Pt	T	Vf	Im	Vu	Sig	Ach	IERange	Over	Temp
	#	s	V vs. Ref.	A	V	V	V	#	bits	deg C
	1022	204.6	7.89948E-001	1.72075E-007	0.00000E+000	7.90000E-001	9.75592E-004	5	..........a	-327.66
	1023	204.8	7.79867E-001	1.53054E-007	0.00000E+000	7.80000E-001	9.90892E-004	5	..........a	-327.66
	1024	205	7.69873E-001	1.39238E-007	0.00000E+000	7.70000E-001	9.84992E-004	5	..........a	-327.66
	1025	205.2	7.59874E-001	1.28565E-007	0.00000E+000	7.60000E-001	9.73192E-004	5	..........a	-327.66
	1026	205.4	7.49963E-001	1.19903E-007	0.00000E+000	7.50000E-001	9.87392E-004	5	..........a	-327.66
	1027	205.6	7.39893E-001	1.12731E-007	0.00000E+000	7.40000E-001	9.59692E-004	5	..........a	-327.66
	1028	205.8	7.29895E-001	1.06556E-007	0.00000E+000	7.30000E-001	9.94492E-004	5	..........a	-327.66
	1029	206	7.19886E-001	1.01181E-007	0.00000E+000	7.20000E-001	9.93692E-004	5	..........a	-327.66
	1030	206.2	7.09969E-001	9.63543E-008	0.00000E+000	7.10000E-001	9.77992E-004	5	..........a	-327.66
	1031	206.4	6.99904E-001	9.19427E-008	0.00000E+000	7.00000E-001	9.77592E-004	5	..........a	-327.66
	1032	206.6	6.89893E-001	8.79050E-008	0.00000E+000	6.90000E-001	9.74492E-004	5	..........a	-327.66
	1033	206.8	6.79911E-001	8.41525E-008	0.00000E+000	6.80000E-001	9.84992E-004	5	..........a	-327.66
	1034	207	6.69965E-001	8.06086E-008	0.00000E+000	6.70000E-001	9.89392E-004	5	..........a	-327.66
	1035	207.2	6.59911E-001	7.72821E-008	0.00000E+000	6.60000E-001	9.84192E-004	5	..........a	-327.66
	1036	207.4	6.49911E-001	7.41211E-008	0.00000E+000	6.50000E-001	9.69292E-004	5	..........a	-327.66
	1037	207.6	6.39901E-001	7.10790E-008	0.00000E+000	6.40000E-001	9.98992E-004	5	..........a	-327.66
	1038	207.8	6.30031E-001	6.81892E-008	0.00000E+000	6.30000E-001	9.92192E-004	5	..........a	-327.66
	1039	208	6.19914E-001	6.53889E-008	0.00000E+000	6.20000E-001	9.84392E-004	5	..........a	-327.66
	1040	208.2	6.09966E-001	6.26840E-008	0.00000E+000	6.10000E-001	9.75492E-004	5	..........a	-327.66
	1041	208.4	5.99956E-001	6.01318E-008	0.00000E+000	6.00000E-001	9.81592E-004	5	..........a	-327.66
	1042	208.6	5.90015E-001	5.77136E-008	0.00000E+000	5.90000E-001	9.99892E-004	5	..........a	-327.66
	1043	208.8	5.79980E-001	5.54103E-008	0.00000E+000	5.80000E-001	9.62692E-004	5	..........a	-327.66
	1044	209	5.69940E-001	5.31376E-008	0.00000E+000	5.70000E-001	9.75592E-004	5	..........a	-327.66
	1045	209.2	5.59919E-001	5.09141E-008	0.00000E+000	5.60000E-001	9.91292E-004	5	..........a	-327.66
	1046	209.4	5.50016E-001	4.87080E-008	0.00000E+000	5.50000E-001	9.72092E-004	5	..........a	-327.66
	1047	209.6	5.39976E-001	4.65213E-008	0.00000E+000	5.40000E-001	9.73292E-004	5	..........a	-327.66
	1048	209.8	5.29952E-001	4.44189E-008	0.00000E+000	5.30000E-001	9.80292E-004	5	..........a	-327.66
	1049	210	5.19963E-001	4.24448E-008	0.00000E+000	5.20000E-001	1.00329E-003	5	..........a	-327.66
	1050	210.2	5.09982E-001	4.04442E-008	0.00000E+000	5.10000E-001	9.96392E-004	5	..........a	-327.66
	1051	210.4	5.00003E-001	3.86284E-008	0.00000E+000	5.00000E-001	9.68392E-004	5	..........a	-327.66
	1052	210.6	4.89975E-001	3.68206E-008	0.00000E+000	4.90000E-001	9.82692E-004	5	..........a	-327.66
	1053	210.8	4.79935E-001	3.50142E-008	0.00000E+000	4.80000E-001	9.87292E-004	5	..........a	-327.66
	1054	211	4.70014E-001	3.31263E-008	0.00000E+000	4.70000E-001	9.83992E-004	5	..........a	-327.66
	1055	211.2	4.59987E-001	3.12619E-008	0.00000E+000	4.60000E-001	9.67892E-004	5	..........a	-327.66
	1056	211.4	4.50056E-001	2.93308E-008	0.00000E+000	4.50000E-001	9.70992E-004	5	..........a	-327.66
	1057	211.6	4.39941E-001	2.74517E-008	0.00000E+000	4.40000E-001	9.76492E-004	5	..........a	-327.66
	1058	211.8	4.30009E-001	2.55365E-008	0.00000E+000	4.30000E-001	9.83892E-004	5	..........a	-327.66
	1059	212	4.20002E-001	2.36109E-008	0.00000E+000	4.20000E-001	9.85592E-004	5	..........a	-327.66
	1060	212.2	4.09994E-001	2.16554E-008	0.00000E+000	4.10000E-001	9.91392E-004	5	..........a	-327.66
	1061	212.4	4.00003E-001	1.96625E-008	0.00000E+000	4.00000E-001	9.84292E-004	5	..........a	-327.66
	1062	212.6	3.90024E-001	1.77238E-008	0.00000E+000	3.90000E-001	9.72092E-004	5	..........a	-327.66
	1063	212.8	3.80059E-001	1.58151E-008	0.00000E+000	3.80000E-001	9.81492E-004	5	..........a	-327.66
	1064	213	3.70030E-001	1.38810E-008	0.00000E+000	3.70000E-001	9.96292E-004	5	..........a	-327.66
	1065	213.2	3.60007E-001	1.19436E-008	0.00000E+000	3.60000E-001	9.80992E-004	5	..........a	-327.66
	1066	213.4	3.50022E-001	9.99021E-009	0.00000E+000	3.50000E-001	9.91692E-004	5	..........a	-327.66
	1067	213.6	3.40045E-001	8.06288E-009	0.00000E+000	3.40000E-001	9.94692E-004	5	..........a	-327.66
	1068	213.8	3.30029E-001	6.09682E-009	0.00000E+000	3.30000E-001	9.92892E-004	5	..........a	-327.66
	1069	214	3.20028E-001	4.14303E-009	0.00000E+000	3.20000E-001	9.98092E-004	5	..........a	-327.66
	1070	214.2	3.09994E-001	2.13241E-009	0.00000E+000	3.10000E-001	9.89192E-004	5	..........a	-327.66
	1071	214.4	3.00055E-001	1.02580E-010	0.00000E+000	3.00000E-001	9.77592E-004	5	..........a	-327.66
	1072	214.6	2.90005E-001	-1.95104E-009	0.00000E+000	2.90000E-001	9.95992E-004	5	..........a	-327.66
	1073	214.8	2.80043E-001	-3.98199E-009	0.00000E+000	2.80000E-001	9.91592E-004	5	..........a	-327.66
	1074	215	2.70099E-001	-6.07854E-009	0.00000E+000	2.70000E-001	9.77692E-004	5	..........a	-327.66
	1075	215.2	2.60076E-001	-8.10548E-009	0.00000E+000	2.60000E-001	9.82292E-004	5	..........a	-327.66
	1076	215.4	2.50040E-001	-1.01783E-008	0.00000E+000	2.50000E-001	9.78692E-004	5	..........a	-327.66
	1077	215.6	2.40043E-001	-1.21810E-008	0.00000E+000	2.40000E-001	9.95392E-004	5	..........a	-327.66
	1078	215.8	2.30047E-001	-1.40973E-008	0.00000E+000	2.30000E-001	9.97092E-004	5	..........a	-327.66
	1079	216	2.20045E-001	-1.59367E-008	0.00000E+000	2.20000E-001	9.73892E-004	5	..........a	-327.66
	1080	216.2	2.10021E-001	-1.75728E-008	0.00000E+000	2.10000E-001	9.69692E-004	5	..........a	-327.66
	1081	216.4	2.00092E-001	-1.90113E-008	0.00000E+000	2.00000E-001	9.73992E-004	5	..........a	-327.66
	1082	216.6	1.90123E-001	-2.02713E-008	0.00000E+000	1.90000E-001	9.76192E-004	5	..........a	-327.66
	1083	216.8	1.80112E-001	-2.13032E-008	0.00000E+000	1.80000E-001	9.70992E-004	5	..........a	-327.66
	1084	217	1.70096E-001	-2.20076E-008	0.00000E+000	1.70000E-001	9.67692E-004	5	..........a	-327.66
	1085	217.2	1.60061E-001	-2.25223E-008	0.00000E+000	1.60000E-001	1.00089E-003	5	..........a	-327.66
	1086	217.4	1.50078E-001	-2.28510E-008	0.00000E+000	1.50000E-001	9.97492E-004	5	..........a	-327.66
	1087	217.6	1.40122E-001	-2.30383E-008	0.00000E+000	1.40000E-001	9.92592E-004	5	..........a	-327.66
	1088	217.8	1.30081E-001	-2.30326E-008	0.00000E+000	1.30000E-001	9.77492E-004	5	..........a	-327.66
	1089	218	1.20070E-001	-2.29925E-008	0.00000E+000	1.20000E-001	9.86792E-004	5	..........a	-327.66
	1090	218.2	1.10110E-001	-2.29209E-008	0.00000E+000	1.10000E-001	9.86992E-004	5	..........a	-327.66
	1091	218.4	1.00129E-001	-2.28636E-008	0.00000E+000	1.00000E-001	9.85792E-004	5	..........a	-327.66
	1092	218.6	9.00883E-002	-2.28523E-008	0.00000E+000	9.00000E-002	9.77492E-004	5	..........a	-327.66
	1093	218.8	8.00530E-002	-2.29107E-008	0.00000E+000	8.00000E-002	9.85692E-004	5	..........a	-327.66
	1094	219	7.00437E-002	-2.30815E-008	0.00000E+000	7.00000E-002	9.85692E-004	5	..........a	-327.66
	1095	219.2	6.01134E-002	-2.33730E-008	0.00000E+000	6.00000E-002	9.62192E-004	5	..........a	-327.66
	1096	219.4	5.00731E-002	-2.37825E-008	0.00000E+000	5.00000E-002	9.83492E-004	5	..........a	-327.66
	1097	219.6	4.00562E-002	-2.42578E-008	0.00000E+000	4.00000E-002	9.94692E-004	5	..........a	-327.66
	1098	219.8	3.00946E-002	-2.48323E-008	0.00000E+000	3.00000E-002	9.90792E-004	5	..........a	-327.66
	1099	220	2.01668E-002	-2.54730E-008	0.00000E+000	2.00000E-002	9.73192E-004	5	..........a	-327.66
	1100	220.2	1.01137E-002	-2.61849E-008	0.00000E+000	1.00000E-002	9.94492E-004	5	..........a	-327.66
	1101	220.4	4.56917E-005	-2.69145E-008	0.00000E+000	7.45058E-009	9.99192E-004	5	..........a	-327.66
	1102	220.6	-9.91036E-003	-2.76643E-008	0.00000E+000	-1.00000E-002	1.00249E-003	5	..........a	-327.66
	1103	220.8	-1.99002E-002	-2.84202E-008	0.00000E+000	-2.00000E-002	9.73292E-004	5	..........a	-327.66
	1104	221	-2.99013E-002	-2.92888E-008	0.00000E+000	-3.00000E-002	9.83192E-004	5	..........a	-327.66
	1105	221.2	-3.98998E-002	-3.01877E-008	0.00000E+000	-4.00000E-002	9.86992E-004	5	..........a	-327.66
	1106	221.4	-4.98934E-002	-3.11155E-008	0.00000E+000	-5.00000E-002	9.86892E-004	5	..........a	-327.66
	1107	221.6	-5.99016E-002	-3.21233E-008	0.00000E+000	-6.00000E-002	9.69392E-004	5	..........a	-327.66
	1108	221.8	-6.99141E-002	-3.31034E-008	0.00000E+000	-7.00000E-002	9.83992E-004	5	..........a	-327.66
	1109	222	-7.99141E-002	-3.41473E-008	0.00000E+000	-8.00000E-002	9.95592E-004	5	..........a	-327.66
	1110	222.2	-8.98840E-002	-3.52056E-008	0.00000E+000	-9.00000E-002	9.89092E-004	5	..........a	-327.66
	1111	222.4	-9.98941E-002	-3.62689E-008	0.00000E+000	-1.00000E-001	9.78092E-004	5	..........a	-327.66
	1112	222.6	-1.09942E-001	-3.73012E-008	0.00000E+000	-1.10000E-001	9.78392E-004	5	..........a	-327.66
	1113	222.8	-1.19931E-001	-3.83963E-008	0.00000E+000	-1.20000E-001	9.80392E-004	5	..........a	-327.66
	1114	223	-1.29899E-001	-3.95478E-008	0.00000E+000	-1.30000E-001	9.69392E-004	5	..........a	-327.66
	1115	223.2	-1.39903E-001	-4.06431E-008	0.00000E+000	-1.40000E-001	9.70692E-004	5	..........a	-327.66
	1116	223.4	-1.49939E-001	-4.17609E-008	0.00000E+000	-1.50000E-001	9.75692E-004	5	..........a	-327.66
	1117	223.6	-1.59973E-001	-4.28423E-008	0.00000E+000	-1.60000E-001	9.76392E-004	5	..........a	-327.66
	1118	223.8	-1.69893E-001	-4.39737E-008	0.00000E+000	-1.70000E-001	9.79692E-004	5	..........a	-327.66
	1119	224	-1.79883E-001	-4.50701E-008	0.00000E+000	-1.80000E-001	9.75092E-004	5	..........a	-327.66
	1120	224.2	-1.89915E-001	-4.62575E-008	0.00000E+000	-1.90000E-001	9.60992E-004	5	..........a	-327.66