File: data/raw/batch_data/20240321_O_GM0016_HL03_E04_CV50.DTA
EXPLAIN
TAG	CV
TITLE	LABEL	Cyclic Voltammetry	Test &Identifier
DATE	LABEL	3/21/2024	Date
TIME	LABEL	17:09:26	Time
NOTES	NOTES	1	&Notes...

PSTAT	PSTAT	REF600P-43058	Potentiostat
VINIT	POTEN	0.00000E+000	T	Initial &E (V)
VLIMIT1	POTEN	-6.00000E-001	F	Scan Limit &1 (V)
VLIMIT2	POTEN	8.00000E-001	F	Scan Limit &2 (V)
VFINAL	POTEN	0.00000E+000	T	Final &E (V)
SCANRATE	QUANT	4.99999E+001	&Scan Rate (mV/s)
STEPSIZE	QUANT	1.00000E+001	St&ep Size (mV)
CYCLES	IQUANT	4	C&ycles (#)
IMODE	SELECTOR	1	I/E Range &Mode
IRANGE	QUANT	1.00000E-005	&Max Current (mA)
AREA	QUANT	1.00000E+000	Electrode &Area (cm^2)
ELECTRODETYPE	SELECTOR	0	Electrode Type
STRIPPING	TOGGLE	F	Used for Stripping
POLARITY	TOGGLE	F	Signal Polarity
CONDIT	TWOPARAM	F	1.50000E+001	0.00000E+000	Conditionin&g	Time(s)	E(V)
DELAY	TWOPARAM	T	1.00000E+001	0.00000E+000	Init. De&lay	Time(s)	Stab.(mV/s)
EQDELAY	QUANT	1.00000E+001	Equil. &Time (s)
IRCOMP	SELECTOR	0	IRCom&p
PFCOR	QUANT	5.00000E+001	PF Corr. (ohm)
SAMPLINGMODE	SELECTOR	1	Sampling &Mode
OCVCURVE	TABLE	39
	Pt	T	Vf	Vm	Ach	Over	Temp
	#	s	V vs. Ref.	V	V	bits	deg C
	0	0.258333	3.55990E-001	3.55990E-001	2.51556E-004	..........a	-327.66
	1	0.516667	3.55992E-001	3.56087E-001	2.45956E-004	..........a	-327.66
	2	0.775	3.56008E-001	3.56393E-001	2.29156E-004	..........a	-327.66
	3	1.03333	3.56066E-001	3.56767E-001	2.42489E-004	..........a	-327.66
	4	1.29167	3.56203E-001	3.57052E-001	2.36822E-004	..........a	-327.66
	5	1.55	3.56431E-001	3.57573E-001	2.50689E-004	..........a	-327.66
	6	1.80833	3.56732E-001	3.57722E-001	2.50089E-004	..........a	-327.66
	7	2.06667	3.57072E-001	3.58030E-001	2.35489E-004	..........a	-327.66
	8	2.325	3.57410E-001	3.58404E-001	2.49556E-004	..........a	-327.66
	9	2.58333	3.57731E-001	3.58685E-001	2.36489E-004	..........a	-327.66
	10	2.84167	3.58047E-001	3.59204E-001	2.51422E-004	..........a	-327.66
	11	3.1	3.58376E-001	3.59406E-001	2.38756E-004	..........a	-327.66
	12	3.35833	3.58722E-001	3.59729E-001	2.32222E-004	..........a	-327.66
	13	3.61667	3.59067E-001	3.60058E-001	2.52956E-004	..........a	-327.66
	14	3.875	3.59398E-001	3.60380E-001	2.49956E-004	..........a	-327.66
	15	4.13333	3.59720E-001	3.60820E-001	2.49556E-004	..........a	-327.66
	16	4.39167	3.60048E-001	3.61039E-001	2.40822E-004	..........a	-327.66
	17	4.65	3.60384E-001	3.61385E-001	2.39356E-004	..........a	-327.66
	18	4.90833	3.60718E-001	3.61736E-001	2.54822E-004	..........a	-327.66
	19	5.16667	3.61048E-001	3.62146E-001	2.32556E-004	..........a	-327.66
	20	5.425	3.61383E-001	3.62445E-001	2.52089E-004	..........a	-327.66
	21	5.68333	3.61727E-001	3.62698E-001	2.33422E-004	..........a	-327.66
	22	5.94167	3.62068E-001	3.63068E-001	2.39622E-004	..........a	-327.66
	23	6.2	3.62396E-001	3.63421E-001	2.37622E-004	..........a	-327.66
	24	6.45833	3.62721E-001	3.63820E-001	2.36822E-004	..........a	-327.66
	25	6.71667	3.63057E-001	3.64119E-001	2.55089E-004	..........a	-327.66
	26	6.975	3.63402E-001	3.64358E-001	2.32422E-004	..........a	-327.66
	27	7.23333	3.63742E-001	3.64736E-001	2.39689E-004	..........a	-327.66
	28	7.49167	3.64067E-001	3.65051E-001	2.36489E-004	..........a	-327.66
	29	7.75	3.64386E-001	3.65475E-001	2.40022E-004	..........a	-327.66
	30	8.00833	3.64713E-001	3.65729E-001	2.41822E-004	..........a	-327.66
	31	8.26667	3.65050E-001	3.66034E-001	2.34689E-004	..........a	-327.66
	32	8.525	3.65385E-001	3.66353E-001	2.38889E-004	..........a	-327.66
	33	8.78333	3.65708E-001	3.66688E-001	2.30222E-004	..........a	-327.66
	34	9.04167	3.66025E-001	3.67104E-001	2.32022E-004	..........a	-327.66
	35	9.3	3.66350E-001	3.67375E-001	2.41022E-004	..........a	-327.66
	36	9.5583	3.66685E-001	3.67660E-001	2.30489E-004	..........a	-327.66
	37	9.8167	3.67019E-001	3.67996E-001	2.50689E-004	..........a	-327.66
	38	10.075	3.67342E-001	3.68288E-001	2.42289E-004	..........a	-327.66
EOC	QUANT	0.3673421	Open Circuit (V)
PSTATMODEL	IQUANT	7	Pstat Model
PSTATSECTION	LABEL	REF600P-43058	Pstat Section
PSTATSERIALNO	LABEL	43058	Pstat Serial Number
CTRLMODE	IQUANT	1	Control Mode
ELECTROMETER	IQUANT	0	RE=0 or CS=1
IESTAB	IQUANT	2	I/E Stability
CASPEED	IQUANT	4	Control Amp Speed
CONVENTION	IQUANT	1	Current Convention
ICHRANGE	IQUANT	2	Ich Range
ICHRANGEMODE	TOGGLE	F	Ich Auto Range
ICHOFFSETENABLE	TOGGLE	F	Ich Offset Enable
ICHOFFSET	QUANT	0	Ich Offset (V)
ICHFILTER	IQUANT	2	Ich Filter
VCHRANGE	IQUANT	2	Vch Range
VCHRANGEMODE	TOGGLE	F	Vch Auto Range
VCHOFFSETENABLE	TOGGLE	F	Vch Offset Enable
VCHOFFSET	QUANT	0	Vch Offset (V)
VCHFILTER	IQUANT	2	Vch Filter
ACHRANGE	IQUANT	2	Ach Range
ACHOFFSETENABLE	TOGGLE	F	Ach Offset Enable
ACHOFFSET	QUANT	0	Ach Offset (V)
ACHFILTER	IQUANT	1	Ach Filter
IERANGELOWERLIMIT	IQUANT	1	I/E Range Lower Limit
IERANGEMODE	TOGGLE	F	I/E AutoRange
IERANGE	IQUANT	4	I/E Range
POSFEEDENABLE	TOGGLE	F	Positive Feedback IR Comp
POSFEEDRESISTANCE	QUANT	0	Positive Feedback Resistance (ohm)
ACHSELECT	IQUANT	4	Ach Select
SENSECABLEID	IQUANT	7	Sense Cable ID
PWRCABLEID	IQUANT	7	Power Cable ID
DCCALDATE	LABEL	12/18/2023	DC Calibration Date
ACCALDATE	LABEL	12/18/2023	AC Calibration Date
THERMOSELECT	IQUANT	1	Thermo Select
FRAMEWORKVERSION	LABEL	7.8.4	Framework Version
INSTRUMENTVERSION	LABEL	4.42	Instrument Version
CURVE1	TABLE
	Pt	T	Vf	Im	Vu	Sig	Ach	IERange	Over	Temp
	#	s	V vs. Ref.	A	V	V	V	#	bits	deg C
	0	0.2	3.67348E-001	1.19943E-011	0.00000E+000	3.67350E-001	9.84922E-004	4	..........a	-327.66
	1	0.4	3.57490E-001	-2.35681E-011	0.00000E+000	3.57350E-001	9.92822E-004	4	..........a	-327.66
	2	0.6	3.47386E-001	-3.78617E-011	0.00000E+000	3.47350E-001	9.76322E-004	4	..........a	-327.66
	3	0.8	3.37338E-001	-4.68720E-011	0.00000E+000	3.37350E-001	9.76222E-004	4	..........a	-327.66
	4	1	3.27354E-001	-5.30582E-011	0.00000E+000	3.27350E-001	9.92022E-004	4	..........a	-327.66
	5	1.2	3.17391E-001	-5.79044E-011	0.00000E+000	3.17350E-001	9.88522E-004	4	..........a	-327.66
	6	1.4	3.07321E-001	-6.25546E-011	0.00000E+000	3.07350E-001	9.88822E-004	4	..........a	-327.66
	7	1.6	2.97288E-001	-6.75298E-011	0.00000E+000	2.97350E-001	9.76522E-004	4	..........a	-327.66
	8	1.8	2.87340E-001	-7.10219E-011	0.00000E+000	2.87350E-001	9.80722E-004	4	..........a	-327.66
	9	2	2.77379E-001	-7.48281E-011	0.00000E+000	2.77350E-001	9.71722E-004	4	..........a	-327.66
	10	2.2	2.67362E-001	-7.80092E-011	0.00000E+000	2.67350E-001	9.74722E-004	4	..........a	-327.66
	11	2.4	2.57285E-001	-8.15773E-011	0.00000E+000	2.57350E-001	9.71722E-004	4	..........a	-327.66
	12	2.6	2.47305E-001	-8.51125E-011	0.00000E+000	2.47350E-001	9.79722E-004	4	..........a	-327.66
	13	2.8	2.37392E-001	-8.74016E-011	0.00000E+000	2.37350E-001	9.76822E-004	4	..........a	-327.66
	14	3	2.27329E-001	-9.04887E-011	0.00000E+000	2.27350E-001	9.94122E-004	4	..........a	-327.66
	15	3.2	2.17364E-001	-9.18107E-011	0.00000E+000	2.17350E-001	9.82422E-004	4	..........a	-327.66
	16	3.4	2.07313E-001	-9.46358E-011	0.00000E+000	2.07350E-001	9.74522E-004	4	..........a	-327.66
	17	3.6	1.97518E-001	-9.57199E-011	0.00000E+000	1.97350E-001	9.95422E-004	4	..........a	-327.66
	18	3.8	1.87382E-001	-9.80940E-011	0.00000E+000	1.87350E-001	9.79822E-004	4	..........a	-327.66
	19	4	1.77333E-001	-9.90330E-011	0.00000E+000	1.77350E-001	9.69522E-004	4	..........a	-327.66
	20	4.2	1.67403E-001	-9.93270E-011	0.00000E+000	1.67350E-001	9.89222E-004	4	..........a	-327.66
	21	4.4	1.57434E-001	-1.01119E-010	0.00000E+000	1.57350E-001	9.81922E-004	4	..........a	-327.66
	22	4.6	1.47379E-001	-1.02253E-010	0.00000E+000	1.47350E-001	1.01402E-003	4	..........a	-327.66
	23	4.8	1.37370E-001	-1.03308E-010	0.00000E+000	1.37350E-001	9.95522E-004	4	..........a	-327.66
	24	5	1.27368E-001	-1.03906E-010	0.00000E+000	1.27350E-001	9.95922E-004	4	..........a	-327.66
	25	5.2	1.17467E-001	-1.04568E-010	0.00000E+000	1.17350E-001	9.64322E-004	4	..........a	-327.66
	26	5.4	1.07386E-001	-1.05015E-010	0.00000E+000	1.07350E-001	1.01032E-003	4	..........a	-327.66
	27	5.6	9.73285E-002	-1.05527E-010	0.00000E+000	9.73500E-002	9.83722E-004	4	..........a	-327.66
	28	5.8	8.73857E-002	-1.06715E-010	0.00000E+000	8.73500E-002	9.95622E-004	4	..........a	-327.66
	29	6	7.74018E-002	-1.07111E-010	0.00000E+000	7.73500E-002	9.63722E-004	4	..........a	-327.66
	30	6.2	6.73871E-002	-1.07838E-010	0.00000E+000	6.73500E-002	9.86122E-004	4	..........a	-327.66
	31	6.4	5.73618E-002	-1.08972E-010	0.00000E+000	5.73500E-002	9.86222E-004	4	..........a	-327.66
	32	6.6	4.73583E-002	-1.09737E-010	0.00000E+000	4.73500E-002	9.91222E-004	4	..........a	-327.66
	33	6.8	3.74196E-002	-1.10415E-010	0.00000E+000	3.73500E-002	9.91322E-004	4	..........a	-327.66
	34	7	2.73687E-002	-1.11423E-010	0.00000E+000	2.73500E-002	1.00332E-003	4	..........a	-327.66
	35	7.2	1.73382E-002	-1.11938E-010	0.00000E+000	1.73500E-002	9.88822E-004	4	..........a	-327.66
	36	7.4	7.39399E-003	-1.13784E-010	0.00000E+000	7.35001E-003	9.79022E-004	4	..........a	-327.66
	37	7.6	-2.53581E-003	-1.14273E-010	0.00000E+000	-2.64999E-003	9.97922E-004	4	..........a	-327.66
	38	7.8	-1.26193E-002	-1.16019E-010	0.00000E+000	-1.26500E-002	9.81222E-004	4	..........a	-327.66
	39	8	-2.26523E-002	-1.17165E-010	0.00000E+000	-2.26500E-002	1.00852E-003	4	..........a	-327.66
	40	8.2	-3.26300E-002	-1.18723E-010	0.00000E+000	-3.26500E-002	9.88622E-004	4	..........a	-327.66
	41	8.4	-4.25882E-002	-1.20683E-010	0.00000E+000	-4.26500E-002	9.84522E-004	4	..........a	-327.66
	42	8.6	-5.26197E-002	-1.22725E-010	0.00000E+000	-5.26500E-002	9.75022E-004	4	..........a	-327.66
	43	8.8	-6.26355E-002	-1.25104E-010	0.00000E+000	-6.26500E-002	9.88522E-004	4	..........a	-327.66
	44	9	-7.26412E-002	-1.29155E-010	0.00000E+000	-7.26500E-002	1.00242E-003	4	..........a	-327.66
	45	9.2	-8.25415E-002	-1.32654E-010	0.00000E+000	-8.26500E-002	9.80622E-004	4	..........a	-327.66
	46	9.4	-9.26185E-002	-1.35726E-010	0.00000E+000	-9.26500E-002	9.94722E-004	4	..........a	-327.66
	47	9.6	-1.02737E-001	-1.39164E-010	0.00000E+000	-1.02650E-001	9.94522E-004	4	..........a	-327.66
	48	9.8	-1.12662E-001	-1.43972E-010	0.00000E+000	-1.12650E-001	9.74322E-004	4	..........a	-327.66
	49	10	-1.22582E-001	-1.48216E-010	0.00000E+000	-1.22650E-001	9.69822E-004	4	..........a	-327.66
	50	10.2	-1.32620E-001	-1.52986E-010	0.00000E+000	-1.32650E-001	9.99122E-004	4	..........a	-327.66
	51	10.4	-1.42622E-001	-1.58545E-010	0.00000E+000	-1.42650E-001	9.76522E-004	4	..........a	-327.66
	52	10.6	-1.52632E-001	-1.64249E-010	0.00000E+000	-1.52650E-001	9.79322E-004	4	..........a	-327.66
	53	10.8	-1.62548E-001	-1.70659E-010	0.00000E+000	-1.62650E-001	9.61222E-004	4	..........a	-327.66
	54	11	-1.72630E-001	-1.77071E-010	0.00000E+000	-1.72650E-001	9.82322E-004	4	..........a	-327.66
	55	11.2	-1.82711E-001	-1.84648E-010	0.00000E+000	-1.82650E-001	9.94822E-004	4	..........a	-327.66
	56	11.4	-1.92628E-001	-1.92703E-010	0.00000E+000	-1.92650E-001	9.91922E-004	4	..........a	-327.66
	57	11.6	-2.02592E-001	-2.00955E-010	0.00000E+000	-2.02650E-001	9.72222E-004	4	..........a	-327.66
	58	11.8	-2.12604E-001	-2.11153E-010	0.00000E+000	-2.12650E-001	9.83422E-004	4	..........a	-327.66
	59	12	-2.22600E-001	-2.21177E-010	0.00000E+000	-2.22650E-001	9.91122E-004	4	..........a	-327.66
	60	12.2	-2.32597E-001	-2.32287E-010	0.00000E+000	-2.32650E-001	1.00582E-003	4	..........a	-327.66
	61	12.4	-2.42440E-001	-2.45307E-010	0.00000E+000	-2.42650E-001	9.95022E-004	4	..........a	-327.66
	62	12.6	-2.52597E-001	-2.59708E-010	0.00000E+000	-2.52650E-001	9.59722E-004	4	..........a	-327.66
	63	12.8	-2.62606E-001	-2.73436E-010	0.00000E+000	-2.62650E-001	1.00902E-003	4	..........a	-327.66
	64	13	-2.72588E-001	-2.91949E-010	0.00000E+000	-2.72650E-001	9.70822E-004	4	..........a	-327.66
	65	13.2	-2.82504E-001	-3.08093E-010	0.00000E+000	-2.82650E-001	9.69422E-004	4	..........a	-327.66
	66	13.4	-2.92589E-001	-3.25465E-010	0.00000E+000	-2.92650E-001	9.85922E-004	4	..........a	-327.66
	67	13.6	-3.02558E-001	-3.46172E-010	0.00000E+000	-3.02650E-001	9.95522E-004	4	..........a	-327.66
	68	13.8	-3.12581E-001	-3.63573E-010	0.00000E+000	-3.12650E-001	9.86122E-004	4	..........a	-327.66
	69	14	-3.22555E-001	-3.90943E-010	0.00000E+000	-3.22650E-001	9.84522E-004	4	..........a	-327.66
	70	14.2	-3.32614E-001	-4.18006E-010	0.00000E+000	-3.32650E-001	9.93022E-004	4	..........a	-327.66
	71	14.4	-3.42546E-001	-4.42465E-010	0.00000E+000	-3.42650E-001	9.81922E-004	4	..........a	-327.66
	72	14.6	-3.52580E-001	-4.69000E-010	0.00000E+000	-3.52650E-001	9.90322E-004	4	..........a	-327.66
	73	14.8	-3.62493E-001	-4.98540E-010	0.00000E+000	-3.62650E-001	9.73822E-004	4	..........a	-327.66
	74	15	-3.72582E-001	-5.29881E-010	0.00000E+000	-3.72650E-001	9.84322E-004	4	..........a	-327.66
	75	15.2	-3.82573E-001	-5.61547E-010	0.00000E+000	-3.82650E-001	9.87522E-004	4	..........a	-327.66
	76	15.4	-3.92584E-001	-5.95707E-010	0.00000E+000	-3.92650E-001	1.01102E-003	4	..........a	-327.66
	77	15.6	-4.02555E-001	-6.31251E-010	0.00000E+000	-4.02650E-001	9.65422E-004	4	..........a	-327.66
	78	15.8	-4.12563E-001	-6.68460E-010	0.00000E+000	-4.12650E-001	9.95322E-004	4	..........a	-327.66
	79	16	-4.22540E-001	-7.06860E-010	0.00000E+000	-4.22650E-001	9.81622E-004	4	..........a	-327.66
	80	16.2	-4.32575E-001	-7.47755E-010	0.00000E+000	-4.32650E-001	9.94722E-004	4	..........a	-327.66
	81	16.4	-4.42424E-001	-7.91250E-010	0.00000E+000	-4.42650E-001	1.01342E-003	4	..........a	-327.66
	82	16.6	-4.52568E-001	-8.34388E-010	0.00000E+000	-4.52650E-001	1.00012E-003	4	..........a	-327.66
	83	16.8	-4.62543E-001	-8.74767E-010	0.00000E+000	-4.62650E-001	9.87922E-004	4	..........a	-327.66
	84	17	-4.72537E-001	-9.29444E-010	0.00000E+000	-4.72650E-001	9.89222E-004	4	..........a	-327.66
	85	17.2	-4.82508E-001	-9.80366E-010	0.00000E+000	-4.82650E-001	9.86022E-004	4	..........a	-327.66
	86	17.4	-4.92577E-001	-1.03432E-009	0.00000E+000	-4.92650E-001	9.74222E-004	4	..........a	-327.66
	87	17.6	-5.02553E-001	-1.09201E-009	0.00000E+000	-5.02650E-001	9.85522E-004	4	..........a	-327.66
	88	17.8	-5.12584E-001	-1.15142E-009	0.00000E+000	-5.12650E-001	1.00822E-003	4	..........a	-327.66
	89	18	-5.22456E-001	-1.21470E-009	0.00000E+000	-5.22650E-001	1.00112E-003	4	..........a	-327.66
	90	18.2	-5.32578E-001	-1.28361E-009	0.00000E+000	-5.32650E-001	9.85622E-004	4	..........a	-327.66
	91	18.4	-5.42564E-001	-1.35466E-009	0.00000E+000	-5.42650E-001	1.01192E-003	4	..........a	-327.66
	92	18.6	-5.52566E-001	-1.43476E-009	0.00000E+000	-5.52650E-001	9.94122E-004	4	..........a	-327.66
	93	18.8	-5.62501E-001	-1.51252E-009	0.00000E+000	-5.62650E-001	1.00052E-003	4	..........a	-327.66
	94	19	-5.72556E-001	-1.60484E-009	0.00000E+000	-5.72650E-001	9.68022E-004	4	..........a	-327.66
	95	19.2	-5.82555E-001	-1.70147E-009	0.00000E+000	-5.82650E-001	9.86322E-004	4	..........a	-327.66
	96	19.4	-5.92539E-001	-1.80472E-009	0.00000E+000	-5.92650E-001	9.84722E-004	4	..........a	-327.66
	97	19.6	-6.02537E-001	-1.91737E-009	0.00000E+000	-6.02650E-001	9.81922E-004	4	..........a	-327.66
	98	19.8	-5.92568E-001	-1.66683E-009	0.00000E+000	-5.92650E-001	1.00972E-003	4	..........a	-327.66
	99	20	-5.82586E-001	-1.47496E-009	0.00000E+000	-5.82650E-001	9.97122E-004	4	..........a	-327.66
	100	20.2	-5.72567E-001	-1.31568E-009	0.00000E+000	-5.72650E-001	9.93922E-004	4	..........a	-327.66
	101	20.4	-5.62467E-001	-1.17528E-009	0.00000E+000	-5.62650E-001	9.88622E-004	4	..........a	-327.66
	102	20.6	-5.52586E-001	-1.05653E-009	0.00000E+000	-5.52650E-001	9.80722E-004	4	..........a	-327.66
	103	20.8	-5.42523E-001	-9.49017E-010	0.00000E+000	-5.42650E-001	9.85822E-004	4	..........a	-327.66
	104	21	-5.32565E-001	-8.52943E-010	0.00000E+000	-5.32650E-001	9.76322E-004	4	..........a	-327.66
	105	21.2	-5.22442E-001	-7.66484E-010	0.00000E+000	-5.22650E-001	1.00012E-003	4	..........a	-327.66
	106	21.4	-5.12582E-001	-6.88080E-010	0.00000E+000	-5.12650E-001	9.98222E-004	4	..........a	-327.66
	107	21.6	-5.02550E-001	-6.15759E-010	0.00000E+000	-5.02650E-001	9.75822E-004	4	..........a	-327.66
	108	21.8	-4.92559E-001	-5.50983E-010	0.00000E+000	-4.92650E-001	9.74822E-004	4	..........a	-327.66
	109	22	-4.82506E-001	-4.90604E-010	0.00000E+000	-4.82650E-001	9.79422E-004	4	..........a	-327.66
	110	22.2	-4.72567E-001	-4.33139E-010	0.00000E+000	-4.72650E-001	9.86622E-004	4	..........a	-327.66
	111	22.4	-4.62555E-001	-3.83740E-010	0.00000E+000	-4.62650E-001	9.87522E-004	4	..........a	-327.66
	112	22.6	-4.52573E-001	-3.35720E-010	0.00000E+000	-4.52650E-001	1.01582E-003	4	..........a	-327.66
	113	22.8	-4.42492E-001	-2.93431E-010	0.00000E+000	-4.42650E-001	9.69522E-004	4	..........a	-327.66
	114	23	-4.32576E-001	-2.51303E-010	0.00000E+000	-4.32650E-001	9.95222E-004	4	..........a	-327.66
	115	23.2	-4.22553E-001	-2.13793E-010	0.00000E+000	-4.22650E-001	9.79122E-004	4	..........a	-327.66
	116	23.4	-4.12549E-001	-1.79535E-010	0.00000E+000	-4.12650E-001	9.82622E-004	4	..........a	-327.66
	117	23.6	-4.02534E-001	-1.47375E-010	0.00000E+000	-4.02650E-001	9.84722E-004	4	..........a	-327.66
	118	23.8	-3.92598E-001	-1.17726E-010	0.00000E+000	-3.92650E-001	1.00112E-003	4	..........a	-327.66
	119	24	-3.82601E-001	-9.02117E-011	0.00000E+000	-3.82650E-001	9.86622E-004	4	..........a	-327.66
	120	24.2	-3.72588E-001	-6.56477E-011	0.00000E+000	-3.72650E-001	9.81422E-004	4	..........a	-327.66
	121	24.4	-3.62506E-001	-4.20868E-011	0.00000E+000	-3.62650E-001	9.68422E-004	4	..........a	-327.66
	122	24.6	-3.52597E-001	-2.19840E-011	0.00000E+000	-3.52650E-001	1.00582E-003	4	..........a	-327.66
	123	24.8	-3.42658E-001	-2.05628E-012	0.00000E+000	-3.42650E-001	9.80922E-004	4	..........a	-327.66
	124	25	-3.32630E-001	1.58624E-011	0.00000E+000	-3.32650E-001	9.75522E-004	4	..........a	-327.66
	125	25.2	-3.22562E-001	3.36461E-011	0.00000E+000	-3.22650E-001	9.85622E-004	4	..........a	-327.66
	126	25.4	-3.12588E-001	4.69636E-011	0.00000E+000	-3.12650E-001	9.87122E-004	4	..........a	-327.66
	127	25.6	-3.02619E-001	6.09581E-011	0.00000E+000	-3.02650E-001	9.83022E-004	4	..........a	-327.66
	128	25.8	-2.92935E-001	7.29076E-011	0.00000E+000	-2.92650E-001	1.01112E-003	4	..........a	-327.66
	129	26	-2.82524E-001	8.43230E-011	0.00000E+000	-2.82650E-001	1.00532E-003	4	..........a	-327.66
	130	26.2	-2.72577E-001	9.27994E-011	0.00000E+000	-2.72650E-001	1.00782E-003	4	..........a	-327.66
	131	26.4	-2.62561E-001	1.02733E-010	0.00000E+000	-2.62650E-001	9.90222E-004	4	..........a	-327.66
	132	26.6	-2.52590E-001	1.10001E-010	0.00000E+000	-2.52650E-001	9.72822E-004	4	..........a	-327.66
	133	26.8	-2.42529E-001	1.17563E-010	0.00000E+000	-2.42650E-001	9.83522E-004	4	..........a	-327.66
	134	27	-2.32619E-001	1.24983E-010	0.00000E+000	-2.32650E-001	1.00242E-003	4	..........a	-327.66
	135	27.2	-2.22604E-001	1.27875E-010	0.00000E+000	-2.22650E-001	1.00012E-003	4	..........a	-327.66
	136	27.4	-2.12591E-001	1.32037E-010	0.00000E+000	-2.12650E-001	9.94122E-004	4	..........a	-327.66
	137	27.6	-2.02542E-001	1.34746E-010	0.00000E+000	-2.02650E-001	9.81322E-004	4	..........a	-327.66
	138	27.8	-1.92603E-001	1.37740E-010	0.00000E+000	-1.92650E-001	9.82322E-004	4	..........a	-327.66
	139	28	-1.82657E-001	1.39449E-010	0.00000E+000	-1.82650E-001	9.93222E-004	4	..........a	-327.66
	140	28.2	-1.72605E-001	1.40352E-010	0.00000E+000	-1.72650E-001	9.84422E-004	4	..........a	-327.66
	141	28.4	-1.62510E-001	1.41823E-010	0.00000E+000	-1.62650E-001	9.98222E-004	4	..........a	-327.66
	142	28.6	-1.52615E-001	1.43794E-010	0.00000E+000	-1.52650E-001	9.90422E-004	4	..........a	-327.66
	143	28.8	-1.42627E-001	1.44333E-010	0.00000E+000	-1.42650E-001	9.86222E-004	4	..........a	-327.66
	144	29	-1.32643E-001	1.42860E-010	0.00000E+000	-1.32650E-001	9.93722E-004	4	..........a	-327.66
	145	29.2	-1.22589E-001	1.43716E-010	0.00000E+000	-1.22650E-001	9.78322E-004	4	..........a	-327.66
	146	29.4	-1.12602E-001	1.43945E-010	0.00000E+000	-1.12650E-001	9.82422E-004	4	..........a	-327.66
	147	29.6	-1.02688E-001	1.43410E-010	0.00000E+000	-1.02650E-001	1.01292E-003	4	..........a	-327.66
	148	29.8	-9.26085E-002	1.43556E-010	0.00000E+000	-9.26500E-002	9.86822E-004	4	..........a	-327.66
	149	30	-8.25176E-002	1.45346E-010	0.00000E+000	-8.26500E-002	9.80422E-004	4	..........a	-327.66
	150	30.2	-7.26143E-002	1.42284E-010	0.00000E+000	-7.26500E-002	9.80822E-004	4	..........a	-327.66
	151	30.4	-6.27059E-002	1.44917E-010	0.00000E+000	-6.26500E-002	9.92222E-004	4	..........a	-327.66
	152	30.6	-5.26345E-002	1.41626E-010	0.00000E+000	-5.26500E-002	9.99222E-004	4	..........a	-327.66
	153	30.8	-4.25878E-002	1.41885E-010	0.00000E+000	-4.26500E-002	9.61122E-004	4	..........a	-327.66
	154	31	-3.26226E-002	1.41451E-010	0.00000E+000	-3.26500E-002	9.88022E-004	4	..........a	-327.66
	155	31.2	-2.26310E-002	1.42117E-010	0.00000E+000	-2.26500E-002	9.96322E-004	4	..........a	-327.66
	156	31.4	-1.26233E-002	1.44547E-010	0.00000E+000	-1.26500E-002	9.89622E-004	4	..........a	-327.66
	157	31.6	-2.52861E-003	1.42441E-010	0.00000E+000	-2.64999E-003	9.96722E-004	4	..........a	-327.66
	158	31.8	7.39979E-003	1.44322E-010	0.00000E+000	7.35001E-003	9.98822E-004	4	..........a	-327.66
	159	32	1.73453E-002	1.42393E-010	0.00000E+000	1.73500E-002	9.91522E-004	4	..........a	-327.66
	160	32.2	2.73783E-002	1.42334E-010	0.00000E+000	2.73500E-002	9.79222E-004	4	..........a	-327.66
	161	32.4	3.74287E-002	1.43793E-010	0.00000E+000	3.73500E-002	9.79222E-004	4	..........a	-327.66
	162	32.6	4.73551E-002	1.42807E-010	0.00000E+000	4.73500E-002	1.00402E-003	4	..........a	-327.66
	163	32.8	5.73717E-002	1.44855E-010	0.00000E+000	5.73500E-002	9.68622E-004	4	..........a	-327.66
	164	33	6.73911E-002	1.45493E-010	0.00000E+000	6.73500E-002	1.00182E-003	4	..........a	-327.66
	165	33.2	7.74219E-002	1.48730E-010	0.00000E+000	7.73500E-002	9.78622E-004	4	..........a	-327.66
	166	33.4	8.73880E-002	1.49511E-010	0.00000E+000	8.73500E-002	1.00022E-003	4	..........a	-327.66
	167	33.6	9.73209E-002	1.52234E-010	0.00000E+000	9.73500E-002	9.69422E-004	4	..........a	-327.66
	168	33.8	1.07399E-001	1.50904E-010	0.00000E+000	1.07350E-001	9.98222E-004	4	..........a	-327.66
	169	34	1.17391E-001	1.54909E-010	0.00000E+000	1.17350E-001	9.79222E-004	4	..........a	-327.66
	170	34.2	1.27362E-001	1.56894E-010	0.00000E+000	1.27350E-001	1.00812E-003	4	..........a	-327.66
	171	34.4	1.37405E-001	1.60565E-010	0.00000E+000	1.37350E-001	9.99622E-004	4	..........a	-327.66
	172	34.6	1.47370E-001	1.60576E-010	0.00000E+000	1.47350E-001	9.84922E-004	4	..........a	-327.66
	173	34.8	1.57472E-001	1.63953E-010	0.00000E+000	1.57350E-001	9.89322E-004	4	..........a	-327.66
	174	35	1.67405E-001	1.68828E-010	0.00000E+000	1.67350E-001	1.01822E-003	4	..........a	-327.66
	175	35.2	1.77344E-001	1.71808E-010	0.00000E+000	1.77350E-001	1.00762E-003	4	..........a	-327.66
	176	35.4	1.87404E-001	1.74664E-010	0.00000E+000	1.87350E-001	9.91522E-004	4	..........a	-327.66
	177	35.6	1.97491E-001	1.79752E-010	0.00000E+000	1.97350E-001	9.82922E-004	4	..........a	-327.66
	178	35.8	2.07341E-001	1.81567E-010	0.00000E+000	2.07350E-001	1.00532E-003	4	..........a	-327.66
	179	36	2.17365E-001	1.86666E-010	0.00000E+000	2.17350E-001	9.89922E-004	4	..........a	-327.66
	180	36.2	2.27345E-001	1.88748E-010	0.00000E+000	2.27350E-001	9.88122E-004	4	..........a	-327.66
	181	36.4	2.37424E-001	1.91548E-010	0.00000E+000	2.37350E-001	9.79822E-004	4	..........a	-327.66
	182	36.6	2.47338E-001	1.95371E-010	0.00000E+000	2.47350E-001	1.02172E-003	4	..........a	-327.66
	183	36.8	2.57329E-001	1.97409E-010	0.00000E+000	2.57350E-001	9.94722E-004	4	..........a	-327.66
	184	37	2.67379E-001	2.00512E-010	0.00000E+000	2.67350E-001	9.77522E-004	4	..........a	-327.66
	185	37.2	2.77475E-001	2.03082E-010	0.00000E+000	2.77350E-001	9.99722E-004	4	..........a	-327.66
	186	37.4	2.87373E-001	2.05573E-010	0.00000E+000	2.87350E-001	9.94222E-004	4	..........a	-327.66
	187	37.6	2.97356E-001	2.07632E-010	0.00000E+000	2.97350E-001	9.81022E-004	4	..........a	-327.66
	188	37.8	3.07359E-001	2.09538E-010	0.00000E+000	3.07350E-001	9.91422E-004	4	..........a	-327.66
	189	38	3.17405E-001	2.11805E-010	0.00000E+000	3.17350E-001	9.77522E-004	4	..........a	-327.66
	190	38.2	3.27386E-001	2.13166E-010	0.00000E+000	3.27350E-001	9.95522E-004	4	..........a	-327.66
	191	38.4	3.37344E-001	2.14737E-010	0.00000E+000	3.37350E-001	9.88222E-004	4	..........a	-327.66
	192	38.6	3.46998E-001	2.15627E-010	0.00000E+000	3.47350E-001	1.01542E-003	4	..........a	-327.66
	193	38.8	3.57423E-001	2.17422E-010	0.00000E+000	3.57350E-001	9.69222E-004	4	..........a	-327.66
	194	39	3.67371E-001	2.18456E-010	0.00000E+000	3.67350E-001	9.94622E-004	4	..........a	-327.66
	195	39.2	3.77298E-001	2.20628E-010	0.00000E+000	3.77350E-001	1.01882E-003	4	..........a	-327.66
	196	39.4	3.87340E-001	2.22467E-010	0.00000E+000	3.87350E-001	9.95922E-004	4	..........a	-327.66
	197	39.6	3.97496E-001	2.25076E-010	0.00000E+000	3.97350E-001	9.82822E-004	4	..........a	-327.66
	198	39.8	4.07307E-001	2.25940E-010	0.00000E+000	4.07350E-001	1.00652E-003	4	..........a	-327.66
	199	40	4.17292E-001	2.29811E-010	0.00000E+000	4.17350E-001	9.97922E-004	4	..........a	-327.66
	200	40.2	4.27253E-001	2.32607E-010	0.00000E+000	4.27350E-001	9.96822E-004	4	..........a	-327.66
	201	40.4	4.37371E-001	2.35099E-010	0.00000E+000	4.37350E-001	9.91922E-004	4	..........a	-327.66
	202	40.6	4.47334E-001	2.38341E-010	0.00000E+000	4.47350E-001	1.01342E-003	4	..........a	-327.66
	203	40.8	4.57192E-001	2.41853E-010	0.00000E+000	4.57350E-001	1.00042E-003	4	..........a	-327.66
	204	41	4.67230E-001	2.45345E-010	0.00000E+000	4.67350E-001	1.00672E-003	4	..........a	-327.66
	205	41.2	4.77331E-001	2.49972E-010	0.00000E+000	4.77350E-001	1.02162E-003	4	..........a	-327.66
	206	41.4	4.87233E-001	2.53008E-010	0.00000E+000	4.87350E-001	1.00532E-003	4	..........a	-327.66
	207	41.6	4.97237E-001	2.57821E-010	0.00000E+000	4.97350E-001	9.91022E-004	4	..........a	-327.66
	208	41.8	5.07227E-001	2.63319E-010	0.00000E+000	5.07350E-001	1.00112E-003	4	..........a	-327.66
	209	42	5.17299E-001	2.67837E-010	0.00000E+000	5.17350E-001	1.01542E-003	4	..........a	-327.66
	210	42.2	5.27305E-001	2.72593E-010	0.00000E+000	5.27350E-001	1.00092E-003	4	..........a	-327.66
	211	42.4	5.37201E-001	2.78222E-010	0.00000E+000	5.37350E-001	9.92922E-004	4	..........a	-327.66
	212	42.6	5.47318E-001	2.83491E-010	0.00000E+000	5.47350E-001	1.01222E-003	4	..........a	-327.66
	213	42.8	5.57438E-001	2.89236E-010	0.00000E+000	5.57350E-001	1.00012E-003	4	..........a	-327.66
	214	43	5.67240E-001	2.93821E-010	0.00000E+000	5.67350E-001	1.01702E-003	4	..........a	-327.66
	215	43.2	5.77335E-001	3.00937E-010	0.00000E+000	5.77350E-001	9.80722E-004	4	..........a	-327.66
	216	43.4	5.87267E-001	3.06420E-010	0.00000E+000	5.87350E-001	9.98222E-004	4	..........a	-327.66
	217	43.6	5.97337E-001	3.13295E-010	0.00000E+000	5.97350E-001	9.98922E-004	4	..........a	-327.66
	218	43.8	6.07223E-001	3.19420E-010	0.00000E+000	6.07350E-001	1.01562E-003	4	..........a	-327.66
	219	44	6.17197E-001	3.25405E-010	0.00000E+000	6.17350E-001	1.00672E-003	4	..........a	-327.66
	220	44.2	6.27248E-001	3.32646E-010	0.00000E+000	6.27350E-001	9.95922E-004	4	..........a	-327.66
	221	44.4	6.37296E-001	3.39208E-010	0.00000E+000	6.37350E-001	1.00012E-003	4	..........a	-327.66
	222	44.6	6.47311E-001	3.46689E-010	0.00000E+000	6.47350E-001	1.00122E-003	4	..........a	-327.66
	223	44.8	6.57251E-001	3.54865E-010	0.00000E+000	6.57350E-001	9.89922E-004	4	..........a	-327.66
	224	45	6.67224E-001	3.62516E-010	0.00000E+000	6.67350E-001	9.98122E-004	4	..........a	-327.66
	225	45.2	6.77279E-001	3.71289E-010	0.00000E+000	6.77350E-001	9.86322E-004	4	..........a	-327.66
	226	45.4	6.87223E-001	3.80500E-010	0.00000E+000	6.87350E-001	1.00262E-003	4	..........a	-327.66
	227	45.6	6.97247E-001	3.91302E-010	0.00000E+000	6.97350E-001	9.95122E-004	4	..........a	-327.66
	228	45.8	7.07335E-001	4.01401E-010	0.00000E+000	7.07350E-001	1.00492E-003	4	..........a	-327.66
	229	46	7.17278E-001	4.13283E-010	0.00000E+000	7.17350E-001	9.97622E-004	4	..........a	-327.66
	230	46.2	7.27341E-001	4.26904E-010	0.00000E+000	7.27350E-001	9.85922E-004	4	..........a	-327.66
	231	46.4	7.37261E-001	4.40395E-010	0.00000E+000	7.37350E-001	1.00342E-003	4	..........a	-327.66
	232	46.6	7.47298E-001	4.55664E-010	0.00000E+000	7.47350E-001	9.98822E-004	4	..........a	-327.66
	233	46.8	7.57317E-001	4.71454E-010	0.00000E+000	7.57350E-001	9.75722E-004	4	..........a	-327.66
	234	47	7.67241E-001	4.89334E-010	0.00000E+000	7.67350E-001	1.02322E-003	4	..........a	-327.66
	235	47.2	7.77270E-001	5.07925E-010	0.00000E+000	7.77350E-001	9.91022E-004	4	..........a	-327.66
	236	47.4	7.87276E-001	5.28321E-010	0.00000E+000	7.87350E-001	1.00582E-003	4	..........a	-327.66
	237	47.6	7.97307E-001	5.50385E-010	0.00000E+000	7.97350E-001	9.95522E-004	4	..........a	-327.66
CURVE2	TABLE
	Pt	T	Vf	Im	Vu	Sig	Ach	IERange	Over	Temp
	#	s	V vs. Ref.	A	V	V	V	#	bits	deg C
	238	47.8	7.89951E-001	4.09979E-010	0.00000E+000	7.90000E-001	9.81122E-004	4	..........a	-327.66
	239	48	7.79966E-001	3.04345E-010	0.00000E+000	7.80000E-001	9.93622E-004	4	..........a	-327.66
	240	48.2	7.69968E-001	2.32811E-010	0.00000E+000	7.70000E-001	1.00062E-003	4	..........a	-327.66
	241	48.4	7.59871E-001	1.79484E-010	0.00000E+000	7.60000E-001	9.99522E-004	4	..........a	-327.66
	242	48.6	7.49962E-001	1.37890E-010	0.00000E+000	7.50000E-001	1.00652E-003	4	..........a	-327.66
	243	48.8	7.40001E-001	1.05068E-010	0.00000E+000	7.40000E-001	1.00342E-003	4	..........a	-327.66
	244	49	7.29955E-001	7.75438E-011	0.00000E+000	7.30000E-001	9.86722E-004	4	..........a	-327.66
	245	49.2	7.19887E-001	5.57049E-011	0.00000E+000	7.20000E-001	1.00492E-003	4	..........a	-327.66
	246	49.4	7.09869E-001	3.53012E-011	0.00000E+000	7.10000E-001	9.98022E-004	4	..........a	-327.66
	247	49.6	6.99975E-001	1.92535E-011	0.00000E+000	7.00000E-001	1.01242E-003	4	..........a	-327.66
	248	49.8	6.89886E-001	4.02195E-012	0.00000E+000	6.90000E-001	9.94422E-004	4	..........a	-327.66
	249	50	6.79812E-001	-8.08051E-012	0.00000E+000	6.80000E-001	9.81122E-004	4	..........a	-327.66
	250	50.2	6.69923E-001	-2.02640E-011	0.00000E+000	6.70000E-001	1.00632E-003	4	..........a	-327.66
	251	50.4	6.60005E-001	-3.02504E-011	0.00000E+000	6.60000E-001	1.00072E-003	4	..........a	-327.66
	252	50.6	6.49948E-001	-3.85667E-011	0.00000E+000	6.50000E-001	1.00592E-003	4	..........a	-327.66
	253	50.8	6.39916E-001	-4.61970E-011	0.00000E+000	6.40000E-001	1.02852E-003	4	..........a	-327.66
	254	51	6.29943E-001	-5.32972E-011	0.00000E+000	6.30000E-001	1.00162E-003	4	..........a	-327.66
	255	51.2	6.20003E-001	-5.85084E-011	0.00000E+000	6.20000E-001	1.00662E-003	4	..........a	-327.66
	256	51.4	6.09946E-001	-6.54417E-011	0.00000E+000	6.10000E-001	1.01102E-003	4	..........a	-327.66
	257	51.6	5.99943E-001	-6.98869E-011	0.00000E+000	6.00000E-001	9.79022E-004	4	..........a	-327.66
	258	51.8	5.89938E-001	-7.48651E-011	0.00000E+000	5.90000E-001	9.86122E-004	4	..........a	-327.66
	259	52	5.80019E-001	-7.83732E-011	0.00000E+000	5.80000E-001	1.02952E-003	4	..........a	-327.66
	260	52.2	5.69956E-001	-8.33854E-011	0.00000E+000	5.70000E-001	9.91522E-004	4	..........a	-327.66
	261	52.4	5.59941E-001	-8.72616E-011	0.00000E+000	5.60000E-001	9.88422E-004	4	..........a	-327.66
	262	52.6	5.49968E-001	-9.00117E-011	0.00000E+000	5.50000E-001	9.86422E-004	4	..........a	-327.66
	263	52.8	5.40011E-001	-9.39258E-011	0.00000E+000	5.40000E-001	9.99222E-004	4	..........a	-327.66
	264	53	5.29975E-001	-9.76789E-011	0.00000E+000	5.30000E-001	1.00612E-003	4	..........a	-327.66
	265	53.2	5.19946E-001	-9.94930E-011	0.00000E+000	5.20000E-001	9.91422E-004	4	..........a	-327.66
	266	53.4	5.09960E-001	-1.02806E-010	0.00000E+000	5.10000E-001	1.00182E-003	4	..........a	-327.66
	267	53.6	5.00040E-001	-1.03855E-010	0.00000E+000	5.00000E-001	9.84222E-004	4	..........a	-327.66
	268	53.8	4.89952E-001	-1.07734E-010	0.00000E+000	4.90000E-001	9.98722E-004	4	..........a	-327.66
	269	54	4.79968E-001	-1.09686E-010	0.00000E+000	4.80000E-001	9.87022E-004	4	..........a	-327.66
	270	54.2	4.69950E-001	-1.12248E-010	0.00000E+000	4.70000E-001	9.86222E-004	4	..........a	-327.66
	271	54.4	4.60015E-001	-1.14238E-010	0.00000E+000	4.60000E-001	1.00772E-003	4	..........a	-327.66
	272	54.6	4.50014E-001	-1.16502E-010	0.00000E+000	4.50000E-001	9.97622E-004	4	..........a	-327.66
	273	54.8	4.39969E-001	-1.18690E-010	0.00000E+000	4.40000E-001	9.83522E-004	4	..........a	-327.66
	274	55	4.29966E-001	-1.20569E-010	0.00000E+000	4.30000E-001	9.93722E-004	4	..........a	-327.66
	275	55.2	4.20024E-001	-1.22854E-010	0.00000E+000	4.20000E-001	1.00662E-003	4	..........a	-327.66
	276	55.4	4.09949E-001	-1.24636E-010	0.00000E+000	4.10000E-001	1.00322E-003	4	..........a	-327.66
	277	55.6	3.99974E-001	-1.27387E-010	0.00000E+000	4.00000E-001	1.00842E-003	4	..........a	-327.66
	278	55.8	3.89962E-001	-1.28615E-010	0.00000E+000	3.90000E-001	9.93122E-004	4	..........a	-327.66
	279	56	3.80009E-001	-1.31296E-010	0.00000E+000	3.80000E-001	1.00222E-003	4	..........a	-327.66
	280	56.2	3.70007E-001	-1.32654E-010	0.00000E+000	3.70000E-001	1.00242E-003	4	..........a	-327.66
	281	56.4	3.59893E-001	-1.34623E-010	0.00000E+000	3.60000E-001	1.00982E-003	4	..........a	-327.66
	282	56.6	3.49962E-001	-1.36379E-010	0.00000E+000	3.50000E-001	1.00792E-003	4	..........a	-327.66
	283	56.8	3.40044E-001	-1.37969E-010	0.00000E+000	3.40000E-001	9.84322E-004	4	..........a	-327.66
	284	57	3.30014E-001	-1.39471E-010	0.00000E+000	3.30000E-001	9.89122E-004	4	..........a	-327.66
	285	57.2	3.19903E-001	-1.40999E-010	0.00000E+000	3.20000E-001	9.89322E-004	4	..........a	-327.66
	286	57.4	3.09973E-001	-1.42510E-010	0.00000E+000	3.10000E-001	9.90822E-004	4	..........a	-327.66
	287	57.6	2.99995E-001	-1.44270E-010	0.00000E+000	3.00000E-001	9.99622E-004	4	..........a	-327.66
	288	57.8	2.90001E-001	-1.44016E-010	0.00000E+000	2.90000E-001	9.88022E-004	4	..........a	-327.66
	289	58	2.79967E-001	-1.45612E-010	0.00000E+000	2.80000E-001	1.00832E-003	4	..........a	-327.66
	290	58.2	2.69992E-001	-1.45843E-010	0.00000E+000	2.70000E-001	9.84222E-004	4	..........a	-327.66
	291	58.4	2.60006E-001	-1.46564E-010	0.00000E+000	2.60000E-001	1.01612E-003	4	..........a	-327.66
	292	58.6	2.50038E-001	-1.46350E-010	0.00000E+000	2.50000E-001	1.01202E-003	4	..........a	-327.66
	293	58.8	2.39970E-001	-1.47340E-010	0.00000E+000	2.40000E-001	9.96222E-004	4	..........a	-327.66
	294	59	2.29970E-001	-1.47157E-010	0.00000E+000	2.30000E-001	9.98322E-004	4	..........a	-327.66
	295	59.2	2.20006E-001	-1.46743E-010	0.00000E+000	2.20000E-001	9.90822E-004	4	..........a	-327.66
	296	59.4	2.10000E-001	-1.46293E-010	0.00000E+000	2.10000E-001	1.00172E-003	4	..........a	-327.66
	297	59.6	1.99999E-001	-1.45833E-010	0.00000E+000	2.00000E-001	9.95222E-004	4	..........a	-327.66
	298	59.8	1.90022E-001	-1.44915E-010	0.00000E+000	1.90000E-001	9.97922E-004	4	..........a	-327.66
	299	60	1.80037E-001	-1.44486E-010	0.00000E+000	1.80000E-001	1.01592E-003	4	..........a	-327.66
	300	60.2	1.70079E-001	-1.43895E-010	0.00000E+000	1.70000E-001	9.97422E-004	4	..........a	-327.66
	301	60.4	1.59958E-001	-1.43313E-010	0.00000E+000	1.60000E-001	9.98222E-004	4	..........a	-327.66
	302	60.6	1.50000E-001	-1.42145E-010	0.00000E+000	1.50000E-001	1.00602E-003	4	..........a	-327.66
	303	60.8	1.40075E-001	-1.42320E-010	0.00000E+000	1.40000E-001	1.01502E-003	4	..........a	-327.66
	304	61	1.30059E-001	-1.41384E-010	0.00000E+000	1.30000E-001	9.84622E-004	4	..........a	-327.66
	305	61.2	1.19997E-001	-1.41677E-010	0.00000E+000	1.20000E-001	9.85622E-004	4	..........a	-327.66
	306	61.4	1.10029E-001	-1.41423E-010	0.00000E+000	1.10000E-001	9.93722E-004	4	..........a	-327.66
	307	61.6	9.99927E-002	-1.41750E-010	0.00000E+000	1.00000E-001	1.01862E-003	4	..........a	-327.66
	308	61.8	9.00329E-002	-1.41860E-010	0.00000E+000	9.00000E-002	9.86122E-004	4	..........a	-327.66
	309	62	7.99328E-002	-1.43168E-010	0.00000E+000	8.00000E-002	9.90522E-004	4	..........a	-327.66
	310	62.2	6.99706E-002	-1.42890E-010	0.00000E+000	7.00000E-002	1.01552E-003	4	..........a	-327.66
	311	62.4	6.00488E-002	-1.44398E-010	0.00000E+000	6.00000E-002	9.88822E-004	4	..........a	-327.66
	312	62.6	5.00480E-002	-1.45222E-010	0.00000E+000	5.00000E-002	1.01282E-003	4	..........a	-327.66
	313	62.8	4.00094E-002	-1.46907E-010	0.00000E+000	4.00000E-002	9.94422E-004	4	..........a	-327.66
	314	63	3.00059E-002	-1.48348E-010	0.00000E+000	3.00000E-002	1.02192E-003	4	..........a	-327.66
	315	63.2	1.99919E-002	-1.49533E-010	0.00000E+000	2.00000E-002	1.01922E-003	4	..........a	-327.66
	316	63.4	1.00698E-002	-1.51274E-010	0.00000E+000	1.00000E-002	9.81022E-004	4	..........a	-327.66
	317	63.6	4.64908E-005	-1.53874E-010	0.00000E+000	7.45058E-009	9.97722E-004	4	..........a	-327.66
	318	63.8	-1.00030E-002	-1.56164E-010	0.00000E+000	-1.00000E-002	1.01792E-003	4	..........a	-327.66
	319	64	-1.99446E-002	-1.59506E-010	0.00000E+000	-2.00000E-002	1.01292E-003	4	..........a	-327.66
	320	64.2	-2.99761E-002	-1.62285E-010	0.00000E+000	-3.00000E-002	1.01182E-003	4	..........a	-327.66
	321	64.4	-3.99590E-002	-1.65937E-010	0.00000E+000	-4.00000E-002	1.01072E-003	4	..........a	-327.66
	322	64.6	-4.99912E-002	-1.69600E-010	0.00000E+000	-5.00000E-002	9.98022E-004	4	..........a	-327.66
	323	64.8	-5.99469E-002	-1.73077E-010	0.00000E+000	-6.00000E-002	1.01462E-003	4	..........a	-327.66
	324	65	-6.99685E-002	-1.77605E-010	0.00000E+000	-7.00000E-002	9.98922E-004	4	..........a	-327.66
	325	65.2	-8.00034E-002	-1.82241E-010	0.00000E+000	-8.00000E-002	1.00362E-003	4	..........a	-327.66
	326	65.4	-8.99876E-002	-1.87317E-010	0.00000E+000	-9.00000E-002	9.98122E-004	4	..........a	-327.66
	327	65.6	-9.99782E-002	-1.92411E-010	0.00000E+000	-1.00000E-001	1.02272E-003	4	..........a	-327.66
	328	65.8	-1.09971E-001	-1.97426E-010	0.00000E+000	-1.10000E-001	9.96122E-004	4	..........a	-327.66
	329	66	-1.20015E-001	-2.03136E-010	0.00000E+000	-1.20000E-001	1.01642E-003	4	..........a	-327.66
	330	66.2	-1.30030E-001	-2.09450E-010	0.00000E+000	-1.30000E-001	9.78022E-004	4	..........a	-327.66
	331	66.4	-1.39915E-001	-2.15141E-010	0.00000E+000	-1.40000E-001	1.01402E-003	4	..........a	-327.66
	332	66.6	-1.49984E-001	-2.22679E-010	0.00000E+000	-1.50000E-001	9.68322E-004	4	..........a	-327.66
	333	66.8	-1.59943E-001	-2.29561E-010	0.00000E+000	-1.60000E-001	9.97022E-004	4	..........a	-327.66
	334	67	-1.69960E-001	-2.36382E-010	0.00000E+000	-1.70000E-001	9.86322E-004	4	..........a	-327.66
	335	67.2	-1.79943E-001	-2.44149E-010	0.00000E+000	-1.80000E-001	1.00822E-003	4	..........a	-327.66
	336	67.4	-1.89995E-001	-2.52734E-010	0.00000E+000	-1.90000E-001	9.81622E-004	4	..........a	-327.66
	337	67.6	-2.00067E-001	-2.62413E-010	0.00000E+000	-2.00000E-001	9.95222E-004	4	..........a	-327.66
	338	67.8	-2.09925E-001	-2.71087E-010	0.00000E+000	-2.10000E-001	1.00302E-003	4	..........a	-327.66
	339	68	-2.19914E-001	-2.85233E-010	0.00000E+000	-2.20000E-001	1.01232E-003	4	..........a	-327.66
	340	68.2	-2.29895E-001	-2.94376E-010	0.00000E+000	-2.30000E-001	1.00122E-003	4	..........a	-327.66
	341	68.4	-2.39864E-001	-3.05188E-010	0.00000E+000	-2.40000E-001	1.00792E-003	4	..........a	-327.66
	342	68.6	-2.49908E-001	-3.19242E-010	0.00000E+000	-2.50000E-001	9.93522E-004	4	..........a	-327.66
	343	68.8	-2.59846E-001	-3.30630E-010	0.00000E+000	-2.60000E-001	1.00942E-003	4	..........a	-327.66
	344	69	-2.69890E-001	-3.47656E-010	0.00000E+000	-2.70000E-001	1.00252E-003	4	..........a	-327.66
	345	69.2	-2.79876E-001	-3.63506E-010	0.00000E+000	-2.80000E-001	1.00462E-003	4	..........a	-327.66
	346	69.4	-2.89916E-001	-3.82490E-010	0.00000E+000	-2.90000E-001	9.91422E-004	4	..........a	-327.66
	347	69.6	-2.99867E-001	-4.00156E-010	0.00000E+000	-3.00000E-001	1.01052E-003	4	..........a	-327.66
	348	69.8	-3.09877E-001	-4.22001E-010	0.00000E+000	-3.10000E-001	1.00332E-003	4	..........a	-327.66
	349	70	-3.19896E-001	-4.43136E-010	0.00000E+000	-3.20000E-001	1.00092E-003	4	..........a	-327.66
	350	70.2	-3.29904E-001	-4.64421E-010	0.00000E+000	-3.30000E-001	9.96522E-004	4	..........a	-327.66
	351	70.4	-3.39882E-001	-4.88087E-010	0.00000E+000	-3.40000E-001	1.00902E-003	4	..........a	-327.66
	352	70.6	-3.49891E-001	-5.14695E-010	0.00000E+000	-3.50000E-001	9.86722E-004	4	..........a	-327.66
	353	70.8	-3.59933E-001	-5.42870E-010	0.00000E+000	-3.60000E-001	9.99522E-004	4	..........a	-327.66
[...]
	921	184.4	-4.39897E-001	-9.25902E-010	0.00000E+000	-4.40000E-001	1.00312E-003	4	..........a	-327.66
	922	184.6	-4.49850E-001	-9.70463E-010	0.00000E+000	-4.50000E-001	9.85922E-004	4	..........a	-327.66
	923	184.8	-4.59851E-001	-1.01823E-009	0.00000E+000	-4.60000E-001	1.00032E-003	4	..........a	-327.66
	924	185	-4.69844E-001	-1.06982E-009	0.00000E+000	-4.70000E-001	9.93522E-004	4	..........a	-327.66
	925	185.2	-4.79866E-001	-1.12470E-009	0.00000E+000	-4.80000E-001	9.89822E-004	4	..........a	-327.66
	926	185.4	-4.89874E-001	-1.18258E-009	0.00000E+000	-4.90000E-001	1.00862E-003	4	..........a	-327.66
	927	185.6	-4.99859E-001	-1.24343E-009	0.00000E+000	-5.00000E-001	1.00502E-003	4	..........a	-327.66
	928	185.8	-5.09835E-001	-1.31182E-009	0.00000E+000	-5.10000E-001	9.97622E-004	4	..........a	-327.66
	929	186	-5.19867E-001	-1.37975E-009	0.00000E+000	-5.20000E-001	1.00792E-003	4	..........a	-327.66
	930	186.2	-5.29844E-001	-1.45483E-009	0.00000E+000	-5.30000E-001	1.01042E-003	4	..........a	-327.66
	931	186.4	-5.39899E-001	-1.53559E-009	0.00000E+000	-5.40000E-001	9.79422E-004	4	..........a	-327.66
	932	186.6	-5.49927E-001	-1.62225E-009	0.00000E+000	-5.50000E-001	9.88622E-004	4	..........a	-327.66
	933	186.8	-5.59887E-001	-1.71506E-009	0.00000E+000	-5.60000E-001	9.99122E-004	4	..........a	-327.66
	934	187	-5.69929E-001	-1.81784E-009	0.00000E+000	-5.70000E-001	9.94522E-004	4	..........a	-327.66
	935	187.2	-5.79825E-001	-1.92299E-009	0.00000E+000	-5.80000E-001	9.88522E-004	4	..........a	-327.66
	936	187.4	-5.89838E-001	-2.04229E-009	0.00000E+000	-5.90000E-001	1.00062E-003	4	..........a	-327.66
	937	187.6	-5.99869E-001	-2.16970E-009	0.00000E+000	-6.00000E-001	9.96522E-004	4	..........a	-327.66
	938	187.8	-5.89813E-001	-1.85002E-009	0.00000E+000	-5.90000E-001	9.87222E-004	4	..........a	-327.66
	939	188	-5.79837E-001	-1.63186E-009	0.00000E+000	-5.80000E-001	9.99822E-004	4	..........a	-327.66
	940	188.2	-5.69901E-001	-1.46691E-009	0.00000E+000	-5.70000E-001	1.01182E-003	4	..........a	-327.66
	941	188.4	-5.59862E-001	-1.33004E-009	0.00000E+000	-5.60000E-001	9.92522E-004	4	..........a	-327.66
	942	188.6	-5.49849E-001	-1.21125E-009	0.00000E+000	-5.50000E-001	9.98122E-004	4	..........a	-327.66
	943	188.8	-5.39852E-001	-1.10478E-009	0.00000E+000	-5.40000E-001	1.00412E-003	4	..........a	-327.66
	944	189	-5.29875E-001	-1.00807E-009	0.00000E+000	-5.30000E-001	1.00662E-003	4	..........a	-327.66
	945	189.2	-5.19936E-001	-9.24140E-010	0.00000E+000	-5.20000E-001	1.00892E-003	4	..........a	-327.66
	946	189.4	-5.09848E-001	-8.40589E-010	0.00000E+000	-5.10000E-001	9.95922E-004	4	..........a	-327.66
	947	189.6	-4.99863E-001	-7.65700E-010	0.00000E+000	-5.00000E-001	1.01602E-003	4	..........a	-327.66
	948	189.8	-4.89941E-001	-6.96132E-010	0.00000E+000	-4.90000E-001	1.00042E-003	4	..........a	-327.66
	949	190	-4.79863E-001	-6.31509E-010	0.00000E+000	-4.80000E-001	9.99122E-004	4	..........a	-327.66
	950	190.2	-4.69833E-001	-5.71066E-010	0.00000E+000	-4.70000E-001	9.68122E-004	4	..........a	-327.66
	951	190.4	-4.59855E-001	-5.13928E-010	0.00000E+000	-4.60000E-001	9.99522E-004	4	..........a	-327.66
	952	190.6	-4.49871E-001	-4.60638E-010	0.00000E+000	-4.50000E-001	9.85922E-004	4	..........a	-327.66
	953	190.8	-4.39909E-001	-4.12385E-010	0.00000E+000	-4.40000E-001	1.02342E-003	4	..........a	-327.66
	954	191	-4.29860E-001	-3.65085E-010	0.00000E+000	-4.30000E-001	9.82322E-004	4	..........a	-327.66
	955	191.2	-4.19822E-001	-3.20164E-010	0.00000E+000	-4.20000E-001	1.00762E-003	4	..........a	-327.66
	956	191.4	-4.09921E-001	-2.82706E-010	0.00000E+000	-4.10000E-001	9.96222E-004	4	..........a	-327.66
	957	191.6	-3.99888E-001	-2.42239E-010	0.00000E+000	-4.00000E-001	1.00042E-003	4	..........a	-327.66
	958	191.8	-3.89961E-001	-2.06348E-010	0.00000E+000	-3.90000E-001	1.01472E-003	4	..........a	-327.66
	959	192	-3.79926E-001	-1.73149E-010	0.00000E+000	-3.80000E-001	1.02362E-003	4	..........a	-327.66
	960	192.2	-3.69947E-001	-1.41495E-010	0.00000E+000	-3.70000E-001	9.94022E-004	4	..........a	-327.66
	961	192.4	-3.59938E-001	-1.12802E-010	0.00000E+000	-3.60000E-001	1.02642E-003	4	..........a	-327.66
	962	192.6	-3.49905E-001	-8.55115E-011	0.00000E+000	-3.50000E-001	9.81622E-004	4	..........a	-327.66
	963	192.8	-3.39940E-001	-5.99175E-011	0.00000E+000	-3.40000E-001	1.00512E-003	4	..........a	-327.66
	964	193	-3.29949E-001	-3.73476E-011	0.00000E+000	-3.30000E-001	1.00512E-003	4	..........a	-327.66
	965	193.2	-3.19922E-001	-1.50938E-011	0.00000E+000	-3.20000E-001	9.97322E-004	4	..........a	-327.66
	966	193.4	-3.09904E-001	5.42901E-012	0.00000E+000	-3.10000E-001	1.01072E-003	4	..........a	-327.66
	967	193.6	-2.99878E-001	2.75119E-011	0.00000E+000	-3.00000E-001	1.01582E-003	4	..........a	-327.66
	968	193.8	-2.89967E-001	4.26454E-011	0.00000E+000	-2.90000E-001	1.00072E-003	4	..........a	-327.66
	969	194	-2.79926E-001	5.80960E-011	0.00000E+000	-2.80000E-001	9.84722E-004	4	..........a	-327.66
	970	194.2	-2.69890E-001	7.42307E-011	0.00000E+000	-2.70000E-001	9.97022E-004	4	..........a	-327.66
	971	194.4	-2.59891E-001	8.78522E-011	0.00000E+000	-2.60000E-001	9.96522E-004	4	..........a	-327.66
	972	194.6	-2.49957E-001	9.93856E-011	0.00000E+000	-2.50000E-001	9.99022E-004	4	..........a	-327.66
	973	194.8	-2.39971E-001	1.10603E-010	0.00000E+000	-2.40000E-001	9.83922E-004	4	..........a	-327.66
	974	195	-2.29963E-001	1.21598E-010	0.00000E+000	-2.30000E-001	9.96522E-004	4	..........a	-327.66
	975	195.2	-2.19895E-001	1.27679E-010	0.00000E+000	-2.20000E-001	1.00792E-003	4	..........a	-327.66
	976	195.4	-2.09962E-001	1.35571E-010	0.00000E+000	-2.10000E-001	1.01622E-003	4	..........a	-327.66
	977	195.6	-1.99951E-001	1.41345E-010	0.00000E+000	-2.00000E-001	1.01572E-003	4	..........a	-327.66
	978	195.8	-1.90108E-001	1.46722E-010	0.00000E+000	-1.90000E-001	9.98722E-004	4	..........a	-327.66
	979	196	-1.79958E-001	1.51993E-010	0.00000E+000	-1.80000E-001	1.01812E-003	4	..........a	-327.66
	980	196.2	-1.69959E-001	1.57083E-010	0.00000E+000	-1.70000E-001	1.00092E-003	4	..........a	-327.66
	981	196.4	-1.59971E-001	1.54942E-010	0.00000E+000	-1.60000E-001	1.01302E-003	4	..........a	-327.66
	982	196.6	-1.49945E-001	1.56390E-010	0.00000E+000	-1.50000E-001	1.00762E-003	4	..........a	-327.66
	983	196.8	-1.39853E-001	1.61448E-010	0.00000E+000	-1.40000E-001	1.00412E-003	4	..........a	-327.66
	984	197	-1.30037E-001	1.61474E-010	0.00000E+000	-1.30000E-001	1.00182E-003	4	..........a	-327.66
	985	197.2	-1.19924E-001	1.61583E-010	0.00000E+000	-1.20000E-001	1.00732E-003	4	..........a	-327.66
	986	197.4	-1.09962E-001	1.59382E-010	0.00000E+000	-1.10000E-001	1.00432E-003	4	..........a	-327.66
	987	197.6	-9.99622E-002	1.59553E-010	0.00000E+000	-1.00000E-001	1.01332E-003	4	..........a	-327.66
	988	197.8	-8.99494E-002	1.62035E-010	0.00000E+000	-9.00000E-002	9.92522E-004	4	..........a	-327.66
	989	198	-7.99202E-002	1.61574E-010	0.00000E+000	-8.00000E-002	9.94822E-004	4	..........a	-327.66
	990	198.2	-6.99366E-002	1.58887E-010	0.00000E+000	-7.00000E-002	9.74722E-004	4	..........a	-327.66
	991	198.4	-5.99664E-002	1.58005E-010	0.00000E+000	-6.00000E-002	1.01022E-003	4	..........a	-327.66
	992	198.6	-4.99892E-002	1.58245E-010	0.00000E+000	-5.00000E-002	1.01692E-003	4	..........a	-327.66
	993	198.8	-3.99178E-002	1.60642E-010	0.00000E+000	-4.00000E-002	1.01392E-003	4	..........a	-327.66
	994	199	-2.99914E-002	1.60814E-010	0.00000E+000	-3.00000E-002	1.01182E-003	4	..........a	-327.66
	995	199.2	-1.99407E-002	1.56970E-010	0.00000E+000	-2.00000E-002	1.02652E-003	4	..........a	-327.66
	996	199.4	-9.98761E-003	1.57882E-010	0.00000E+000	-1.00000E-002	9.90422E-004	4	..........a	-327.66
	997	199.6	8.32908E-005	1.60372E-010	0.00000E+000	7.45058E-009	1.00142E-003	4	..........a	-327.66
	998	199.8	1.00923E-002	1.60485E-010	0.00000E+000	1.00000E-002	9.96122E-004	4	..........a	-327.66
	999	200	2.01083E-002	1.60578E-010	0.00000E+000	2.00000E-002	9.91022E-004	4	..........a	-327.66
	1000	200.2	3.00216E-002	1.57407E-010	0.00000E+000	3.00000E-002	1.01852E-003	4	..........a	-327.66
	1001	200.4	3.98083E-002	1.60875E-010	0.00000E+000	4.00000E-002	9.86822E-004	4	..........a	-327.66
	1002	200.6	5.00859E-002	1.60912E-010	0.00000E+000	5.00000E-002	9.90822E-004	4	..........a	-327.66
	1003	200.8	6.01091E-002	1.62108E-010	0.00000E+000	6.00000E-002	1.02262E-003	4	..........a	-327.66
	1004	201	6.99789E-002	1.60581E-010	0.00000E+000	7.00000E-002	1.02142E-003	4	..........a	-327.66
	1005	201.2	8.00117E-002	1.61671E-010	0.00000E+000	8.00000E-002	9.88822E-004	4	..........a	-327.66
	1006	201.4	9.00962E-002	1.64773E-010	0.00000E+000	9.00000E-002	9.94822E-004	4	..........a	-327.66
	1007	201.6	1.00076E-001	1.66385E-010	0.00000E+000	1.00000E-001	1.02212E-003	4	..........a	-327.66
	1008	201.8	1.10079E-001	1.68085E-010	0.00000E+000	1.10000E-001	9.91822E-004	4	..........a	-327.66
	1009	202	1.20010E-001	1.69515E-010	0.00000E+000	1.20000E-001	9.97022E-004	4	..........a	-327.66
	1010	202.2	1.30101E-001	1.72300E-010	0.00000E+000	1.30000E-001	9.84022E-004	4	..........a	-327.66
	1011	202.4	1.40110E-001	1.75707E-010	0.00000E+000	1.40000E-001	1.00312E-003	4	..........a	-327.66
	1012	202.6	1.50017E-001	1.78555E-010	0.00000E+000	1.50000E-001	9.92022E-004	4	..........a	-327.66
	1013	202.8	1.60037E-001	1.83515E-010	0.00000E+000	1.60000E-001	9.96822E-004	4	..........a	-327.66
	1014	203	1.70094E-001	1.85217E-010	0.00000E+000	1.70000E-001	9.83922E-004	4	..........a	-327.66
	1015	203.2	1.80079E-001	1.89458E-010	0.00000E+000	1.80000E-001	9.99522E-004	4	..........a	-327.66
	1016	203.4	1.90063E-001	1.93784E-010	0.00000E+000	1.90000E-001	9.97322E-004	4	..........a	-327.66
	1017	203.6	2.00040E-001	1.96677E-010	0.00000E+000	2.00000E-001	1.01502E-003	4	..........a	-327.66
	1018	203.8	2.10032E-001	2.00742E-010	0.00000E+000	2.10000E-001	9.70722E-004	4	..........a	-327.66
	1019	204	2.19785E-001	2.04291E-010	0.00000E+000	2.20000E-001	9.98922E-004	4	..........a	-327.66
	1020	204.2	2.29981E-001	2.07993E-010	0.00000E+000	2.30000E-001	1.02152E-003	4	..........a	-327.66
	1021	204.4	2.40034E-001	2.10886E-010	0.00000E+000	2.40000E-001	1.01072E-003	4	..........a	-327.66
	1022	204.6	2.50036E-001	2.13545E-010	0.00000E+000	2.50000E-001	1.02632E-003	4	..........a	-327.66
	1023	204.8	2.60040E-001	2.17059E-010	0.00000E+000	2.60000E-001	1.02682E-003	4	..........a	-327.66
	1024	205	2.69992E-001	2.18804E-010	0.00000E+000	2.70000E-001	1.00412E-003	4	..........a	-327.66
	1025	205.2	2.80001E-001	2.20876E-010	0.00000E+000	2.80000E-001	1.00722E-003	4	..........a	-327.66
	1026	205.4	2.90034E-001	2.22889E-010	0.00000E+000	2.90000E-001	1.00202E-003	4	..........a	-327.66
	1027	205.6	3.00018E-001	2.23941E-010	0.00000E+000	3.00000E-001	1.01372E-003	4	..........a	-327.66
	1028	205.8	3.09992E-001	2.25745E-010	0.00000E+000	3.10000E-001	1.02032E-003	4	..........a	-327.66
	1029	206	3.19994E-001	2.26328E-010	0.00000E+000	3.20000E-001	1.00212E-003	4	..........a	-327.66
	1030	206.2	3.30066E-001	2.27200E-010	0.00000E+000	3.30000E-001	1.00842E-003	4	..........a	-327.66
	1031	206.4	3.40044E-001	2.28386E-010	0.00000E+000	3.40000E-001	1.00432E-003	4	..........a	-327.66
	1032	206.6	3.49971E-001	2.29051E-010	0.00000E+000	3.50000E-001	9.98322E-004	4	..........a	-327.66
	1033	206.8	3.59957E-001	2.28640E-010	0.00000E+000	3.60000E-001	1.02812E-003	4	..........a	-327.66
	1034	207	3.70025E-001	2.28978E-010	0.00000E+000	3.70000E-001	1.02132E-003	4	..........a	-327.66
	1035	207.2	3.80006E-001	2.28551E-010	0.00000E+000	3.80000E-001	1.00812E-003	4	..........a	-327.66
	1036	207.4	3.89986E-001	2.28793E-010	0.00000E+000	3.90000E-001	1.02082E-003	4	..........a	-327.66
	1037	207.6	4.00015E-001	2.28318E-010	0.00000E+000	4.00000E-001	1.00662E-003	4	..........a	-327.66
	1038	207.8	4.09997E-001	2.27872E-010	0.00000E+000	4.10000E-001	9.94522E-004	4	..........a	-327.66
	1039	208	4.20032E-001	2.27792E-010	0.00000E+000	4.20000E-001	1.01352E-003	4	..........a	-327.66
	1040	208.2	4.29957E-001	2.27519E-010	0.00000E+000	4.30000E-001	9.94722E-004	4	..........a	-327.66
	1041	208.4	4.39954E-001	2.26336E-010	0.00000E+000	4.40000E-001	1.01032E-003	4	..........a	-327.66
	1042	208.6	4.49486E-001	2.25655E-010	0.00000E+000	4.50000E-001	1.01202E-003	4	..........a	-327.66
	1043	208.8	4.59993E-001	2.25559E-010	0.00000E+000	4.60000E-001	1.02492E-003	4	..........a	-327.66
	1044	209	4.69981E-001	2.25675E-010	0.00000E+000	4.70000E-001	1.00952E-003	4	..........a	-327.66
	1045	209.2	4.79960E-001	2.24893E-010	0.00000E+000	4.80000E-001	1.01452E-003	4	..........a	-327.66
	1046	209.4	4.89999E-001	2.25491E-010	0.00000E+000	4.90000E-001	9.97822E-004	4	..........a	-327.66
	1047	209.6	5.00007E-001	2.25458E-010	0.00000E+000	5.00000E-001	1.01602E-003	4	..........a	-327.66
	1048	209.8	5.09953E-001	2.25975E-010	0.00000E+000	5.10000E-001	1.01472E-003	4	..........a	-327.66
	1049	210	5.19968E-001	2.26679E-010	0.00000E+000	5.20000E-001	1.01712E-003	4	..........a	-327.66
	1050	210.2	5.30050E-001	2.27862E-010	0.00000E+000	5.30000E-001	1.00632E-003	4	..........a	-327.66
	1051	210.4	5.39985E-001	2.28829E-010	0.00000E+000	5.40000E-001	1.00852E-003	4	..........a	-327.66
	1052	210.6	5.49980E-001	2.31432E-010	0.00000E+000	5.50000E-001	1.01192E-003	4	..........a	-327.66
	1053	210.8	5.59930E-001	2.33089E-010	0.00000E+000	5.60000E-001	1.00562E-003	4	..........a	-327.66
	1054	211	5.69967E-001	2.35776E-010	0.00000E+000	5.70000E-001	9.85022E-004	4	..........a	-327.66
	1055	211.2	5.79954E-001	2.37773E-010	0.00000E+000	5.80000E-001	1.01412E-003	4	..........a	-327.66
	1056	211.4	5.89952E-001	2.41122E-010	0.00000E+000	5.90000E-001	1.00602E-003	4	..........a	-327.66
	1057	211.6	5.99851E-001	2.43857E-010	0.00000E+000	6.00000E-001	1.00702E-003	4	..........a	-327.66
	1058	211.8	6.09978E-001	2.48044E-010	0.00000E+000	6.10000E-001	9.94822E-004	4	..........a	-327.66
	1059	212	6.19966E-001	2.52158E-010	0.00000E+000	6.20000E-001	1.01932E-003	4	..........a	-327.66
	1060	212.2	6.29885E-001	2.56964E-010	0.00000E+000	6.30000E-001	9.90722E-004	4	..........a	-327.66
	1061	212.4	6.39877E-001	2.61811E-010	0.00000E+000	6.40000E-001	9.98922E-004	4	..........a	-327.66
	1062	212.6	6.49936E-001	2.66915E-010	0.00000E+000	6.50000E-001	1.00552E-003	4	..........a	-327.66
	1063	212.8	6.59984E-001	2.73874E-010	0.00000E+000	6.60000E-001	1.03132E-003	4	..........a	-327.66
	1064	213	6.69902E-001	2.80376E-010	0.00000E+000	6.70000E-001	1.02392E-003	4	..........a	-327.66
	1065	213.2	6.79987E-001	2.88133E-010	0.00000E+000	6.80000E-001	1.02072E-003	4	..........a	-327.66
	1066	213.4	6.89925E-001	2.95883E-010	0.00000E+000	6.90000E-001	9.96222E-004	4	..........a	-327.66
	1067	213.6	6.99983E-001	3.05266E-010	0.00000E+000	7.00000E-001	1.00432E-003	4	..........a	-327.66
	1068	213.8	7.09894E-001	3.14992E-010	0.00000E+000	7.10000E-001	1.00422E-003	4	..........a	-327.66
	1069	214	7.19912E-001	3.26094E-010	0.00000E+000	7.20000E-001	1.00992E-003	4	..........a	-327.66
	1070	214.2	7.29922E-001	3.38526E-010	0.00000E+000	7.30000E-001	9.88922E-004	4	..........a	-327.66
	1071	214.4	7.40012E-001	3.52424E-010	0.00000E+000	7.40000E-001	1.02082E-003	4	..........a	-327.66
	1072	214.6	7.49927E-001	3.67483E-010	0.00000E+000	7.50000E-001	1.00222E-003	4	..........a	-327.66
	1073	214.8	7.59903E-001	3.84714E-010	0.00000E+000	7.60000E-001	1.00442E-003	4	..........a	-327.66
	1074	215	7.69912E-001	4.03682E-010	0.00000E+000	7.70000E-001	1.01142E-003	4	..........a	-327.66
	1075	215.2	7.79956E-001	4.25588E-010	0.00000E+000	7.80000E-001	9.96622E-004	4	..........a	-327.66
	1076	215.4	7.89925E-001	4.49027E-010	0.00000E+000	7.90000E-001	9.99822E-004	4	..........a	-327.66
	1077	215.6	7.99948E-001	4.76162E-010	0.00000E+000	8.00000E-001	1.02312E-003	4	..........a	-327.66
CURVE5	TABLE
	Pt	T	Vf	Im	Vu	Sig	Ach	IERange	Over	Temp
	#	s	V vs. Ref.	A	V	V	V	#	bits	deg C
	1078	215.8	7.89847E-001	3.20446E-010	0.00000E+000	7.90000E-001	9.94322E-004	4	..........a	-327.66
	1079	216	7.79992E-001	2.30111E-010	0.00000E+000	7.80000E-001	1.00322E-003	4	..........a	-327.66
	1080	216.2	7.69968E-001	1.67098E-010	0.00000E+000	7.70000E-001	1.00772E-003	4	..........a	-327.66
	1081	216.4	7.59892E-001	1.23586E-010	0.00000E+000	7.60000E-001	1.01462E-003	4	..........a	-327.66
	1082	216.6	7.49952E-001	8.69071E-011	0.00000E+000	7.50000E-001	1.00012E-003	4	..........a	-327.66
	1083	216.8	7.40015E-001	5.84610E-011	0.00000E+000	7.40000E-001	9.97722E-004	4	..........a	-327.66
	1084	217	7.29938E-001	3.70782E-011	0.00000E+000	7.30000E-001	9.98022E-004	4	..........a	-327.66
	1085	217.2	7.19958E-001	1.96156E-011	0.00000E+000	7.20000E-001	1.00852E-003	4	..........a	-327.66
	1086	217.4	7.09888E-001	4.87999E-012	0.00000E+000	7.10000E-001	1.01162E-003	4	..........a	-327.66
	1087	217.6	6.99970E-001	-6.85446E-012	0.00000E+000	7.00000E-001	9.98622E-004	4	..........a	-327.66
	1088	217.8	6.89910E-001	-1.77559E-011	0.00000E+000	6.90000E-001	1.00262E-003	4	..........a	-327.66
	1089	218	6.79910E-001	-2.70452E-011	0.00000E+000	6.80000E-001	1.02022E-003	4	..........a	-327.66
	1090	218.2	6.69914E-001	-3.56516E-011	0.00000E+000	6.70000E-001	9.83722E-004	4	..........a	-327.66
	1091	218.4	6.60018E-001	-3.99367E-011	0.00000E+000	6.60000E-001	1.01352E-003	4	..........a	-327.66
	1092	218.6	6.49926E-001	-4.52489E-011	0.00000E+000	6.50000E-001	1.01322E-003	4	..........a	-327.66
	1093	218.8	6.39937E-001	-5.16142E-011	0.00000E+000	6.40000E-001	1.01522E-003	4	..........a	-327.66
	1094	219	6.29943E-001	-5.58793E-011	0.00000E+000	6.30000E-001	1.00672E-003	4	..........a	-327.66
	1095	219.2	6.20008E-001	-5.95955E-011	0.00000E+000	6.20000E-001	1.02092E-003	4	..........a	-327.66
	1096	219.4	6.09957E-001	-6.45177E-011	0.00000E+000	6.10000E-001	1.01562E-003	4	..........a	-327.66
	1097	219.6	5.99950E-001	-6.81648E-011	0.00000E+000	6.00000E-001	1.00712E-003	4	..........a	-327.66
	1098	219.8	5.89984E-001	-7.10359E-011	0.00000E+000	5.90000E-001	1.01082E-003	4	..........a	-327.66
	1099	220	5.80039E-001	-7.39230E-011	0.00000E+000	5.80000E-001	1.02202E-003	4	..........a	-327.66
	1100	220.2	5.69959E-001	-7.74582E-011	0.00000E+000	5.70000E-001	1.00202E-003	4	..........a	-327.66
	1101	220.4	5.59954E-001	-8.04613E-011	0.00000E+000	5.60000E-001	1.02472E-003	4	..........a	-327.66
	1102	220.6	5.49969E-001	-8.27244E-011	0.00000E+000	5.50000E-001	9.87822E-004	4	..........a	-327.66
	1103	220.8	5.40013E-001	-8.57835E-011	0.00000E+000	5.40000E-001	9.99522E-004	4	..........a	-327.66
	1104	221	5.30043E-001	-8.91966E-011	0.00000E+000	5.30000E-001	9.81422E-004	4	..........a	-327.66
	1105	221.2	5.19966E-001	-9.14747E-011	0.00000E+000	5.20000E-001	1.01432E-003	4	..........a	-327.66
	1106	221.4	5.09941E-001	-9.41808E-011	0.00000E+000	5.10000E-001	9.97022E-004	4	..........a	-327.66
	1107	221.6	5.00071E-001	-9.62339E-011	0.00000E+000	5.00000E-001	1.00852E-003	4	..........a	-327.66
	1108	221.8	4.89974E-001	-9.99280E-011	0.00000E+000	4.90000E-001	9.88722E-004	4	..........a	-327.66
	1109	222	4.79982E-001	-1.02469E-010	0.00000E+000	4.80000E-001	1.00322E-003	4	..........a	-327.66
	1110	222.2	4.69970E-001	-1.05592E-010	0.00000E+000	4.70000E-001	9.82622E-004	4	..........a	-327.66
	1111	222.4	4.60021E-001	-1.08250E-010	0.00000E+000	4.60000E-001	9.99522E-004	4	..........a	-327.66
	1112	222.6	4.49963E-001	-1.11218E-010	0.00000E+000	4.50000E-001	1.00892E-003	4	..........a	-327.66
	1113	222.8	4.39984E-001	-1.13872E-010	0.00000E+000	4.40000E-001	1.00912E-003	4	..........a	-327.66
	1114	223	4.29958E-001	-1.16400E-010	0.00000E+000	4.30000E-001	1.01302E-003	4	..........a	-327.66
	1115	223.2	4.20033E-001	-1.19132E-010	0.00000E+000	4.20000E-001	1.00882E-003	4	..........a	-327.66
	1116	223.4	4.09983E-001	-1.21940E-010	0.00000E+000	4.10000E-001	9.83522E-004	4	..........a	-327.66
	1117	223.6	4.00015E-001	-1.24888E-010	0.00000E+000	4.00000E-001	1.01342E-003	4	..........a	-327.66
	1118	223.8	3.89980E-001	-1.26828E-010	0.00000E+000	3.90000E-001	9.94622E-004	4	..........a	-327.66
	1119	224	3.80007E-001	-1.30526E-010	0.00000E+000	3.80000E-001	1.01142E-003	4	..........a	-327.66
	1120	224.2	3.70002E-001	-1.32234E-010	0.00000E+000	3.70000E-001	9.98922E-004	4	..........a	-327.66