File: data/raw/batch_data/20240509_ZZU_GM0016_HL03_E12_CV50.DTA
EXPLAIN
TAG	CV
TITLE	LABEL	Cyclic Voltammetry	Test &Identifier
DATE	LABEL	5/9/2024	Date
TIME	LABEL	14:55:41	Time
NOTES	NOTES	1	&Notes...

PSTAT	PSTAT	REF600P-43058	Potentiostat
VINIT	POTEN	0.00000E+000	T	Initial &E (V)
VLIMIT1	POTEN	8.00000E-001	F	Scan Limit &1 (V)
VLIMIT2	POTEN	-6.00000E-001	F	Scan Limit &2 (V)
VFINAL	POTEN	0.00000E+000	T	Final &E (V)
SCANRATE	QUANT	4.99999E+001	&Scan Rate (mV/s)
STEPSIZE	QUANT	1.00000E+001	St&ep Size (mV)
CYCLES	IQUANT	4	C&ycles (#)
IMODE	SELECTOR	0	I/E Range &Mode
IRANGE	QUANT	1.00000E-005	&Max Current (mA)
AREA	QUANT	1.00000E+000	Electrode &Area (cm^2)
ELECTRODETYPE	SELECTOR	0	Electrode Type
STRIPPING	TOGGLE	F	Used for Stripping
POLARITY	TOGGLE	F	Signal Polarity
CONDIT	TWOPARAM	F	1.50000E+001	0.00000E+000	Conditionin&g	Time(s)	E(V)
DELAY	TWOPARAM	T	1.00000E+001	0.00000E+000	Init. De&lay	Time(s)	Stab.(mV/s)
EQDELAY	QUANT	1.00000E+001	Equil. &Time (s)
IRCOMP	SELECTOR	0	IRCom&p
PFCOR	QUANT	5.00000E+001	PF Corr. (ohm)
SAMPLINGMODE	SELECTOR	1	Sampling &Mode
OCVCURVE	TABLE	39
	Pt	T	Vf	Vm	Ach	Over	Temp
	#	s	V vs. Ref.	V	V	bits	deg C
	0	0.258333	-5.50999E-002	-5.50999E-002	2.11192E-004	..........a	-327.66
	1	0.516667	-5.51036E-002	-5.52926E-002	2.10059E-004	..........a	-327.66
	2	0.775	-5.51264E-002	-5.54869E-002	2.04726E-004	..........a	-327.66
	3	1.03333	-5.51919E-002	-5.56859E-002	2.02459E-004	..........a	-327.66
	4	1.29167	-5.53117E-002	-5.58752E-002	2.05726E-004	..........a	-327.66
	5	1.55	-5.54751E-002	-5.60704E-002	1.98859E-004	..........a	-327.66
	6	1.80833	-5.56619E-002	-5.62480E-002	2.08526E-004	..........a	-327.66
	7	2.06667	-5.58547E-002	-5.64043E-002	2.05526E-004	..........a	-327.66
	8	2.325	-5.60432E-002	-5.65829E-002	2.08792E-004	..........a	-327.66
	9	2.58333	-5.62234E-002	-5.67389E-002	2.09792E-004	..........a	-327.66
	10	2.84167	-5.63962E-002	-5.69106E-002	2.19192E-004	..........a	-327.66
	11	3.1	-5.65647E-002	-5.70891E-002	2.14259E-004	..........a	-327.66
	12	3.35833	-5.67327E-002	-5.72753E-002	2.07126E-004	..........a	-327.66
	13	3.61667	-5.69037E-002	-5.74472E-002	2.12126E-004	..........a	-327.66
	14	3.875	-5.70787E-002	-5.76231E-002	2.19059E-004	..........a	-327.66
	15	4.13333	-5.72558E-002	-5.77967E-002	2.06859E-004	..........a	-327.66
	16	4.39167	-5.74328E-002	-5.79731E-002	1.94726E-004	..........a	-327.66
	17	4.65	-5.76088E-002	-5.81482E-002	2.02859E-004	..........a	-327.66
	18	4.90833	-5.77834E-002	-5.82836E-002	2.02192E-004	..........a	-327.66
	19	5.16667	-5.79543E-002	-5.84424E-002	2.07926E-004	..........a	-327.66
	20	5.425	-5.81190E-002	-5.86071E-002	1.99992E-004	..........a	-327.66
	21	5.68333	-5.82780E-002	-5.87599E-002	2.03259E-004	..........a	-327.66
	22	5.94167	-5.84349E-002	-5.89164E-002	2.11859E-004	..........a	-327.66
	23	6.2	-5.85915E-002	-5.90752E-002	2.11592E-004	..........a	-327.66
	24	6.45833	-5.87462E-002	-5.91186E-002	2.05259E-004	..........a	-327.66
	25	6.71667	-5.88896E-002	-5.91544E-002	2.14326E-004	..........a	-327.66
	26	6.975	-5.90081E-002	-5.92247E-002	2.15459E-004	..........a	-327.66
	27	7.23333	-5.90968E-002	-5.92982E-002	2.12526E-004	..........a	-327.66
	28	7.49167	-5.91668E-002	-5.94196E-002	1.95592E-004	..........a	-327.66
	29	7.75	-5.92364E-002	-5.95510E-002	2.15926E-004	..........a	-327.66
	30	8.00833	-5.93205E-002	-5.96977E-002	2.22726E-004	..........a	-327.66
	31	8.26667	-5.94255E-002	-5.98392E-002	2.04459E-004	..........a	-327.66
	32	8.525	-5.95488E-002	-5.99637E-002	2.13859E-004	..........a	-327.66
	33	8.78333	-5.96825E-002	-6.00888E-002	2.10792E-004	..........a	-327.66
	34	9.04167	-5.98182E-002	-6.02238E-002	2.06526E-004	..........a	-327.66
	35	9.3	-5.99514E-002	-6.03512E-002	2.08726E-004	..........a	-327.66
	36	9.5583	-6.00826E-002	-6.04958E-002	2.06659E-004	..........a	-327.66
	37	9.8167	-6.02142E-002	-6.06414E-002	2.00659E-004	..........a	-327.66
	38	10.075	-6.03492E-002	-6.08066E-002	2.06326E-004	..........a	-327.66
EOC	QUANT	-0.0603492	Open Circuit (V)
PSTATMODEL	IQUANT	7	Pstat Model
PSTATSECTION	LABEL	REF600P-43058	Pstat Section
PSTATSERIALNO	LABEL	43058	Pstat Serial Number
CTRLMODE	IQUANT	1	Control Mode
ELECTROMETER	IQUANT	0	RE=0 or CS=1
IESTAB	IQUANT	2	I/E Stability
CASPEED	IQUANT	4	Control Amp Speed
CONVENTION	IQUANT	1	Current Convention
ICHRANGE	IQUANT	2	Ich Range
ICHRANGEMODE	TOGGLE	F	Ich Auto Range
ICHOFFSETENABLE	TOGGLE	F	Ich Offset Enable
ICHOFFSET	QUANT	0	Ich Offset (V)
ICHFILTER	IQUANT	2	Ich Filter
VCHRANGE	IQUANT	2	Vch Range
VCHRANGEMODE	TOGGLE	F	Vch Auto Range
VCHOFFSETENABLE	TOGGLE	F	Vch Offset Enable
VCHOFFSET	QUANT	0	Vch Offset (V)
VCHFILTER	IQUANT	2	Vch Filter
ACHRANGE	IQUANT	2	Ach Range
ACHOFFSETENABLE	TOGGLE	F	Ach Offset Enable
ACHOFFSET	QUANT	0	Ach Offset (V)
ACHFILTER	IQUANT	1	Ach Filter
IERANGELOWERLIMIT	IQUANT	1	I/E Range Lower Limit
IERANGEMODE	TOGGLE	T	I/E AutoRange
IERANGE	IQUANT	4	I/E Range
POSFEEDENABLE	TOGGLE	F	Positive Feedback IR Comp
POSFEEDRESISTANCE	QUANT	0	Positive Feedback Resistance (ohm)
ACHSELECT	IQUANT	4	Ach Select
SENSECABLEID	IQUANT	7	Sense Cable ID
PWRCABLEID	IQUANT	7	Power Cable ID
DCCALDATE	LABEL	3/22/2024	DC Calibration Date
ACCALDATE	LABEL	3/22/2024	AC Calibration Date
THERMOSELECT	IQUANT	1	Thermo Select
FRAMEWORKVERSION	LABEL	7.8.4	Framework Version
INSTRUMENTVERSION	LABEL	4.42	Instrument Version
CURVE1	TABLE
	Pt	T	Vf	Im	Vu	Sig	Ach	IERange	Over	Temp
	#	s	V vs. Ref.	A	V	V	V	#	bits	deg C
	0	0.2	-6.02600E-002	2.04972E-009	0.00000E+000	-6.03500E-002	9.62492E-004	5	..........a	-327.66
	1	0.4	-5.02726E-002	1.08101E-008	0.00000E+000	-5.03500E-002	9.47392E-004	5	..........a	-327.66
	2	0.6	-4.02702E-002	1.68822E-008	0.00000E+000	-4.03500E-002	9.53092E-004	5	..........a	-327.66
	3	0.8	-3.03113E-002	2.20228E-008	0.00000E+000	-3.03500E-002	9.46292E-004	5	..........a	-327.66
	4	1	-2.03009E-002	2.66484E-008	0.00000E+000	-2.03500E-002	9.51992E-004	5	..........a	-327.66
	5	1.2	-1.02792E-002	3.09574E-008	0.00000E+000	-1.03500E-002	9.45592E-004	5	..........a	-327.66
	6	1.4	-3.06358E-004	3.49842E-008	0.00000E+000	-3.49998E-004	9.56892E-004	5	..........a	-327.66
	7	1.6	9.71619E-003	3.89614E-008	0.00000E+000	9.65001E-003	9.50092E-004	5	..........a	-327.66
	8	1.8	1.96776E-002	4.27849E-008	0.00000E+000	1.96500E-002	9.64992E-004	5	..........a	-327.66
	9	2	2.97660E-002	4.65552E-008	0.00000E+000	2.96500E-002	9.46192E-004	5	..........a	-327.66
	10	2.2	3.97258E-002	5.02189E-008	0.00000E+000	3.96500E-002	9.56592E-004	5	..........a	-327.66
	11	2.4	4.96053E-002	5.39332E-008	0.00000E+000	4.96500E-002	9.56292E-004	5	..........a	-327.66
	12	2.6	5.97027E-002	5.76195E-008	0.00000E+000	5.96500E-002	9.57992E-004	5	..........a	-327.66
	13	2.8	6.97882E-002	6.13217E-008	0.00000E+000	6.96500E-002	9.48692E-004	5	..........a	-327.66
	14	3	7.96547E-002	6.52032E-008	0.00000E+000	7.96500E-002	9.63492E-004	5	..........a	-327.66
	15	3.2	8.96826E-002	6.90210E-008	0.00000E+000	8.96500E-002	9.48792E-004	5	..........a	-327.66
	16	3.4	9.96823E-002	7.29800E-008	0.00000E+000	9.96500E-002	9.58292E-004	5	..........a	-327.66
	17	3.6	1.09753E-001	7.71641E-008	0.00000E+000	1.09650E-001	9.46792E-004	5	..........a	-327.66
	18	3.8	1.19651E-001	8.15722E-008	0.00000E+000	1.19650E-001	9.65092E-004	5	..........a	-327.66
	19	4	1.29647E-001	8.63387E-008	0.00000E+000	1.29650E-001	9.59292E-004	5	..........a	-327.66
	20	4.2	1.39703E-001	9.12620E-008	0.00000E+000	1.39650E-001	9.59392E-004	5	..........a	-327.66
	21	4.4	1.49751E-001	9.63846E-008	0.00000E+000	1.49650E-001	9.53692E-004	5	..........a	-327.66
	22	4.6	1.59680E-001	1.01794E-007	0.00000E+000	1.59650E-001	9.58992E-004	5	..........a	-327.66
	23	4.8	1.69662E-001	1.07544E-007	0.00000E+000	1.69650E-001	9.46892E-004	5	..........a	-327.66
	24	5	1.79633E-001	1.13472E-007	0.00000E+000	1.79650E-001	9.55892E-004	5	..........a	-327.66
	25	5.2	1.89705E-001	1.19543E-007	0.00000E+000	1.89650E-001	9.48192E-004	5	..........a	-327.66
	26	5.4	1.99649E-001	1.25505E-007	0.00000E+000	1.99650E-001	9.60792E-004	5	..........a	-327.66
	27	5.6	2.09584E-001	1.30961E-007	0.00000E+000	2.09650E-001	9.63792E-004	5	..........a	-327.66
	28	5.8	2.19602E-001	1.35748E-007	0.00000E+000	2.19650E-001	9.51492E-004	5	..........a	-327.66
	29	6	2.29647E-001	1.39581E-007	0.00000E+000	2.29650E-001	9.48792E-004	5	..........a	-327.66
	30	6.2	2.39655E-001	1.46573E-007	0.00000E+000	2.39650E-001	9.47192E-004	5	..........a	-327.66
	31	6.4	2.49577E-001	1.48340E-007	0.00000E+000	2.49650E-001	9.63392E-004	5	..........a	-327.66
	32	6.6	2.59586E-001	1.49342E-007	0.00000E+000	2.59650E-001	9.71292E-004	5	..........a	-327.66
	33	6.8	2.69637E-001	1.51713E-007	0.00000E+000	2.69650E-001	9.50592E-004	5	..........a	-327.66
	34	7	2.79620E-001	1.55095E-007	0.00000E+000	2.79650E-001	9.57392E-004	5	..........a	-327.66
	35	7.2	2.89614E-001	1.58918E-007	0.00000E+000	2.89650E-001	9.67292E-004	5	..........a	-327.66
	36	7.4	2.99570E-001	1.62947E-007	0.00000E+000	2.99650E-001	9.56792E-004	5	..........a	-327.66
	37	7.6	3.09620E-001	1.67527E-007	0.00000E+000	3.09650E-001	9.44392E-004	5	..........a	-327.66
	38	7.8	3.19639E-001	1.72224E-007	0.00000E+000	3.19650E-001	9.54492E-004	5	..........a	-327.66
	39	8	3.29562E-001	1.77161E-007	0.00000E+000	3.29650E-001	9.65692E-004	5	..........a	-327.66
	40	8.2	3.39589E-001	1.82263E-007	0.00000E+000	3.39650E-001	9.59692E-004	5	..........a	-327.66
	41	8.4	3.49643E-001	1.87496E-007	0.00000E+000	3.49650E-001	9.54592E-004	5	..........a	-327.66
	42	8.6	3.59620E-001	1.96895E-007	0.00000E+000	3.59650E-001	9.61592E-004	5	..........a	-327.66
	43	8.8	3.69579E-001	2.02493E-007	0.00000E+000	3.69650E-001	9.63292E-004	5	..........a	-327.66
	44	9	3.79559E-001	2.07239E-007	0.00000E+000	3.79650E-001	9.66292E-004	5	..........a	-327.66
	45	9.2	3.89583E-001	2.11166E-007	0.00000E+000	3.89650E-001	9.51692E-004	5	..........a	-327.66
	46	9.4	3.99657E-001	2.16080E-007	0.00000E+000	3.99650E-001	9.55992E-004	5	..........a	-327.66
	47	9.6	4.09532E-001	2.21734E-007	0.00000E+000	4.09650E-001	9.57392E-004	5	..........a	-327.66
	48	9.8	4.19544E-001	2.27745E-007	0.00000E+000	4.19650E-001	9.53992E-004	5	..........a	-327.66
	49	10	4.29531E-001	2.33928E-007	0.00000E+000	4.29650E-001	9.59092E-004	5	..........a	-327.66
	50	10.2	4.39581E-001	2.40178E-007	0.00000E+000	4.39650E-001	9.68492E-004	5	..........a	-327.66
	51	10.4	4.49517E-001	2.46478E-007	0.00000E+000	4.49650E-001	9.55792E-004	5	..........a	-327.66
	52	10.6	4.59515E-001	2.52945E-007	0.00000E+000	4.59650E-001	9.66992E-004	5	..........a	-327.66
	53	10.8	4.69522E-001	2.59310E-007	0.00000E+000	4.69650E-001	9.46092E-004	5	..........a	-327.66
	54	11	4.79566E-001	2.65684E-007	0.00000E+000	4.79650E-001	9.66992E-004	5	..........a	-327.66
	55	11.2	4.89502E-001	2.72309E-007	0.00000E+000	4.89650E-001	9.53792E-004	5	..........a	-327.66
	56	11.4	4.99544E-001	2.78923E-007	0.00000E+000	4.99650E-001	9.56092E-004	5	..........a	-327.66
	57	11.6	5.09477E-001	2.85607E-007	0.00000E+000	5.09650E-001	9.44892E-004	5	..........a	-327.66
	58	11.8	5.19560E-001	2.92526E-007	0.00000E+000	5.19650E-001	9.58492E-004	5	..........a	-327.66
	59	12	5.29496E-001	2.99398E-007	0.00000E+000	5.29650E-001	9.50192E-004	5	..........a	-327.66
	60	12.2	5.39498E-001	3.06411E-007	0.00000E+000	5.39650E-001	9.66492E-004	5	..........a	-327.66
	61	12.4	5.49479E-001	3.13523E-007	0.00000E+000	5.49650E-001	9.52092E-004	5	..........a	-327.66
	62	12.6	5.59570E-001	3.20740E-007	0.00000E+000	5.59650E-001	9.55892E-004	5	..........a	-327.66
	63	12.8	5.69457E-001	3.27931E-007	0.00000E+000	5.69650E-001	9.52192E-004	5	..........a	-327.66
	64	13	5.79488E-001	3.35179E-007	0.00000E+000	5.79650E-001	9.59792E-004	5	..........a	-327.66
	65	13.2	5.89447E-001	3.41498E-007	0.00000E+000	5.89650E-001	9.48192E-004	5	..........a	-327.66
	66	13.4	5.99512E-001	3.48652E-007	0.00000E+000	5.99650E-001	9.55992E-004	5	..........a	-327.66
	67	13.6	6.09447E-001	3.56153E-007	0.00000E+000	6.09650E-001	9.50892E-004	5	..........a	-327.66
	68	13.8	6.19416E-001	3.63839E-007	0.00000E+000	6.19650E-001	9.53692E-004	5	..........a	-327.66
	69	14	6.29366E-001	3.71768E-007	0.00000E+000	6.29650E-001	9.60692E-004	5	..........a	-327.66
	70	14.2	6.39507E-001	3.79678E-007	0.00000E+000	6.39650E-001	9.59992E-004	5	..........a	-327.66
	71	14.4	6.49413E-001	3.87730E-007	0.00000E+000	6.49650E-001	9.55892E-004	5	..........a	-327.66
	72	14.6	6.59427E-001	3.95692E-007	0.00000E+000	6.59650E-001	9.62392E-004	5	..........a	-327.66
	73	14.8	6.69401E-001	4.03712E-007	0.00000E+000	6.69650E-001	9.55392E-004	5	..........a	-327.66
	74	15	6.79490E-001	4.11562E-007	0.00000E+000	6.79650E-001	9.45692E-004	5	..........a	-327.66
	75	15.2	6.89382E-001	4.19399E-007	0.00000E+000	6.89650E-001	9.55192E-004	5	..........a	-327.66
	76	15.4	6.99391E-001	4.27130E-007	0.00000E+000	6.99650E-001	9.52492E-004	5	..........a	-327.66
	77	15.6	7.09381E-001	4.34657E-007	0.00000E+000	7.09650E-001	9.51592E-004	5	..........a	-327.66
	78	15.8	7.19477E-001	4.41905E-007	0.00000E+000	7.19650E-001	9.51992E-004	5	..........a	-327.66
	79	16	7.29385E-001	4.48792E-007	0.00000E+000	7.29650E-001	9.46092E-004	5	..........a	-327.66
	80	16.2	7.39397E-001	4.55656E-007	0.00000E+000	7.39650E-001	9.71492E-004	5	..........a	-327.66
	81	16.4	7.49388E-001	4.62689E-007	0.00000E+000	7.49650E-001	9.53192E-004	5	..........a	-327.66
	82	16.6	7.59490E-001	4.69825E-007	0.00000E+000	7.59650E-001	9.63692E-004	5	..........a	-327.66
	83	16.8	7.69369E-001	4.76784E-007	0.00000E+000	7.69650E-001	9.53792E-004	5	..........a	-327.66
	84	17	7.79405E-001	4.84201E-007	0.00000E+000	7.79650E-001	9.51392E-004	5	..........a	-327.66
	85	17.2	7.89355E-001	4.92265E-007	0.00000E+000	7.89650E-001	9.54892E-004	5	..........a	-327.66
	86	17.4	7.99413E-001	5.01074E-007	0.00000E+000	7.99650E-001	9.60092E-004	5	..........a	-327.66
	87	17.6	7.89408E-001	4.22774E-007	0.00000E+000	7.89650E-001	9.66592E-004	5	..........a	-327.66
	88	17.8	7.79448E-001	3.69407E-007	0.00000E+000	7.79650E-001	9.74392E-004	5	..........a	-327.66
	89	18	7.69449E-001	3.29345E-007	0.00000E+000	7.69650E-001	9.60292E-004	5	..........a	-327.66
	90	18.2	7.59566E-001	2.97295E-007	0.00000E+000	7.59650E-001	9.67892E-004	5	..........a	-327.66
	91	18.4	7.49482E-001	2.70781E-007	0.00000E+000	7.49650E-001	9.51592E-004	5	..........a	-327.66
	92	18.6	7.39473E-001	2.48399E-007	0.00000E+000	7.39650E-001	9.72792E-004	5	..........a	-327.66
	93	18.8	7.29481E-001	2.28921E-007	0.00000E+000	7.29650E-001	9.49292E-004	5	..........a	-327.66
	94	19	7.19563E-001	2.11806E-007	0.00000E+000	7.19650E-001	9.72492E-004	5	..........a	-327.66
	95	19.2	7.09496E-001	1.96536E-007	0.00000E+000	7.09650E-001	9.56292E-004	5	..........a	-327.66
	96	19.4	6.99490E-001	1.82721E-007	0.00000E+000	6.99650E-001	9.63192E-004	5	..........a	-327.66
	97	19.6	6.89485E-001	1.70215E-007	0.00000E+000	6.89650E-001	9.69192E-004	5	..........a	-327.66
	98	19.8	6.79615E-001	1.58741E-007	0.00000E+000	6.79650E-001	9.61592E-004	5	..........a	-327.66
	99	20	6.69536E-001	1.48244E-007	0.00000E+000	6.69650E-001	9.65392E-004	5	..........a	-327.66
	100	20.2	6.59537E-001	1.38440E-007	0.00000E+000	6.59650E-001	9.67192E-004	5	..........a	-327.66
	101	20.4	6.49543E-001	1.29391E-007	0.00000E+000	6.49650E-001	9.76592E-004	5	..........a	-327.66
	102	20.6	6.39574E-001	1.20780E-007	0.00000E+000	6.39650E-001	9.73392E-004	5	..........a	-327.66
	103	20.8	6.29514E-001	1.12765E-007	0.00000E+000	6.29650E-001	9.50192E-004	5	..........a	-327.66
	104	21	6.19528E-001	1.05204E-007	0.00000E+000	6.19650E-001	9.62792E-004	5	..........a	-327.66
	105	21.2	6.09571E-001	9.80552E-008	0.00000E+000	6.09650E-001	9.63692E-004	5	..........a	-327.66
	106	21.4	5.99646E-001	9.12468E-008	0.00000E+000	5.99650E-001	9.57992E-004	5	..........a	-327.66
	107	21.6	5.89572E-001	8.47458E-008	0.00000E+000	5.89650E-001	9.49592E-004	5	..........a	-327.66
	108	21.8	5.79627E-001	7.85506E-008	0.00000E+000	5.79650E-001	9.59892E-004	5	..........a	-327.66
	109	22	5.69586E-001	7.09853E-008	0.00000E+000	5.69650E-001	9.56992E-004	5	..........a	-327.66
	110	22.2	5.59643E-001	6.68806E-008	0.00000E+000	5.59650E-001	9.58992E-004	5	..........a	-327.66
	111	22.4	5.49650E-001	6.10930E-008	0.00000E+000	5.49650E-001	9.47692E-004	5	..........a	-327.66
	112	22.6	5.39605E-001	5.55958E-008	0.00000E+000	5.39650E-001	9.57492E-004	5	..........a	-327.66
	113	22.8	5.29566E-001	5.02141E-008	0.00000E+000	5.29650E-001	9.69592E-004	5	..........a	-327.66
	114	23	5.19643E-001	4.50591E-008	0.00000E+000	5.19650E-001	9.43392E-004	5	..........a	-327.66
	115	23.2	5.09631E-001	4.00258E-008	0.00000E+000	5.09650E-001	9.46692E-004	5	..........a	-327.66
	116	23.4	4.99681E-001	3.51286E-008	0.00000E+000	4.99650E-001	9.62092E-004	5	..........a	-327.66
	117	23.6	4.89591E-001	3.03481E-008	0.00000E+000	4.89650E-001	9.59392E-004	5	..........a	-327.66
	118	23.8	4.79607E-001	2.55371E-008	0.00000E+000	4.79650E-001	9.63192E-004	5	..........a	-327.66
	119	24	4.69664E-001	2.08500E-008	0.00000E+000	4.69650E-001	9.52892E-004	5	..........a	-327.66
	120	24.2	4.59618E-001	1.62130E-008	0.00000E+000	4.59650E-001	9.57492E-004	5	..........a	-327.66
	121	24.4	4.49595E-001	1.16631E-008	0.00000E+000	4.49650E-001	9.61092E-004	5	..........a	-327.66
	122	24.6	4.39614E-001	7.13839E-009	0.00000E+000	4.39650E-001	9.60892E-004	5	..........a	-327.66
	123	24.8	4.29705E-001	2.69349E-009	0.00000E+000	4.29650E-001	9.57792E-004	5	..........a	-327.66
	124	25	4.19666E-001	-1.88188E-009	0.00000E+000	4.19650E-001	9.44292E-004	5	..........a	-327.66
	125	25.2	4.09658E-001	-6.17971E-009	0.00000E+000	4.09650E-001	9.47492E-004	5	..........a	-327.66
	126	25.4	3.99730E-001	-1.03794E-008	0.00000E+000	3.99650E-001	9.55392E-004	5	..........a	-327.66
	127	25.6	3.89735E-001	-1.46000E-008	0.00000E+000	3.89650E-001	9.44892E-004	5	..........a	-327.66
	128	25.8	3.79693E-001	-1.88709E-008	0.00000E+000	3.79650E-001	9.69392E-004	5	..........a	-327.66
	129	26	3.69717E-001	-2.29593E-008	0.00000E+000	3.69650E-001	9.46192E-004	5	..........a	-327.66
	130	26.2	3.59707E-001	-2.69624E-008	0.00000E+000	3.59650E-001	9.59192E-004	5	..........a	-327.66
	131	26.4	3.49785E-001	-3.09679E-008	0.00000E+000	3.49650E-001	9.48792E-004	5	..........a	-327.66
	132	26.6	3.39718E-001	-3.48782E-008	0.00000E+000	3.39650E-001	9.55292E-004	5	..........a	-327.66
	133	26.8	3.29682E-001	-3.87931E-008	0.00000E+000	3.29650E-001	9.65592E-004	5	..........a	-327.66
	134	27	3.19736E-001	-4.26164E-008	0.00000E+000	3.19650E-001	9.56392E-004	5	..........a	-327.66
	135	27.2	3.09777E-001	-4.62820E-008	0.00000E+000	3.09650E-001	9.50792E-004	5	..........a	-327.66
	136	27.4	2.99689E-001	-5.00425E-008	0.00000E+000	2.99650E-001	9.53292E-004	5	..........a	-327.66
	137	27.6	2.89709E-001	-5.35984E-008	0.00000E+000	2.89650E-001	9.61992E-004	5	..........a	-327.66
	138	27.8	2.79678E-001	-5.70941E-008	0.00000E+000	2.79650E-001	9.51392E-004	5	..........a	-327.66
	139	28	2.69781E-001	-6.05418E-008	0.00000E+000	2.69650E-001	9.47792E-004	5	..........a	-327.66
	140	28.2	2.59703E-001	-6.39748E-008	0.00000E+000	2.59650E-001	9.46292E-004	5	..........a	-327.66
	141	28.4	2.49700E-001	-6.72256E-008	0.00000E+000	2.49650E-001	9.60092E-004	5	..........a	-327.66
	142	28.6	2.39746E-001	-7.03523E-008	0.00000E+000	2.39650E-001	9.48192E-004	5	..........a	-327.66
	143	28.8	2.29806E-001	-7.34815E-008	0.00000E+000	2.29650E-001	9.52392E-004	5	..........a	-327.66
	144	29	2.19636E-001	-7.66042E-008	0.00000E+000	2.19650E-001	9.51992E-004	5	..........a	-327.66
	145	29.2	2.09696E-001	-7.96432E-008	0.00000E+000	2.09650E-001	9.66992E-004	5	..........a	-327.66
	146	29.4	1.99754E-001	-8.27847E-008	0.00000E+000	1.99650E-001	9.62592E-004	5	..........a	-327.66
	147	29.6	1.89795E-001	-8.57036E-008	0.00000E+000	1.89650E-001	9.35492E-004	5	..........a	-327.66
	148	29.8	1.79745E-001	-8.86828E-008	0.00000E+000	1.79650E-001	9.56192E-004	5	..........a	-327.66
	149	30	1.69797E-001	-9.14519E-008	0.00000E+000	1.69650E-001	9.62092E-004	5	..........a	-327.66
	150	30.2	1.59767E-001	-9.42145E-008	0.00000E+000	1.59650E-001	9.72692E-004	5	..........a	-327.66
	151	30.4	1.49886E-001	-9.67367E-008	0.00000E+000	1.49650E-001	9.56792E-004	5	..........a	-327.66
	152	30.6	1.39784E-001	-9.91391E-008	0.00000E+000	1.39650E-001	9.52392E-004	5	..........a	-327.66
	153	30.8	1.29760E-001	-1.01348E-007	0.00000E+000	1.29650E-001	9.55592E-004	5	..........a	-327.66
	154	31	1.19765E-001	-1.03532E-007	0.00000E+000	1.19650E-001	9.57192E-004	5	..........a	-327.66
	155	31.2	1.09835E-001	-1.05521E-007	0.00000E+000	1.09650E-001	9.55992E-004	5	..........a	-327.66
	156	31.4	9.97720E-002	-1.07419E-007	0.00000E+000	9.96500E-002	9.50892E-004	5	..........a	-327.66
	157	31.6	8.97954E-002	-1.09251E-007	0.00000E+000	8.96500E-002	9.58492E-004	5	..........a	-327.66
	158	31.8	7.97631E-002	-1.10942E-007	0.00000E+000	7.96500E-002	9.54292E-004	5	..........a	-327.66
	159	32	6.98941E-002	-1.12612E-007	0.00000E+000	6.96500E-002	9.62392E-004	5	..........a	-327.66
	160	32.2	5.97808E-002	-1.14260E-007	0.00000E+000	5.96500E-002	9.53092E-004	5	..........a	-327.66
	161	32.4	4.97707E-002	-1.15869E-007	0.00000E+000	4.96500E-002	9.60192E-004	5	..........a	-327.66
	162	32.6	3.97853E-002	-1.17464E-007	0.00000E+000	3.96500E-002	9.65292E-004	5	..........a	-327.66
	163	32.8	2.98596E-002	-1.19118E-007	0.00000E+000	2.96500E-002	9.47492E-004	5	..........a	-327.66
	164	33	1.97665E-002	-1.20734E-007	0.00000E+000	1.96500E-002	9.69592E-004	5	..........a	-327.66
	165	33.2	9.79824E-003	-1.22444E-007	0.00000E+000	9.65001E-003	9.49492E-004	5	..........a	-327.66
	166	33.4	-2.44158E-004	-1.24222E-007	0.00000E+000	-3.49998E-004	9.62192E-004	5	..........a	-327.66
	167	33.6	-1.01966E-002	-1.25884E-007	0.00000E+000	-1.03500E-002	9.54492E-004	5	..........a	-327.66
	168	33.8	-2.02287E-002	-1.27541E-007	0.00000E+000	-2.03500E-002	9.60992E-004	5	..........a	-327.66
	169	34	-3.02284E-002	-1.29272E-007	0.00000E+000	-3.03500E-002	9.66992E-004	5	..........a	-327.66
	170	34.2	-4.02293E-002	-1.31096E-007	0.00000E+000	-4.03500E-002	9.62892E-004	5	..........a	-327.66
	171	34.4	-5.01876E-002	-1.32923E-007	0.00000E+000	-5.03500E-002	9.51692E-004	5	..........a	-327.66
	172	34.6	-6.02276E-002	-1.34882E-007	0.00000E+000	-6.03500E-002	9.60292E-004	5	..........a	-327.66
	173	34.8	-7.02317E-002	-1.36806E-007	0.00000E+000	-7.03500E-002	9.59592E-004	5	..........a	-327.66
	174	35	-8.02240E-002	-1.38837E-007	0.00000E+000	-8.03500E-002	9.62092E-004	5	..........a	-327.66
	175	35.2	-9.02009E-002	-1.41138E-007	0.00000E+000	-9.03500E-002	9.46392E-004	5	..........a	-327.66
	176	35.4	-1.00231E-001	-1.43096E-007	0.00000E+000	-1.00350E-001	9.58792E-004	5	..........a	-327.66
	177	35.6	-1.10232E-001	-1.45320E-007	0.00000E+000	-1.10350E-001	9.70192E-004	5	..........a	-327.66
	178	35.8	-1.20223E-001	-1.47594E-007	0.00000E+000	-1.20350E-001	9.57392E-004	5	..........a	-327.66
	179	36	-1.30159E-001	-1.49957E-007	0.00000E+000	-1.30350E-001	9.51592E-004	5	..........a	-327.66
	180	36.2	-1.40237E-001	-1.52327E-007	0.00000E+000	-1.40350E-001	9.51792E-004	5	..........a	-327.66
	181	36.4	-1.50269E-001	-1.54986E-007	0.00000E+000	-1.50350E-001	9.74592E-004	5	..........a	-327.66
	182	36.6	-1.60231E-001	-1.57581E-007	0.00000E+000	-1.60350E-001	9.50792E-004	5	..........a	-327.66
	183	36.8	-1.70183E-001	-1.60319E-007	0.00000E+000	-1.70350E-001	9.48392E-004	5	..........a	-327.66
	184	37	-1.80229E-001	-1.63161E-007	0.00000E+000	-1.80350E-001	9.48792E-004	5	..........a	-327.66
	185	37.2	-1.90160E-001	-1.66051E-007	0.00000E+000	-1.90350E-001	9.46892E-004	5	..........a	-327.66
	186	37.4	-2.00219E-001	-1.68975E-007	0.00000E+000	-2.00350E-001	9.57192E-004	5	..........a	-327.66
	187	37.6	-2.10084E-001	-1.71927E-007	0.00000E+000	-2.10350E-001	9.45392E-004	5	..........a	-327.66
	188	37.8	-2.20195E-001	-1.74880E-007	0.00000E+000	-2.20350E-001	9.53992E-004	5	..........a	-327.66
	189	38	-2.30186E-001	-1.77768E-007	0.00000E+000	-2.30350E-001	9.71392E-004	5	..........a	-327.66
	190	38.2	-2.40179E-001	-1.80629E-007	0.00000E+000	-2.40350E-001	9.47892E-004	5	..........a	-327.66
	191	38.4	-2.50137E-001	-1.83273E-007	0.00000E+000	-2.50350E-001	9.43792E-004	5	..........a	-327.66
	192	38.6	-2.60171E-001	-1.85945E-007	0.00000E+000	-2.60350E-001	9.51292E-004	5	..........a	-327.66
	193	38.8	-2.70136E-001	-1.88501E-007	0.00000E+000	-2.70350E-001	9.58492E-004	5	..........a	-327.66
	194	39	-2.80168E-001	-1.90965E-007	0.00000E+000	-2.80350E-001	9.62092E-004	5	..........a	-327.66
	195	39.2	-2.90067E-001	-1.93408E-007	0.00000E+000	-2.90350E-001	9.56692E-004	5	..........a	-327.66
	196	39.4	-3.00175E-001	-1.95788E-007	0.00000E+000	-3.00350E-001	9.49192E-004	5	..........a	-327.66
	197	39.6	-3.10162E-001	-1.98023E-007	0.00000E+000	-3.10350E-001	9.62592E-004	5	..........a	-327.66
	198	39.8	-3.20192E-001	-2.00236E-007	0.00000E+000	-3.20350E-001	9.57792E-004	5	..........a	-327.66
	199	40	-3.30094E-001	-2.02380E-007	0.00000E+000	-3.30350E-001	9.65592E-004	5	..........a	-327.66
	200	40.2	-3.40176E-001	-2.04460E-007	0.00000E+000	-3.40350E-001	9.56292E-004	5	..........a	-327.66
	201	40.4	-3.50166E-001	-2.06481E-007	0.00000E+000	-3.50350E-001	9.61892E-004	5	..........a	-327.66
	202	40.6	-3.60165E-001	-2.08427E-007	0.00000E+000	-3.60350E-001	9.57692E-004	5	..........a	-327.66
	203	40.8	-3.70059E-001	-2.10314E-007	0.00000E+000	-3.70350E-001	9.53892E-004	5	..........a	-327.66
	204	41	-3.80159E-001	-2.12086E-007	0.00000E+000	-3.80350E-001	9.55392E-004	5	..........a	-327.66
	205	41.2	-3.90171E-001	-2.13885E-007	0.00000E+000	-3.90350E-001	9.72892E-004	5	..........a	-327.66
	206	41.4	-4.00173E-001	-2.15626E-007	0.00000E+000	-4.00350E-001	9.50392E-004	5	..........a	-327.66
	207	41.6	-4.10054E-001	-2.17249E-007	0.00000E+000	-4.10350E-001	9.63492E-004	5	..........a	-327.66
	208	41.8	-4.20203E-001	-2.18849E-007	0.00000E+000	-4.20350E-001	9.54192E-004	5	..........a	-327.66
	209	42	-4.30137E-001	-2.20427E-007	0.00000E+000	-4.30350E-001	9.51592E-004	5	..........a	-327.66
	210	42.2	-4.40132E-001	-2.21935E-007	0.00000E+000	-4.40350E-001	9.48892E-004	5	..........a	-327.66
	211	42.4	-4.50108E-001	-2.23384E-007	0.00000E+000	-4.50350E-001	9.53692E-004	5	..........a	-327.66
	212	42.6	-4.60153E-001	-2.24868E-007	0.00000E+000	-4.60350E-001	9.44992E-004	5	..........a	-327.66
	213	42.8	-4.70097E-001	-2.26350E-007	0.00000E+000	-4.70350E-001	9.60292E-004	5	..........a	-327.66
	214	43	-4.80132E-001	-2.27826E-007	0.00000E+000	-4.80350E-001	9.65192E-004	5	..........a	-327.66
	215	43.2	-4.90035E-001	-2.29373E-007	0.00000E+000	-4.90350E-001	9.65892E-004	5	..........a	-327.66
	216	43.4	-5.00133E-001	-2.30965E-007	0.00000E+000	-5.00350E-001	9.56492E-004	5	..........a	-327.66
	217	43.6	-5.10123E-001	-2.32595E-007	0.00000E+000	-5.10350E-001	9.52592E-004	5	..........a	-327.66
	218	43.8	-5.20126E-001	-2.34196E-007	0.00000E+000	-5.20350E-001	9.70692E-004	5	..........a	-327.66
	219	44	-5.30076E-001	-2.36001E-007	0.00000E+000	-5.30350E-001	9.51692E-004	5	..........a	-327.66
	220	44.2	-5.40131E-001	-2.37714E-007	0.00000E+000	-5.40350E-001	9.50592E-004	5	..........a	-327.66
	221	44.4	-5.50092E-001	-2.39579E-007	0.00000E+000	-5.50350E-001	9.56992E-004	5	..........a	-327.66
	222	44.6	-5.60149E-001	-2.41584E-007	0.00000E+000	-5.60350E-001	9.63592E-004	5	..........a	-327.66
	223	44.8	-5.70048E-001	-2.43572E-007	0.00000E+000	-5.70350E-001	9.62192E-004	5	..........a	-327.66
	224	45	-5.80130E-001	-2.45710E-007	0.00000E+000	-5.80350E-001	9.51292E-004	5	..........a	-327.66
	225	45.2	-5.90118E-001	-2.47889E-007	0.00000E+000	-5.90350E-001	9.64392E-004	5	..........a	-327.66
	226	45.4	-6.00096E-001	-2.50213E-007	0.00000E+000	-6.00350E-001	9.58792E-004	5	..........a	-327.66
CURVE2	TABLE
	Pt	T	Vf	Im	Vu	Sig	Ach	IERange	Over	Temp
	#	s	V vs. Ref.	A	V	V	V	#	bits	deg C
	227	45.6	-5.89786E-001	-2.22120E-007	0.00000E+000	-5.90000E-001	9.54992E-004	5	..........a	-327.66
	228	45.8	-5.79751E-001	-2.04083E-007	0.00000E+000	-5.80000E-001	9.63792E-004	5	..........a	-327.66
	229	46	-5.69788E-001	-1.89729E-007	0.00000E+000	-5.70000E-001	9.57692E-004	5	..........a	-327.66
	230	46.2	-5.59802E-001	-1.77629E-007	0.00000E+000	-5.60000E-001	9.49792E-004	5	..........a	-327.66
	231	46.4	-5.49821E-001	-1.67052E-007	0.00000E+000	-5.50000E-001	9.57692E-004	5	..........a	-327.66
	232	46.6	-5.39720E-001	-1.57264E-007	0.00000E+000	-5.40000E-001	9.55392E-004	5	..........a	-327.66
	233	46.8	-5.29821E-001	-1.48339E-007	0.00000E+000	-5.30000E-001	9.55392E-004	5	..........a	-327.66
	234	47	-5.19836E-001	-1.39986E-007	0.00000E+000	-5.20000E-001	9.56592E-004	5	..........a	-327.66
	235	47.2	-5.09820E-001	-1.32191E-007	0.00000E+000	-5.10000E-001	9.49692E-004	5	..........a	-327.66
	236	47.4	-4.99803E-001	-1.24792E-007	0.00000E+000	-5.00000E-001	9.52192E-004	5	..........a	-327.66
	237	47.6	-4.89822E-001	-1.17783E-007	0.00000E+000	-4.90000E-001	9.66192E-004	5	..........a	-327.66
	238	47.8	-4.79819E-001	-1.11060E-007	0.00000E+000	-4.80000E-001	9.45792E-004	5	..........a	-327.66
	239	48	-4.69832E-001	-1.04653E-007	0.00000E+000	-4.70000E-001	9.59592E-004	5	..........a	-327.66
	240	48.2	-4.59787E-001	-9.84900E-008	0.00000E+000	-4.60000E-001	9.48092E-004	5	..........a	-327.66
	241	48.4	-4.49832E-001	-9.24527E-008	0.00000E+000	-4.50000E-001	9.56792E-004	5	..........a	-327.66
	242	48.6	-4.39792E-001	-8.66985E-008	0.00000E+000	-4.40000E-001	9.66892E-004	5	..........a	-327.66
	243	48.8	-4.29841E-001	-8.10356E-008	0.00000E+000	-4.30000E-001	9.65592E-004	5	..........a	-327.66
	244	49	-4.19785E-001	-7.56788E-008	0.00000E+000	-4.20000E-001	9.55792E-004	5	..........a	-327.66
	245	49.2	-4.09841E-001	-7.02274E-008	0.00000E+000	-4.10000E-001	9.51292E-004	5	..........a	-327.66
	246	49.4	-3.99837E-001	-6.50283E-008	0.00000E+000	-4.00000E-001	9.62892E-004	5	..........a	-327.66
	247	49.6	-3.89876E-001	-5.99532E-008	0.00000E+000	-3.90000E-001	9.59692E-004	5	..........a	-327.66
	248	49.8	-3.79816E-001	-5.50808E-008	0.00000E+000	-3.80000E-001	9.50892E-004	5	..........a	-327.66
	249	50	-3.69843E-001	-5.03119E-008	0.00000E+000	-3.70000E-001	9.65892E-004	5	..........a	-327.66
	250	50.2	-3.59853E-001	-4.56389E-008	0.00000E+000	-3.60000E-001	9.50592E-004	5	..........a	-327.66
	251	50.4	-3.49868E-001	-4.10965E-008	0.00000E+000	-3.50000E-001	9.71392E-004	5	..........a	-327.66
	252	50.6	-3.39820E-001	-3.65347E-008	0.00000E+000	-3.40000E-001	9.60192E-004	5	..........a	-327.66
	253	50.8	-3.29898E-001	-3.21773E-008	0.00000E+000	-3.30000E-001	9.70892E-004	5	..........a	-327.66
	254	51	-3.19877E-001	-2.79285E-008	0.00000E+000	-3.20000E-001	9.51592E-004	5	..........a	-327.66
	255	51.2	-3.09880E-001	-2.36482E-008	0.00000E+000	-3.10000E-001	9.63292E-004	5	..........a	-327.66
	256	51.4	-2.99852E-001	-1.93554E-008	0.00000E+000	-3.00000E-001	9.55292E-004	5	..........a	-327.66
	257	51.6	-2.89883E-001	-1.53830E-008	0.00000E+000	-2.90000E-001	9.69892E-004	5	..........a	-327.66
	258	51.8	-2.79906E-001	-1.13767E-008	0.00000E+000	-2.80000E-001	9.71092E-004	5	..........a	-327.66
	259	52	-2.69878E-001	-7.47106E-009	0.00000E+000	-2.70000E-001	9.50792E-004	5	..........a	-327.66
	260	52.2	-2.59836E-001	-3.97261E-009	0.00000E+000	-2.60000E-001	9.66192E-004	5	..........a	-327.66
	261	52.4	-2.49903E-001	-1.76730E-010	0.00000E+000	-2.50000E-001	9.66592E-004	5	..........a	-327.66
	262	52.6	-2.39963E-001	3.75470E-009	0.00000E+000	-2.40000E-001	9.58992E-004	5	..........a	-327.66
	263	52.8	-2.29983E-001	7.51681E-009	0.00000E+000	-2.30000E-001	9.60592E-004	5	..........a	-327.66
	264	53	-2.19892E-001	1.11474E-008	0.00000E+000	-2.20000E-001	9.48692E-004	5	..........a	-327.66
	265	53.2	-2.09923E-001	1.47307E-008	0.00000E+000	-2.10000E-001	9.67792E-004	5	..........a	-327.66
	266	53.4	-1.99997E-001	1.82570E-008	0.00000E+000	-2.00000E-001	9.74392E-004	5	..........a	-327.66
	267	53.6	-1.90207E-001	2.17284E-008	0.00000E+000	-1.90000E-001	9.50692E-004	5	..........a	-327.66
	268	53.8	-1.79939E-001	2.51597E-008	0.00000E+000	-1.80000E-001	9.64192E-004	5	..........a	-327.66
	269	54	-1.69929E-001	2.84706E-008	0.00000E+000	-1.70000E-001	9.77192E-004	5	..........a	-327.66
	270	54.2	-1.59989E-001	3.17882E-008	0.00000E+000	-1.60000E-001	9.72792E-004	5	..........a	-327.66
	271	54.4	-1.49977E-001	3.50998E-008	0.00000E+000	-1.50000E-001	9.73892E-004	5	..........a	-327.66
	272	54.6	-1.39908E-001	3.83592E-008	0.00000E+000	-1.40000E-001	9.53992E-004	5	..........a	-327.66
	273	54.8	-1.29965E-001	4.15822E-008	0.00000E+000	-1.30000E-001	9.60792E-004	5	..........a	-327.66
	274	55	-1.19991E-001	4.48427E-008	0.00000E+000	-1.20000E-001	9.61292E-004	5	..........a	-327.66
	275	55.2	-1.10005E-001	4.79959E-008	0.00000E+000	-1.10000E-001	9.86892E-004	5	..........a	-327.66
	276	55.4	-9.99487E-002	5.11044E-008	0.00000E+000	-1.00000E-001	9.52792E-004	5	..........a	-327.66
	277	55.6	-8.99418E-002	5.41298E-008	0.00000E+000	-9.00000E-002	9.75792E-004	5	..........a	-327.66
	278	55.8	-7.99875E-002	5.72920E-008	0.00000E+000	-8.00000E-002	9.75392E-004	5	..........a	-327.66
	279	56	-6.99650E-002	6.02579E-008	0.00000E+000	-7.00000E-002	9.71392E-004	5	..........a	-327.66
	280	56.2	-5.99698E-002	6.34307E-008	0.00000E+000	-6.00000E-002	9.58492E-004	5	..........a	-327.66
	281	56.4	-4.99275E-002	6.64839E-008	0.00000E+000	-5.00000E-002	9.62492E-004	5	..........a	-327.66
	282	56.6	-3.99695E-002	6.95274E-008	0.00000E+000	-4.00000E-002	9.63592E-004	5	..........a	-327.66
	283	56.8	-2.99706E-002	7.25970E-008	0.00000E+000	-3.00000E-002	9.62492E-004	5	..........a	-327.66
	284	57	-1.99676E-002	7.56458E-008	0.00000E+000	-2.00000E-002	9.50492E-004	5	..........a	-327.66
	285	57.2	-9.89871E-003	7.86815E-008	0.00000E+000	-1.00000E-002	9.66992E-004	5	..........a	-327.66
	286	57.4	-2.61083E-005	8.16826E-008	0.00000E+000	7.45058E-009	9.66992E-004	5	..........a	-327.66
	287	57.6	1.00272E-002	8.48604E-008	0.00000E+000	1.00000E-002	9.62092E-004	5	..........a	-327.66
	288	57.8	2.01023E-002	8.80688E-008	0.00000E+000	2.00000E-002	9.65392E-004	5	..........a	-327.66
	289	58	3.00070E-002	9.12027E-008	0.00000E+000	3.00000E-002	9.58792E-004	5	..........a	-327.66
	290	58.2	3.99621E-002	9.44039E-008	0.00000E+000	4.00000E-002	9.55692E-004	5	..........a	-327.66
	291	58.4	4.99968E-002	9.76080E-008	0.00000E+000	5.00000E-002	9.66092E-004	5	..........a	-327.66
	292	58.6	6.00293E-002	1.00912E-007	0.00000E+000	6.00000E-002	9.58292E-004	5	..........a	-327.66
	293	58.8	6.99651E-002	1.04263E-007	0.00000E+000	7.00000E-002	9.71992E-004	5	..........a	-327.66
	294	59	7.99778E-002	1.07720E-007	0.00000E+000	8.00000E-002	9.72992E-004	5	..........a	-327.66
	295	59.2	9.00342E-002	1.11289E-007	0.00000E+000	9.00000E-002	9.51192E-004	5	..........a	-327.66
	296	59.4	1.00019E-001	1.15064E-007	0.00000E+000	1.00000E-001	9.55692E-004	5	..........a	-327.66
	297	59.6	1.10057E-001	1.18867E-007	0.00000E+000	1.10000E-001	9.52792E-004	5	..........a	-327.66
	298	59.8	1.19971E-001	1.22741E-007	0.00000E+000	1.20000E-001	9.59492E-004	5	..........a	-327.66
	299	60	1.29976E-001	1.26615E-007	0.00000E+000	1.30000E-001	9.64392E-004	5	..........a	-327.66
	300	60.2	1.40027E-001	1.30738E-007	0.00000E+000	1.40000E-001	9.56192E-004	5	..........a	-327.66
	301	60.4	1.49997E-001	1.34885E-007	0.00000E+000	1.50000E-001	9.70192E-004	5	..........a	-327.66
	302	60.6	1.59991E-001	1.39075E-007	0.00000E+000	1.60000E-001	9.66192E-004	5	..........a	-327.66
	303	60.8	1.70009E-001	1.43362E-007	0.00000E+000	1.70000E-001	9.61492E-004	5	..........a	-327.66
	304	61	1.79985E-001	1.47611E-007	0.00000E+000	1.80000E-001	9.49092E-004	5	..........a	-327.66
	305	61.2	1.90030E-001	1.51761E-007	0.00000E+000	1.90000E-001	9.74792E-004	5	..........a	-327.66
	306	61.4	1.99965E-001	1.55629E-007	0.00000E+000	2.00000E-001	9.52092E-004	5	..........a	-327.66
	307	61.6	2.09960E-001	1.58834E-007	0.00000E+000	2.10000E-001	9.69692E-004	5	..........a	-327.66
	308	61.8	2.19904E-001	1.61227E-007	0.00000E+000	2.20000E-001	9.53392E-004	5	..........a	-327.66
	309	62	2.29954E-001	1.62897E-007	0.00000E+000	2.30000E-001	9.63192E-004	5	..........a	-327.66
	310	62.2	2.39947E-001	1.64451E-007	0.00000E+000	2.40000E-001	9.74792E-004	5	..........a	-327.66
	311	62.4	2.49906E-001	1.66056E-007	0.00000E+000	2.50000E-001	9.66292E-004	5	..........a	-327.66
	312	62.6	2.59941E-001	1.67908E-007	0.00000E+000	2.60000E-001	9.67392E-004	5	..........a	-327.66
	313	62.8	2.70004E-001	1.69939E-007	0.00000E+000	2.70000E-001	9.66792E-004	5	..........a	-327.66
	314	63	2.79898E-001	1.72241E-007	0.00000E+000	2.80000E-001	9.80492E-004	5	..........a	-327.66
	315	63.2	2.89939E-001	1.74797E-007	0.00000E+000	2.90000E-001	9.61092E-004	5	..........a	-327.66
	316	63.4	2.99939E-001	1.77534E-007	0.00000E+000	3.00000E-001	9.66592E-004	5	..........a	-327.66
	317	63.6	3.09984E-001	1.80472E-007	0.00000E+000	3.10000E-001	9.75692E-004	5	..........a	-327.66
	318	63.8	3.19925E-001	1.83555E-007	0.00000E+000	3.20000E-001	9.70392E-004	5	..........a	-327.66
	319	64	3.29914E-001	1.86702E-007	0.00000E+000	3.30000E-001	9.67392E-004	5	..........a	-327.66
	320	64.2	3.39956E-001	1.89967E-007	0.00000E+000	3.40000E-001	9.45592E-004	5	..........a	-327.66
	321	64.4	3.49975E-001	1.93380E-007	0.00000E+000	3.50000E-001	9.72492E-004	5	..........a	-327.66
	322	64.6	3.59917E-001	1.96824E-007	0.00000E+000	3.60000E-001	9.58192E-004	5	..........a	-327.66
	323	64.8	3.69956E-001	2.00397E-007	0.00000E+000	3.70000E-001	9.78792E-004	5	..........a	-327.66
	324	65	3.79923E-001	2.04007E-007	0.00000E+000	3.80000E-001	9.55992E-004	5	..........a	-327.66
	325	65.2	3.89971E-001	2.07699E-007	0.00000E+000	3.90000E-001	9.57292E-004	5	..........a	-327.66
	326	65.4	3.99926E-001	2.11397E-007	0.00000E+000	4.00000E-001	9.66292E-004	5	..........a	-327.66
	327	65.6	4.09910E-001	2.15078E-007	0.00000E+000	4.10000E-001	9.74792E-004	5	..........a	-327.66
	328	65.8	4.19899E-001	2.18902E-007	0.00000E+000	4.20000E-001	9.51792E-004	5	..........a	-327.66
	329	66	4.29956E-001	2.22667E-007	0.00000E+000	4.30000E-001	9.61092E-004	5	..........a	-327.66
	330	66.2	4.39885E-001	2.25932E-007	0.00000E+000	4.40000E-001	9.75292E-004	5	..........a	-327.66
	331	66.4	4.49912E-001	2.29847E-007	0.00000E+000	4.50000E-001	9.65192E-004	5	..........a	-327.66
	332	66.6	4.59879E-001	2.33861E-007	0.00000E+000	4.60000E-001	9.66692E-004	5	..........a	-327.66
	333	66.8	4.69930E-001	2.38168E-007	0.00000E+000	4.70000E-001	9.54592E-004	5	..........a	-327.66
	334	67	4.79877E-001	2.42349E-007	0.00000E+000	4.80000E-001	9.56192E-004	5	..........a	-327.66
	335	67.2	4.89850E-001	2.46737E-007	0.00000E+000	4.90000E-001	9.74292E-004	5	..........a	-327.66
	336	67.4	4.99895E-001	2.51223E-007	0.00000E+000	5.00000E-001	9.50292E-004	5	..........a	-327.66
	337	67.6	5.09943E-001	2.55956E-007	0.00000E+000	5.10000E-001	9.63992E-004	5	..........a	-327.66
	338	67.8	5.19865E-001	2.60763E-007	0.00000E+000	5.20000E-001	9.68092E-004	5	..........a	-327.66
	339	68	5.29883E-001	2.65603E-007	0.00000E+000	5.30000E-001	9.53292E-004	5	..........a	-327.66
	340	68.2	5.39858E-001	2.70644E-007	0.00000E+000	5.40000E-001	9.60292E-004	5	..........a	-327.66
	341	68.4	5.49895E-001	2.75839E-007	0.00000E+000	5.50000E-001	9.62592E-004	5	..........a	-327.66
	342	68.6	5.59866E-001	2.81298E-007	0.00000E+000	5.60000E-001	9.58192E-004	5	..........a	-327.66
	343	68.8	5.69853E-001	2.86953E-007	0.00000E+000	5.70000E-001	9.65492E-004	5	..........a	-327.66
	344	69	5.79847E-001	2.92916E-007	0.00000E+000	5.80000E-001	9.52892E-004	5	..........a	-327.66
	345	69.2	5.89918E-001	2.98955E-007	0.00000E+000	5.90000E-001	9.59792E-004	5	..........a	-327.66
	346	69.4	5.99818E-001	3.05249E-007	0.00000E+000	6.00000E-001	9.56192E-004	5	..........a	-327.66
	347	69.6	6.09866E-001	3.11840E-007	0.00000E+000	6.10000E-001	9.60992E-004	5	..........a	-327.66
	348	69.8	6.19799E-001	3.18581E-007	0.00000E+000	6.20000E-001	9.52592E-004	5	..........a	-327.66
	349	70	6.29893E-001	3.25441E-007	0.00000E+000	6.30000E-001	9.59892E-004	5	..........a	-327.66
	350	70.2	6.39757E-001	3.32575E-007	0.00000E+000	6.40000E-001	9.64092E-004	5	..........a	-327.66
	351	70.4	6.49781E-001	3.40032E-007	0.00000E+000	6.50000E-001	9.56492E-004	5	..........a	-327.66
	352	70.6	6.59784E-001	3.47710E-007	0.00000E+000	6.60000E-001	9.56792E-004	5	..........a	-327.66
	353	70.8	6.69848E-001	3.55851E-007	0.00000E+000	6.70000E-001	9.54692E-004	5	..........a	-327.66
	354	71	6.79813E-001	3.63652E-007	0.00000E+000	6.80000E-001	9.62292E-004	5	..........a	-327.66
[...]
	922	184.6	7.59755E-001	4.19681E-007	0.00000E+000	7.60000E-001	9.61892E-004	5	..........a	-327.66
	923	184.8	7.69737E-001	4.32879E-007	0.00000E+000	7.70000E-001	9.69592E-004	5	..........a	-327.66
	924	185	7.79754E-001	4.46261E-007	0.00000E+000	7.80000E-001	9.63092E-004	5	..........a	-327.66
	925	185.2	7.89833E-001	4.59680E-007	0.00000E+000	7.90000E-001	9.61292E-004	5	..........a	-327.66
	926	185.4	7.99732E-001	4.72395E-007	0.00000E+000	8.00000E-001	9.57092E-004	5	..........a	-327.66
	927	185.6	7.89866E-001	3.92133E-007	0.00000E+000	7.90000E-001	9.58592E-004	5	..........a	-327.66
	928	185.8	7.79793E-001	3.40385E-007	0.00000E+000	7.80000E-001	9.66992E-004	5	..........a	-327.66
	929	186	7.69843E-001	3.02795E-007	0.00000E+000	7.70000E-001	9.69792E-004	5	..........a	-327.66
	930	186.2	7.59834E-001	2.73702E-007	0.00000E+000	7.60000E-001	9.53392E-004	5	..........a	-327.66
	931	186.4	7.49914E-001	2.50122E-007	0.00000E+000	7.50000E-001	9.69692E-004	5	..........a	-327.66
	932	186.6	7.39849E-001	2.30209E-007	0.00000E+000	7.40000E-001	9.35892E-004	5	..........a	-327.66
	933	186.8	7.29830E-001	2.13123E-007	0.00000E+000	7.30000E-001	9.69492E-004	5	..........a	-327.66
	934	187	7.19863E-001	1.98047E-007	0.00000E+000	7.20000E-001	9.75592E-004	5	..........a	-327.66
	935	187.2	7.09951E-001	1.84482E-007	0.00000E+000	7.10000E-001	9.68692E-004	5	..........a	-327.66
	936	187.4	6.99869E-001	1.72303E-007	0.00000E+000	7.00000E-001	9.51092E-004	5	..........a	-327.66
	937	187.6	6.89869E-001	1.61043E-007	0.00000E+000	6.90000E-001	9.71392E-004	5	..........a	-327.66
	938	187.8	6.79880E-001	1.50594E-007	0.00000E+000	6.80000E-001	9.58892E-004	5	..........a	-327.66
	939	188	6.69942E-001	1.40901E-007	0.00000E+000	6.70000E-001	9.63292E-004	5	..........a	-327.66
	940	188.2	6.59882E-001	1.31751E-007	0.00000E+000	6.60000E-001	9.50392E-004	5	..........a	-327.66
	941	188.4	6.49897E-001	1.23058E-007	0.00000E+000	6.50000E-001	9.73892E-004	5	..........a	-327.66
	942	188.6	6.39867E-001	1.14739E-007	0.00000E+000	6.40000E-001	9.77392E-004	5	..........a	-327.66
	943	188.8	6.30001E-001	1.06524E-007	0.00000E+000	6.30000E-001	9.85492E-004	5	..........a	-327.66
	944	189	6.19910E-001	9.86951E-008	0.00000E+000	6.20000E-001	9.57192E-004	5	..........a	-327.66
	945	189.2	6.09936E-001	9.10568E-008	0.00000E+000	6.10000E-001	9.67592E-004	5	..........a	-327.66
	946	189.4	5.99933E-001	8.34410E-008	0.00000E+000	6.00000E-001	9.54392E-004	5	..........a	-327.66
	947	189.6	5.90010E-001	7.59306E-008	0.00000E+000	5.90000E-001	9.71792E-004	5	..........a	-327.66
	948	189.8	5.79979E-001	6.77562E-008	0.00000E+000	5.80000E-001	9.59292E-004	5	..........a	-327.66
	949	190	5.69939E-001	5.86973E-008	0.00000E+000	5.70000E-001	9.68492E-004	5	..........a	-327.66
	950	190.2	5.59938E-001	4.89618E-008	0.00000E+000	5.60000E-001	9.75592E-004	5	..........a	-327.66
	951	190.4	5.50020E-001	3.97121E-008	0.00000E+000	5.50000E-001	9.53592E-004	5	..........a	-327.66
	952	190.6	5.39991E-001	3.19700E-008	0.00000E+000	5.40000E-001	9.57792E-004	5	..........a	-327.66
	953	190.8	5.29975E-001	2.56698E-008	0.00000E+000	5.30000E-001	9.62092E-004	5	..........a	-327.66
	954	191	5.19975E-001	2.02703E-008	0.00000E+000	5.20000E-001	9.56992E-004	5	..........a	-327.66
	955	191.2	5.09981E-001	1.60954E-008	0.00000E+000	5.10000E-001	9.84292E-004	5	..........a	-327.66
	956	191.4	5.00038E-001	1.37833E-008	0.00000E+000	5.00000E-001	9.68692E-004	5	..........a	-327.66
	957	191.6	4.89961E-001	1.29539E-008	0.00000E+000	4.90000E-001	9.64492E-004	5	..........a	-327.66
	958	191.8	4.79929E-001	1.27652E-008	0.00000E+000	4.80000E-001	9.72892E-004	5	..........a	-327.66
	959	192	4.70028E-001	1.20292E-008	0.00000E+000	4.70000E-001	9.59592E-004	5	..........a	-327.66
	960	192.2	4.60012E-001	1.07977E-008	0.00000E+000	4.60000E-001	9.63792E-004	5	..........a	-327.66
	961	192.4	4.49940E-001	8.38917E-009	0.00000E+000	4.50000E-001	9.62492E-004	5	..........a	-327.66
	962	192.6	4.39960E-001	5.78808E-009	0.00000E+000	4.40000E-001	9.88592E-004	5	..........a	-327.66
	963	192.8	4.29968E-001	2.93391E-009	0.00000E+000	4.30000E-001	9.75992E-004	5	..........a	-327.66
	964	193	4.20023E-001	-1.53429E-010	0.00000E+000	4.20000E-001	9.63392E-004	5	..........a	-327.66
	965	193.2	4.10030E-001	-3.41814E-009	0.00000E+000	4.10000E-001	9.68392E-004	5	..........a	-327.66
	966	193.4	4.00057E-001	-6.60258E-009	0.00000E+000	4.00000E-001	9.58092E-004	5	..........a	-327.66
	967	193.6	3.90081E-001	-1.00533E-008	0.00000E+000	3.90000E-001	9.62692E-004	5	..........a	-327.66
	968	193.8	3.80092E-001	-1.33152E-008	0.00000E+000	3.80000E-001	9.51592E-004	5	..........a	-327.66
	969	194	3.70066E-001	-1.67097E-008	0.00000E+000	3.70000E-001	9.81592E-004	5	..........a	-327.66
	970	194.2	3.60044E-001	-2.00457E-008	0.00000E+000	3.60000E-001	9.67692E-004	5	..........a	-327.66
	971	194.4	3.50063E-001	-2.34307E-008	0.00000E+000	3.50000E-001	9.75992E-004	5	..........a	-327.66
	972	194.6	3.40097E-001	-2.67176E-008	0.00000E+000	3.40000E-001	9.61492E-004	5	..........a	-327.66
	973	194.8	3.30066E-001	-3.00343E-008	0.00000E+000	3.30000E-001	9.70492E-004	5	..........a	-327.66
	974	195	3.20070E-001	-3.32956E-008	0.00000E+000	3.20000E-001	9.52492E-004	5	..........a	-327.66
	975	195.2	3.10064E-001	-3.64339E-008	0.00000E+000	3.10000E-001	9.68092E-004	5	..........a	-327.66
	976	195.4	3.00113E-001	-3.96891E-008	0.00000E+000	3.00000E-001	9.54592E-004	5	..........a	-327.66
	977	195.6	2.90077E-001	-4.29678E-008	0.00000E+000	2.90000E-001	9.63792E-004	5	..........a	-327.66
	978	195.8	2.80044E-001	-4.60568E-008	0.00000E+000	2.80000E-001	9.65192E-004	5	..........a	-327.66
	979	196	2.70100E-001	-4.92468E-008	0.00000E+000	2.70000E-001	9.58692E-004	5	..........a	-327.66
	980	196.2	2.60093E-001	-5.23238E-008	0.00000E+000	2.60000E-001	9.51992E-004	5	..........a	-327.66
	981	196.4	2.50065E-001	-5.55193E-008	0.00000E+000	2.50000E-001	9.66192E-004	5	..........a	-327.66
	982	196.6	2.40081E-001	-5.85682E-008	0.00000E+000	2.40000E-001	9.73192E-004	5	..........a	-327.66
	983	196.8	2.30037E-001	-6.18009E-008	0.00000E+000	2.30000E-001	9.63492E-004	5	..........a	-327.66
	984	197	2.20092E-001	-6.48161E-008	0.00000E+000	2.20000E-001	9.44692E-004	5	..........a	-327.66
	985	197.2	2.10069E-001	-6.79295E-008	0.00000E+000	2.10000E-001	9.65692E-004	5	..........a	-327.66
	986	197.4	2.00095E-001	-7.09646E-008	0.00000E+000	2.00000E-001	9.76692E-004	5	..........a	-327.66
	987	197.6	1.90136E-001	-7.39867E-008	0.00000E+000	1.90000E-001	9.45692E-004	5	..........a	-327.66
	988	197.8	1.80169E-001	-7.68203E-008	0.00000E+000	1.80000E-001	9.56492E-004	5	..........a	-327.66
	989	198	1.70115E-001	-7.96154E-008	0.00000E+000	1.70000E-001	9.64092E-004	5	..........a	-327.66
	990	198.2	1.60092E-001	-8.22948E-008	0.00000E+000	1.60000E-001	9.62992E-004	5	..........a	-327.66
	991	198.4	1.50128E-001	-8.48857E-008	0.00000E+000	1.50000E-001	9.67792E-004	5	..........a	-327.66
	992	198.6	1.40162E-001	-8.72660E-008	0.00000E+000	1.40000E-001	9.52792E-004	5	..........a	-327.66
	993	198.8	1.30126E-001	-8.95536E-008	0.00000E+000	1.30000E-001	9.55692E-004	5	..........a	-327.66
	994	199	1.20133E-001	-9.17506E-008	0.00000E+000	1.20000E-001	9.56392E-004	5	..........a	-327.66
	995	199.2	1.10141E-001	-9.39632E-008	0.00000E+000	1.10000E-001	9.56592E-004	5	..........a	-327.66
	996	199.4	1.00202E-001	-9.59541E-008	0.00000E+000	1.00000E-001	9.56092E-004	5	..........a	-327.66
	997	199.6	9.01469E-002	-9.79540E-008	0.00000E+000	9.00000E-002	9.62392E-004	5	..........a	-327.66
	998	199.8	8.00854E-002	-9.97919E-008	0.00000E+000	8.00000E-002	9.66092E-004	5	..........a	-327.66
	999	200	7.01102E-002	-1.01683E-007	0.00000E+000	7.00000E-002	9.71092E-004	5	..........a	-327.66
	1000	200.2	6.01625E-002	-1.03519E-007	0.00000E+000	6.00000E-002	9.48592E-004	5	..........a	-327.66
	1001	200.4	5.01242E-002	-1.05292E-007	0.00000E+000	5.00000E-002	9.56992E-004	5	..........a	-327.66
	1002	200.6	4.01342E-002	-1.07098E-007	0.00000E+000	4.00000E-002	9.70292E-004	5	..........a	-327.66
	1003	200.8	3.01172E-002	-1.08949E-007	0.00000E+000	3.00000E-002	9.49892E-004	5	..........a	-327.66
	1004	201	2.02309E-002	-1.10799E-007	0.00000E+000	2.00000E-002	9.67892E-004	5	..........a	-327.66
	1005	201.2	1.01559E-002	-1.12810E-007	0.00000E+000	1.00000E-002	9.55692E-004	5	..........a	-327.66
	1006	201.4	9.31417E-005	-1.14636E-007	0.00000E+000	7.45058E-009	9.78492E-004	5	..........a	-327.66
	1007	201.6	-9.85686E-003	-1.16547E-007	0.00000E+000	-1.00000E-002	9.65992E-004	5	..........a	-327.66
	1008	201.8	-1.98398E-002	-1.18565E-007	0.00000E+000	-2.00000E-002	9.58192E-004	5	..........a	-327.66
	1009	202	-2.98788E-002	-1.20533E-007	0.00000E+000	-3.00000E-002	9.53492E-004	5	..........a	-327.66
	1010	202.2	-3.98445E-002	-1.22537E-007	0.00000E+000	-4.00000E-002	9.61892E-004	5	..........a	-327.66
	1011	202.4	-4.98731E-002	-1.24718E-007	0.00000E+000	-5.00000E-002	9.75792E-004	5	..........a	-327.66
	1012	202.6	-5.98051E-002	-1.26858E-007	0.00000E+000	-6.00000E-002	9.52492E-004	5	..........a	-327.66
	1013	202.8	-6.98566E-002	-1.28963E-007	0.00000E+000	-7.00000E-002	9.46992E-004	5	..........a	-327.66
	1014	203	-7.98831E-002	-1.31155E-007	0.00000E+000	-8.00000E-002	9.51592E-004	5	..........a	-327.66
	1015	203.2	-8.98471E-002	-1.33474E-007	0.00000E+000	-9.00000E-002	9.62492E-004	5	..........a	-327.66
	1016	203.4	-9.98081E-002	-1.35697E-007	0.00000E+000	-1.00000E-001	9.53792E-004	5	..........a	-327.66
	1017	203.6	-1.09880E-001	-1.38005E-007	0.00000E+000	-1.10000E-001	9.57392E-004	5	..........a	-327.66
	1018	203.8	-1.19870E-001	-1.40356E-007	0.00000E+000	-1.20000E-001	9.66292E-004	5	..........a	-327.66
	1019	204	-1.29870E-001	-1.42747E-007	0.00000E+000	-1.30000E-001	9.57192E-004	5	..........a	-327.66
	1020	204.2	-1.39812E-001	-1.45503E-007	0.00000E+000	-1.40000E-001	9.53892E-004	5	..........a	-327.66
	1021	204.4	-1.49869E-001	-1.47899E-007	0.00000E+000	-1.50000E-001	9.51292E-004	5	..........a	-327.66
	1022	204.6	-1.59909E-001	-1.50556E-007	0.00000E+000	-1.60000E-001	9.58892E-004	5	..........a	-327.66
	1023	204.8	-1.69837E-001	-1.53239E-007	0.00000E+000	-1.70000E-001	9.52692E-004	5	..........a	-327.66
	1024	205	-1.79793E-001	-1.55864E-007	0.00000E+000	-1.80000E-001	9.59392E-004	5	..........a	-327.66
	1025	205.2	-1.89939E-001	-1.58698E-007	0.00000E+000	-1.90000E-001	9.54992E-004	5	..........a	-327.66
	1026	205.4	-1.99892E-001	-1.61457E-007	0.00000E+000	-2.00000E-001	9.58092E-004	5	..........a	-327.66
	1027	205.6	-2.09838E-001	-1.64351E-007	0.00000E+000	-2.10000E-001	9.51692E-004	5	..........a	-327.66
	1028	205.8	-2.19811E-001	-1.66968E-007	0.00000E+000	-2.20000E-001	9.49692E-004	5	..........a	-327.66
	1029	206	-2.29842E-001	-1.69695E-007	0.00000E+000	-2.30000E-001	9.48592E-004	5	..........a	-327.66
	1030	206.2	-2.39793E-001	-1.72093E-007	0.00000E+000	-2.40000E-001	9.58092E-004	5	..........a	-327.66
	1031	206.4	-2.49826E-001	-1.74506E-007	0.00000E+000	-2.50000E-001	9.60392E-004	5	..........a	-327.66
	1032	206.6	-2.59739E-001	-1.76871E-007	0.00000E+000	-2.60000E-001	9.65192E-004	5	..........a	-327.66
	1033	206.8	-2.69814E-001	-1.79102E-007	0.00000E+000	-2.70000E-001	9.61992E-004	5	..........a	-327.66
	1034	207	-2.79824E-001	-1.81328E-007	0.00000E+000	-2.80000E-001	9.78492E-004	5	..........a	-327.66
	1035	207.2	-2.89810E-001	-1.83454E-007	0.00000E+000	-2.90000E-001	9.50992E-004	5	..........a	-327.66
	1036	207.4	-2.99783E-001	-1.85549E-007	0.00000E+000	-3.00000E-001	9.59492E-004	5	..........a	-327.66
	1037	207.6	-3.09817E-001	-1.87575E-007	0.00000E+000	-3.10000E-001	9.50292E-004	5	..........a	-327.66
	1038	207.8	-3.19779E-001	-1.89557E-007	0.00000E+000	-3.20000E-001	9.60592E-004	5	..........a	-327.66
	1039	208	-3.29816E-001	-1.91453E-007	0.00000E+000	-3.30000E-001	9.63192E-004	5	..........a	-327.66
	1040	208.2	-3.39723E-001	-1.93425E-007	0.00000E+000	-3.40000E-001	9.48392E-004	5	..........a	-327.66
	1041	208.4	-3.49810E-001	-1.95269E-007	0.00000E+000	-3.50000E-001	9.49792E-004	5	..........a	-327.66
	1042	208.6	-3.59810E-001	-1.97090E-007	0.00000E+000	-3.60000E-001	9.61892E-004	5	..........a	-327.66
	1043	208.8	-3.69804E-001	-1.98929E-007	0.00000E+000	-3.70000E-001	9.74992E-004	5	..........a	-327.66
	1044	209	-3.79736E-001	-2.00624E-007	0.00000E+000	-3.80000E-001	9.56492E-004	5	..........a	-327.66
	1045	209.2	-3.89808E-001	-2.02404E-007	0.00000E+000	-3.90000E-001	9.68392E-004	5	..........a	-327.66
	1046	209.4	-3.99788E-001	-2.03952E-007	0.00000E+000	-4.00000E-001	9.73292E-004	5	..........a	-327.66
	1047	209.6	-4.09789E-001	-2.05512E-007	0.00000E+000	-4.10000E-001	9.52892E-004	5	..........a	-327.66
	1048	209.8	-4.19687E-001	-2.07038E-007	0.00000E+000	-4.20000E-001	9.48892E-004	5	..........a	-327.66
	1049	210	-4.29784E-001	-2.08488E-007	0.00000E+000	-4.30000E-001	9.52592E-004	5	..........a	-327.66
	1050	210.2	-4.39723E-001	-2.09962E-007	0.00000E+000	-4.40000E-001	9.65992E-004	5	..........a	-327.66
	1051	210.4	-4.49797E-001	-2.11357E-007	0.00000E+000	-4.50000E-001	9.54492E-004	5	..........a	-327.66
	1052	210.6	-4.59695E-001	-2.12829E-007	0.00000E+000	-4.60000E-001	9.55292E-004	5	..........a	-327.66
	1053	210.8	-4.69767E-001	-2.14294E-007	0.00000E+000	-4.70000E-001	9.59792E-004	5	..........a	-327.66
	1054	211	-4.79767E-001	-2.15827E-007	0.00000E+000	-4.80000E-001	9.54992E-004	5	..........a	-327.66
	1055	211.2	-4.89767E-001	-2.17355E-007	0.00000E+000	-4.90000E-001	9.78292E-004	5	..........a	-327.66
	1056	211.4	-4.99754E-001	-2.18892E-007	0.00000E+000	-5.00000E-001	9.63292E-004	5	..........a	-327.66
	1057	211.6	-5.09766E-001	-2.20451E-007	0.00000E+000	-5.10000E-001	9.61192E-004	5	..........a	-327.66
	1058	211.8	-5.19766E-001	-2.22089E-007	0.00000E+000	-5.20000E-001	9.71892E-004	5	..........a	-327.66
	1059	212	-5.29783E-001	-2.23864E-007	0.00000E+000	-5.30000E-001	9.54392E-004	5	..........a	-327.66
	1060	212.2	-5.39694E-001	-2.25555E-007	0.00000E+000	-5.40000E-001	9.65892E-004	5	..........a	-327.66
	1061	212.4	-5.49791E-001	-2.27411E-007	0.00000E+000	-5.50000E-001	9.69092E-004	5	..........a	-327.66
	1062	212.6	-5.59785E-001	-2.29340E-007	0.00000E+000	-5.60000E-001	9.74992E-004	5	..........a	-327.66
	1063	212.8	-5.69774E-001	-2.31330E-007	0.00000E+000	-5.70000E-001	9.59492E-004	5	..........a	-327.66
	1064	213	-5.79715E-001	-2.33340E-007	0.00000E+000	-5.80000E-001	9.55492E-004	5	..........a	-327.66
	1065	213.2	-5.89766E-001	-2.35476E-007	0.00000E+000	-5.90000E-001	9.69092E-004	5	..........a	-327.66
	1066	213.4	-5.99744E-001	-2.37614E-007	0.00000E+000	-6.00000E-001	9.59592E-004	5	..........a	-327.66
CURVE5	TABLE
	Pt	T	Vf	Im	Vu	Sig	Ach	IERange	Over	Temp
	#	s	V vs. Ref.	A	V	V	V	#	bits	deg C
	1067	213.6	-5.89775E-001	-2.11594E-007	0.00000E+000	-5.90000E-001	9.74792E-004	5	..........a	-327.66
	1068	213.8	-5.79753E-001	-1.94363E-007	0.00000E+000	-5.80000E-001	9.45792E-004	5	..........a	-327.66
	1069	214	-5.69791E-001	-1.80721E-007	0.00000E+000	-5.70000E-001	9.65792E-004	5	..........a	-327.66
	1070	214.2	-5.59811E-001	-1.69104E-007	0.00000E+000	-5.60000E-001	9.64792E-004	5	..........a	-327.66
	1071	214.4	-5.49804E-001	-1.58811E-007	0.00000E+000	-5.50000E-001	9.53592E-004	5	..........a	-327.66
	1072	214.6	-5.39712E-001	-1.49437E-007	0.00000E+000	-5.40000E-001	9.63092E-004	5	..........a	-327.66
	1073	214.8	-5.29823E-001	-1.40723E-007	0.00000E+000	-5.30000E-001	9.70692E-004	5	..........a	-327.66
	1074	215	-5.19805E-001	-1.32952E-007	0.00000E+000	-5.20000E-001	9.64792E-004	5	..........a	-327.66
	1075	215.2	-5.09820E-001	-1.25337E-007	0.00000E+000	-5.10000E-001	9.54892E-004	5	..........a	-327.66
	1076	215.4	-4.99791E-001	-1.18025E-007	0.00000E+000	-5.00000E-001	9.59892E-004	5	..........a	-327.66
	1077	215.6	-4.89801E-001	-1.11044E-007	0.00000E+000	-4.90000E-001	9.73192E-004	5	..........a	-327.66
	1078	215.8	-4.79819E-001	-1.04481E-007	0.00000E+000	-4.80000E-001	9.55792E-004	5	..........a	-327.66
	1079	216	-4.69815E-001	-9.81185E-008	0.00000E+000	-4.70000E-001	9.53292E-004	5	..........a	-327.66
	1080	216.2	-4.59768E-001	-9.21216E-008	0.00000E+000	-4.60000E-001	9.50092E-004	5	..........a	-327.66
	1081	216.4	-4.49831E-001	-8.61889E-008	0.00000E+000	-4.50000E-001	9.71992E-004	5	..........a	-327.66
	1082	216.6	-4.39834E-001	-8.05176E-008	0.00000E+000	-4.40000E-001	9.68992E-004	5	..........a	-327.66
	1083	216.8	-4.29829E-001	-7.51911E-008	0.00000E+000	-4.30000E-001	9.68892E-004	5	..........a	-327.66
	1084	217	-4.19781E-001	-6.97867E-008	0.00000E+000	-4.20000E-001	9.61192E-004	5	..........a	-327.66
	1085	217.2	-4.09832E-001	-6.46051E-008	0.00000E+000	-4.10000E-001	9.61292E-004	5	..........a	-327.66
	1086	217.4	-3.99839E-001	-5.95200E-008	0.00000E+000	-4.00000E-001	9.53192E-004	5	..........a	-327.66
	1087	217.6	-3.89868E-001	-5.46542E-008	0.00000E+000	-3.90000E-001	9.69592E-004	5	..........a	-327.66
	1088	217.8	-3.79820E-001	-4.98759E-008	0.00000E+000	-3.80000E-001	9.44792E-004	5	..........a	-327.66
	1089	218	-3.69836E-001	-4.51796E-008	0.00000E+000	-3.70000E-001	9.63292E-004	5	..........a	-327.66
	1090	218.2	-3.59867E-001	-4.06664E-008	0.00000E+000	-3.60000E-001	9.79792E-004	5	..........a	-327.66
	1091	218.4	-3.49860E-001	-3.63063E-008	0.00000E+000	-3.50000E-001	9.62092E-004	5	..........a	-327.66
	1092	218.6	-3.39819E-001	-3.18885E-008	0.00000E+000	-3.40000E-001	9.59992E-004	5	..........a	-327.66
	1093	218.8	-3.29915E-001	-2.75880E-008	0.00000E+000	-3.30000E-001	9.79292E-004	5	..........a	-327.66
	1094	219	-3.19859E-001	-2.34842E-008	0.00000E+000	-3.20000E-001	9.49392E-004	5	..........a	-327.66
	1095	219.2	-3.09879E-001	-1.93636E-008	0.00000E+000	-3.10000E-001	9.70092E-004	5	..........a	-327.66
	1096	219.4	-2.99847E-001	-1.53965E-008	0.00000E+000	-3.00000E-001	9.68092E-004	5	..........a	-327.66
	1097	219.6	-2.89892E-001	-1.15687E-008	0.00000E+000	-2.90000E-001	9.65592E-004	5	..........a	-327.66
	1098	219.8	-2.79911E-001	-7.67876E-009	0.00000E+000	-2.80000E-001	9.72892E-004	5	..........a	-327.66
	1099	220	-2.69862E-001	-3.91072E-009	0.00000E+000	-2.70000E-001	9.51992E-004	5	..........a	-327.66
	1100	220.2	-2.59831E-001	-2.45093E-010	0.00000E+000	-2.60000E-001	9.56292E-004	5	..........a	-327.66
	1101	220.4	-2.49914E-001	3.48244E-009	0.00000E+000	-2.50000E-001	9.70492E-004	5	..........a	-327.66
	1102	220.6	-2.39912E-001	6.91759E-009	0.00000E+000	-2.40000E-001	9.57292E-004	5	..........a	-327.66
	1103	220.8	-2.29951E-001	1.04374E-008	0.00000E+000	-2.30000E-001	9.61192E-004	5	..........a	-327.66
	1104	221	-2.19893E-001	1.39758E-008	0.00000E+000	-2.20000E-001	9.64492E-004	5	..........a	-327.66
	1105	221.2	-2.09911E-001	1.73763E-008	0.00000E+000	-2.10000E-001	9.66592E-004	5	..........a	-327.66
	1106	221.4	-1.99962E-001	2.07399E-008	0.00000E+000	-2.00000E-001	9.68292E-004	5	..........a	-327.66
	1107	221.6	-1.89946E-001	2.40879E-008	0.00000E+000	-1.90000E-001	9.65892E-004	5	..........a	-327.66
	1108	221.8	-1.79917E-001	2.73791E-008	0.00000E+000	-1.80000E-001	9.51792E-004	5	..........a	-327.66
	1109	222	-1.69910E-001	3.05866E-008	0.00000E+000	-1.70000E-001	9.60792E-004	5	..........a	-327.66
	1110	222.2	-1.60040E-001	3.37924E-008	0.00000E+000	-1.60000E-001	9.77292E-004	5	..........a	-327.66
	1111	222.4	-1.49967E-001	3.69790E-008	0.00000E+000	-1.50000E-001	9.62392E-004	5	..........a	-327.66
	1112	222.6	-1.39955E-001	4.00541E-008	0.00000E+000	-1.40000E-001	9.58092E-004	5	..........a	-327.66
	1113	222.8	-1.29983E-001	4.31953E-008	0.00000E+000	-1.30000E-001	9.70092E-004	5	..........a	-327.66
	1114	223	-1.19963E-001	4.62608E-008	0.00000E+000	-1.20000E-001	9.75192E-004	5	..........a	-327.66
	1115	223.2	-1.09992E-001	4.93137E-008	0.00000E+000	-1.10000E-001	9.59092E-004	5	..........a	-327.66
	1116	223.4	-9.99373E-002	5.23370E-008	0.00000E+000	-1.00000E-001	9.59492E-004	5	..........a	-327.66
	1117	223.6	-8.99298E-002	5.52792E-008	0.00000E+000	-9.00000E-002	9.51892E-004	5	..........a	-327.66
	1118	223.8	-7.99828E-002	5.82428E-008	0.00000E+000	-8.00000E-002	9.68492E-004	5	..........a	-327.66
	1119	224	-6.99502E-002	6.11229E-008	0.00000E+000	-7.00000E-002	9.64392E-004	5	..........a	-327.66
	1120	224.2	-5.99557E-002	6.40805E-008	0.00000E+000	-6.00000E-002	9.66192E-004	5	..........a	-327.66